initITIstatic,initITIdynamic,participant,date,expName,psychopyVersion,OS,frameRate,inst1.keys,inst1.rt,startPracResp.keys,startPracResp.rt,choice1.keys,choice1.rt,outcome,extraITI,trials.thisRepN,trials.thisTrialN,trials.thisN,trials.thisIndex,trials.ran,riskyGain,riskyLoss,alternative,isi,iti,loc,postPractResp.keys,postPractResp.rt,realloc,realChoice.keys,realChoice.rt,outcomes,choices,actualITI,init ITI,staticRDM.thisRepN,staticRDM.thisTrialN,staticRDM.thisN,staticRDM.thisIndex,staticRDM.ran,riskyoption1,riskyoption2,safeoption,ischecktrial,dynamicChoiceSetName,dynamicChoiceSetPath,bestRho,bestMu,trials_2.thisRepN,trials_2.thisTrialN,trials_2.thisN,trials_2.thisIndex,trials_2.ran,key_resp.keys,key_resp.rt,dynamicRDM.thisRepN,dynamicRDM.thisTrialN,dynamicRDM.thisN,dynamicRDM.thisIndex,dynamicRDM.ran,choiceP,easy0difficult1,stopBreak.keys,stopBreak.rt,movealong.keys,movealong.rt,startPractice.keys,startPractice.rt,textboxPractice.text,correct,mousePractice.x,mousePractice.y,mousePractice.leftButton,mousePractice.midButton,mousePractice.rightButton,mousePractice.clicked_name,trialFSPractice.thisRepN,trialFSPractice.thisTrialN,trialFSPractice.thisN,trialFSPractice.thisIndex,trialFSPractice.ran,digitSpanForward,digits,digitsReverse,digitSpanReverse,digitsReverseCorrAnswer,startFSreal.keys,startFSreal.rt,digitsForTrial,digitLoop.thisRepN,digitLoop.thisTrialN,digitLoop.thisN,digitLoop.thisIndex,digitLoop.ran,textbox.text,mouse_3.x,mouse_3.y,mouse_3.leftButton,mouse_3.midButton,mouse_3.rightButton,mouse_3.clicked_name,trialsFS.thisRepN,trialsFS.thisTrialN,trialsFS.thisN,trialsFS.thisIndex,trialsFS.ran,trialNumber,moveToBS.keys,moveToBS.rt,startBSprac.keys,startBSprac.rt,textboxPractice_2.text,mousePractice_2.x,mousePractice_2.y,mousePractice_2.leftButton,mousePractice_2.midButton,mousePractice_2.rightButton,mousePractice_2.clicked_name,trialsPracticeBS.thisRepN,trialsPracticeBS.thisTrialN,trialsPracticeBS.thisN,trialsPracticeBS.thisIndex,trialsPracticeBS.ran,startBSreal.keys,startBSreal.rt,digitLoopBS.thisRepN,digitLoopBS.thisTrialN,digitLoopBS.thisN,digitLoopBS.thisIndex,digitLoopBS.ran,textboxBS.text,mouseBS.x,mouseBS.y,mouseBS.leftButton,mouseBS.midButton,mouseBS.rightButton,mouseBS.clicked_name,trialsBS.thisRepN,trialsBS.thisTrialN,trialsBS.thisN,trialsBS.thisIndex,trialsBS.ran
"[1.5,1,1.5,1,1.5,1.5,1,1.5,1,1,1.5,1.5,1.5,1,1.5,1,1.5,1,1.5,1,1.5,1.5,1.5,1.5,1.5,1,1,1.5,1,1,1,1,1,1,1.5,1,1,1.5,1,1,1,1.5,1,1.5,1.5,1.5,1.5,1.5,1,1]","[1,1,1.5,1,1,1.5,1.5,1,1.5,1,1.5,1,1,1,1.5,1.5,1.5,1,1,1,1,1,1.5,1,1.5,1,1,1.5,1.5,1,1.5,1,1,1.5,1.5,1,1.5,1.5,1.5,1,1.5,1.5,1.5,1,1.5,1.5,1.5,1.5,1,1.5,1.5,1.5,1.5,1,1,1,1.5,1.5,1,1,1,1.5,1.5,1,1.5,1,1,1,1,1.5,1,1,1.5,1.5,1,1.5,1,1,1,1.5,1,1,1.5,1,1.5,1.5,1,1.5,1,1,1,1,1.5,1.5,1.5,1,1,1.5,1.5,1.5,1.5,1.5,1,1.5,1.5,1.5,1.5,1.5,1,1,1,1,1,1,1,1.5,1.5,1.5,1.5,1]",5f3c2648a9ef86a4c10de377,2022-09-08_14h10.39.221,CGTgamblingSpanTasks,2022.2.1,Win32,59.70505702,,,,,,,,,,,,,,,,,,,,,,,,,,,,,,,,,,,,,,,,,,,,,,,,,,,,,,,,,,,,,,,,,,,,,,,,,,,,,,,,,,,,,,,,,,,,,,,,,,,,,,,,,,,,,,,,,,,,,,,,,,,,,,,,,,,,,,,
,,5f3c2648a9ef86a4c10de377,2022-09-08_14h10.39.221,CGTgamblingSpanTasks,2022.2.1,Win32,59.70505702,return,0.3686,,,,,,,,,,,,,,,,,,,,,,,,,,,,,,,,,,,,,,,,,,,,,,,,,,,,,,,,,,,,,,,,,,,,,,,,,,,,,,,,,,,,,,,,,,,,,,,,,,,,,,,,,,,,,,,,,,,,,,,,,,,,,,,,,,,,,
,,5f3c2648a9ef86a4c10de377,2022-09-08_14h10.39.221,CGTgamblingSpanTasks,2022.2.1,Win32,59.70505702,,,v,38.974,,,,,,,,,,,,,,,,,,,,,,,,,,,,,,,,,,,,,,,,,,,,,,,,,,,,,,,,,,,,,,,,,,,,,,,,,,,,,,,,,,,,,,,,,,,,,,,,,,,,,,,,,,,,,,,,,,,,,,,,,,,,,,,,,,,
,,5f3c2648a9ef86a4c10de377,2022-09-08_14h10.39.221,CGTgamblingSpanTasks,2022.2.1,Win32,59.70505702,,,,,v,1.4242,18.23,2.5758,0,0,0,0,1,18.23,0,9.45,2,1,1,,,,,,,,,,,,,,,,,,,,,,,,,,,,,,,,,,,,,,,,,,,,,,,,,,,,,,,,,,,,,,,,,,,,,,,,,,,,,,,,,,,,,,,,,,,,,,,,,,,,,,,,,,,,,,,,,,,,
,,5f3c2648a9ef86a4c10de377,2022-09-08_14h10.39.221,CGTgamblingSpanTasks,2022.2.1,Win32,59.70505702,,,,,n,1.2176,35.16,2.7824,0,1,1,1,1,53.27,0,35.16,1,1.5,1,,,,,,,,,,,,,,,,,,,,,,,,,,,,,,,,,,,,,,,,,,,,,,,,,,,,,,,,,,,,,,,,,,,,,,,,,,,,,,,,,,,,,,,,,,,,,,,,,,,,,,,,,,,,,,,,,,,,
,,5f3c2648a9ef86a4c10de377,2022-09-08_14h10.39.221,CGTgamblingSpanTasks,2022.2.1,Win32,59.70505702,,,,,n,0.8116,8.27,3.1884,0,2,2,2,1,8.27,0,1.15,1,1.5,2,,,,,,,,,,,,,,,,,,,,,,,,,,,,,,,,,,,,,,,,,,,,,,,,,,,,,,,,,,,,,,,,,,,,,,,,,,,,,,,,,,,,,,,,,,,,,,,,,,,,,,,,,,,,,,,,,,,,
,,5f3c2648a9ef86a4c10de377,2022-09-08_14h10.39.221,CGTgamblingSpanTasks,2022.2.1,Win32,59.70505702,,,,,n,1.112,40.41,2.888,0,3,3,3,1,45.88,0,40.41,3,1,1,,,,,,,,,,,,,,,,,,,,,,,,,,,,,,,,,,,,,,,,,,,,,,,,,,,,,,,,,,,,,,,,,,,,,,,,,,,,,,,,,,,,,,,,,,,,,,,,,,,,,,,,,,,,,,,,,,,,
,,5f3c2648a9ef86a4c10de377,2022-09-08_14h10.39.221,CGTgamblingSpanTasks,2022.2.1,Win32,59.70505702,,,,,v,0.8481,11.96,3.1519,0,4,4,4,1,21.56,0,11.96,1,1.5,2,,,,,,,,,,,,,,,,,,,,,,,,,,,,,,,,,,,,,,,,,,,,,,,,,,,,,,,,,,,,,,,,,,,,,,,,,,,,,,,,,,,,,,,,,,,,,,,,,,,,,,,,,,,,,,,,,,,,
,,5f3c2648a9ef86a4c10de377,2022-09-08_14h10.39.221,CGTgamblingSpanTasks,2022.2.1,Win32,59.70505702,,,,,,,,,,,,,,,,,,,,v,10.9734,,,,,,,,,,,,,,,,,,,,,,,,,,,,,,,,,,,,,,,,,,,,,,,,,,,,,,,,,,,,,,,,,,,,,,,,,,,,,,,,,,,,,,,,,,,,,,,,,,,,,,,,,,,,,,,,,,
,,5f3c2648a9ef86a4c10de377,2022-09-08_14h10.39.221,CGTgamblingSpanTasks,2022.2.1,Win32,59.70505702,,,,,,,,3.0731,,,,,,,,,,,,,,2,n,0.9269,0,1,4.5731,1.5,0,0,0,17,1,18.33,0,8.84,0,,,,,,,,,,,,,,,,,,,,,,,,,,,,,,,,,,,,,,,,,,,,,,,,,,,,,,,,,,,,,,,,,,,,,,,,,,,,,,,,,,,,,,,,,,,,,,,,,,
,,5f3c2648a9ef86a4c10de377,2022-09-08_14h10.39.221,CGTgamblingSpanTasks,2022.2.1,Win32,59.70505702,,,,,,,,2.8513,,,,,,,,,,,,,,1,v,1.1487,28.21,1,3.8513,1,0,1,1,1,1,28.21,0,3.89,0,,,,,,,,,,,,,,,,,,,,,,,,,,,,,,,,,,,,,,,,,,,,,,,,,,,,,,,,,,,,,,,,,,,,,,,,,,,,,,,,,,,,,,,,,,,,,,,,,,
,,5f3c2648a9ef86a4c10de377,2022-09-08_14h10.39.221,CGTgamblingSpanTasks,2022.2.1,Win32,59.70505702,,,,,,,,3.0693,,,,,,,,,,,,,,1,n,0.9307,10.37,0,4.5693,1.5,0,2,2,37,1,15.27,0,10.37,0,,,,,,,,,,,,,,,,,,,,,,,,,,,,,,,,,,,,,,,,,,,,,,,,,,,,,,,,,,,,,,,,,,,,,,,,,,,,,,,,,,,,,,,,,,,,,,,,,,
,,5f3c2648a9ef86a4c10de377,2022-09-08_14h10.39.221,CGTgamblingSpanTasks,2022.2.1,Win32,59.70505702,,,,,,,,2.7894,,,,,,,,,,,,,,1,v,1.2106,0,1,3.7894,1,0,3,3,40,1,10.35,0,0,1,,,,,,,,,,,,,,,,,,,,,,,,,,,,,,,,,,,,,,,,,,,,,,,,,,,,,,,,,,,,,,,,,,,,,,,,,,,,,,,,,,,,,,,,,,,,,,,,,,
,,5f3c2648a9ef86a4c10de377,2022-09-08_14h10.39.221,CGTgamblingSpanTasks,2022.2.1,Win32,59.70505702,,,,,,,,0,,,,,,,,,,,,,,1,,,,,1.5,1.5,0,4,4,28,1,10.95,0,6.53,0,,,,,,,,,,,,,,,,,,,,,,,,,,,,,,,,,,,,,,,,,,,,,,,,,,,,,,,,,,,,,,,,,,,,,,,,,,,,,,,,,,,,,,,,,,,,,,,,,,
,,5f3c2648a9ef86a4c10de377,2022-09-08_14h10.39.221,CGTgamblingSpanTasks,2022.2.1,Win32,59.70505702,,,,,,,,0,,,,,,,,,,,,,,1,,,,,1.5,1.5,0,5,5,10,1,13.45,0,5.27,0,,,,,,,,,,,,,,,,,,,,,,,,,,,,,,,,,,,,,,,,,,,,,,,,,,,,,,,,,,,,,,,,,,,,,,,,,,,,,,,,,,,,,,,,,,,,,,,,,,
,,5f3c2648a9ef86a4c10de377,2022-09-08_14h10.39.221,CGTgamblingSpanTasks,2022.2.1,Win32,59.70505702,,,,,,,,0,,,,,,,,,,,,,,1,,,,,1,1,0,6,6,2,1,17.73,0,3.13,0,,,,,,,,,,,,,,,,,,,,,,,,,,,,,,,,,,,,,,,,,,,,,,,,,,,,,,,,,,,,,,,,,,,,,,,,,,,,,,,,,,,,,,,,,,,,,,,,,,
,,5f3c2648a9ef86a4c10de377,2022-09-08_14h10.39.221,CGTgamblingSpanTasks,2022.2.1,Win32,59.70505702,,,,,,,,0,,,,,,,,,,,,,,1,,,,,1.5,1.5,0,7,7,16,1,12.36,0,5.82,0,,,,,,,,,,,,,,,,,,,,,,,,,,,,,,,,,,,,,,,,,,,,,,,,,,,,,,,,,,,,,,,,,,,,,,,,,,,,,,,,,,,,,,,,,,,,,,,,,,
,,5f3c2648a9ef86a4c10de377,2022-09-08_14h10.39.221,CGTgamblingSpanTasks,2022.2.1,Win32,59.70505702,,,,,,,,0,,,,,,,,,,,,,,1,,,,,1,1,0,8,8,24,1,11.43,0,6.29,0,,,,,,,,,,,,,,,,,,,,,,,,,,,,,,,,,,,,,,,,,,,,,,,,,,,,,,,,,,,,,,,,,,,,,,,,,,,,,,,,,,,,,,,,,,,,,,,,,,
,,5f3c2648a9ef86a4c10de377,2022-09-08_14h10.39.221,CGTgamblingSpanTasks,2022.2.1,Win32,59.70505702,,,,,,,,0,,,,,,,,,,,,,,2,,,,,1,1,0,9,9,7,1,21.32,0,7.34,0,,,,,,,,,,,,,,,,,,,,,,,,,,,,,,,,,,,,,,,,,,,,,,,,,,,,,,,,,,,,,,,,,,,,,,,,,,,,,,,,,,,,,,,,,,,,,,,,,,
,,5f3c2648a9ef86a4c10de377,2022-09-08_14h10.39.221,CGTgamblingSpanTasks,2022.2.1,Win32,59.70505702,,,,,,,,0,,,,,,,,,,,,,,2,,,,,1.5,1.5,0,10,10,32,1,10.55,0,6.73,0,,,,,,,,,,,,,,,,,,,,,,,,,,,,,,,,,,,,,,,,,,,,,,,,,,,,,,,,,,,,,,,,,,,,,,,,,,,,,,,,,,,,,,,,,,,,,,,,,,
,,5f3c2648a9ef86a4c10de377,2022-09-08_14h10.39.221,CGTgamblingSpanTasks,2022.2.1,Win32,59.70505702,,,,,,,,0,,,,,,,,,,,,,,2,,,,,1.5,1.5,0,11,11,4,1,16,0,4,0,,,,,,,,,,,,,,,,,,,,,,,,,,,,,,,,,,,,,,,,,,,,,,,,,,,,,,,,,,,,,,,,,,,,,,,,,,,,,,,,,,,,,,,,,,,,,,,,,,
,,5f3c2648a9ef86a4c10de377,2022-09-08_14h10.39.221,CGTgamblingSpanTasks,2022.2.1,Win32,59.70505702,,,,,,,,0,,,,,,,,,,,,,,2,,,,,1.5,1.5,0,12,12,19,1,17.94,0,9.03,0,,,,,,,,,,,,,,,,,,,,,,,,,,,,,,,,,,,,,,,,,,,,,,,,,,,,,,,,,,,,,,,,,,,,,,,,,,,,,,,,,,,,,,,,,,,,,,,,,,
,,5f3c2648a9ef86a4c10de377,2022-09-08_14h10.39.221,CGTgamblingSpanTasks,2022.2.1,Win32,59.70505702,,,,,,,,0,,,,,,,,,,,,,,1,,,,,1,1,0,13,13,30,1,10.73,0,6.63,0,,,,,,,,,,,,,,,,,,,,,,,,,,,,,,,,,,,,,,,,,,,,,,,,,,,,,,,,,,,,,,,,,,,,,,,,,,,,,,,,,,,,,,,,,,,,,,,,,,
,,5f3c2648a9ef86a4c10de377,2022-09-08_14h10.39.221,CGTgamblingSpanTasks,2022.2.1,Win32,59.70505702,,,,,,,,0,,,,,,,,,,,,,,2,,,,,1.5,1.5,0,14,14,22,1,11.62,0,6.19,0,,,,,,,,,,,,,,,,,,,,,,,,,,,,,,,,,,,,,,,,,,,,,,,,,,,,,,,,,,,,,,,,,,,,,,,,,,,,,,,,,,,,,,,,,,,,,,,,,,
,,5f3c2648a9ef86a4c10de377,2022-09-08_14h10.39.221,CGTgamblingSpanTasks,2022.2.1,Win32,59.70505702,,,,,,,,0,,,,,,,,,,,,,,1,,,,,1,1,0,15,15,15,1,18.77,0,8.61,0,,,,,,,,,,,,,,,,,,,,,,,,,,,,,,,,,,,,,,,,,,,,,,,,,,,,,,,,,,,,,,,,,,,,,,,,,,,,,,,,,,,,,,,,,,,,,,,,,,
,,5f3c2648a9ef86a4c10de377,2022-09-08_14h10.39.221,CGTgamblingSpanTasks,2022.2.1,Win32,59.70505702,,,,,,,,0,,,,,,,,,,,,,,1,,,,,1.5,1.5,0,16,16,14,1,12.68,0,5.66,0,,,,,,,,,,,,,,,,,,,,,,,,,,,,,,,,,,,,,,,,,,,,,,,,,,,,,,,,,,,,,,,,,,,,,,,,,,,,,,,,,,,,,,,,,,,,,,,,,,
,,5f3c2648a9ef86a4c10de377,2022-09-08_14h10.39.221,CGTgamblingSpanTasks,2022.2.1,Win32,59.70505702,,,,,,,,0,,,,,,,,,,,,,,1,,,,,1,1,0,17,17,6,1,14.72,0,4.64,0,,,,,,,,,,,,,,,,,,,,,,,,,,,,,,,,,,,,,,,,,,,,,,,,,,,,,,,,,,,,,,,,,,,,,,,,,,,,,,,,,,,,,,,,,,,,,,,,,,
,,5f3c2648a9ef86a4c10de377,2022-09-08_14h10.39.221,CGTgamblingSpanTasks,2022.2.1,Win32,59.70505702,,,,,,,,0,,,,,,,,,,,,,,1,,,,,1.5,1.5,0,18,18,41,1,14.26,0,0,1,,,,,,,,,,,,,,,,,,,,,,,,,,,,,,,,,,,,,,,,,,,,,,,,,,,,,,,,,,,,,,,,,,,,,,,,,,,,,,,,,,,,,,,,,,,,,,,,,,
,,5f3c2648a9ef86a4c10de377,2022-09-08_14h10.39.221,CGTgamblingSpanTasks,2022.2.1,Win32,59.70505702,,,,,,,,0,,,,,,,,,,,,,,2,,,,,1,1,0,19,19,23,1,17.28,0,9.36,0,,,,,,,,,,,,,,,,,,,,,,,,,,,,,,,,,,,,,,,,,,,,,,,,,,,,,,,,,,,,,,,,,,,,,,,,,,,,,,,,,,,,,,,,,,,,,,,,,,
,,5f3c2648a9ef86a4c10de377,2022-09-08_14h10.39.221,CGTgamblingSpanTasks,2022.2.1,Win32,59.70505702,,,,,,,,0,,,,,,,,,,,,,,2,,,,,1.5,1.5,0,20,20,35,1,15.47,0,10.27,0,,,,,,,,,,,,,,,,,,,,,,,,,,,,,,,,,,,,,,,,,,,,,,,,,,,,,,,,,,,,,,,,,,,,,,,,,,,,,,,,,,,,,,,,,,,,,,,,,,
,,5f3c2648a9ef86a4c10de377,2022-09-08_14h10.39.221,CGTgamblingSpanTasks,2022.2.1,Win32,59.70505702,,,,,,,,0,,,,,,,,,,,,,,1,,,,,1.5,1.5,0,21,21,5,1,22.97,0,6.51,0,,,,,,,,,,,,,,,,,,,,,,,,,,,,,,,,,,,,,,,,,,,,,,,,,,,,,,,,,,,,,,,,,,,,,,,,,,,,,,,,,,,,,,,,,,,,,,,,,,
,,5f3c2648a9ef86a4c10de377,2022-09-08_14h10.39.221,CGTgamblingSpanTasks,2022.2.1,Win32,59.70505702,,,,,,,,0,,,,,,,,,,,,,,2,,,,,1.5,1.5,0,22,22,21,1,17.59,0,9.2,0,,,,,,,,,,,,,,,,,,,,,,,,,,,,,,,,,,,,,,,,,,,,,,,,,,,,,,,,,,,,,,,,,,,,,,,,,,,,,,,,,,,,,,,,,,,,,,,,,,
,,5f3c2648a9ef86a4c10de377,2022-09-08_14h10.39.221,CGTgamblingSpanTasks,2022.2.1,Win32,59.70505702,,,,,,,,0,,,,,,,,,,,,,,1,,,,,1.5,1.5,0,23,23,46,1,0,0,10.25,1,,,,,,,,,,,,,,,,,,,,,,,,,,,,,,,,,,,,,,,,,,,,,,,,,,,,,,,,,,,,,,,,,,,,,,,,,,,,,,,,,,,,,,,,,,,,,,,,,,
,,5f3c2648a9ef86a4c10de377,2022-09-08_14h10.39.221,CGTgamblingSpanTasks,2022.2.1,Win32,59.70505702,,,,,,,,0,,,,,,,,,,,,,,1,,,,,1.5,1.5,0,24,24,43,1,16.11,6.99,6.99,1,,,,,,,,,,,,,,,,,,,,,,,,,,,,,,,,,,,,,,,,,,,,,,,,,,,,,,,,,,,,,,,,,,,,,,,,,,,,,,,,,,,,,,,,,,,,,,,,,,
,,5f3c2648a9ef86a4c10de377,2022-09-08_14h10.39.221,CGTgamblingSpanTasks,2022.2.1,Win32,59.70505702,,,,,,,,0,,,,,,,,,,,,,,1,,,,,1,1,0,25,25,45,1,0,0,7.55,1,,,,,,,,,,,,,,,,,,,,,,,,,,,,,,,,,,,,,,,,,,,,,,,,,,,,,,,,,,,,,,,,,,,,,,,,,,,,,,,,,,,,,,,,,,,,,,,,,,
,,5f3c2648a9ef86a4c10de377,2022-09-08_14h10.39.221,CGTgamblingSpanTasks,2022.2.1,Win32,59.70505702,,,,,,,,0,,,,,,,,,,,,,,1,,,,,1,1,0,26,26,27,1,16.6,0,9.7,0,,,,,,,,,,,,,,,,,,,,,,,,,,,,,,,,,,,,,,,,,,,,,,,,,,,,,,,,,,,,,,,,,,,,,,,,,,,,,,,,,,,,,,,,,,,,,,,,,,
,,5f3c2648a9ef86a4c10de377,2022-09-08_14h10.39.221,CGTgamblingSpanTasks,2022.2.1,Win32,59.70505702,,,,,,,,2.7356,,,,,,,,,,,,,,2,n,1.2644,0,1,4.2356,1.5,0,27,27,39,1,15.09,0,10.46,0,,,,,,,,,,,,,,,,,,,,,,,,,,,,,,,,,,,,,,,,,,,,,,,,,,,,,,,,,,,,,,,,,,,,,,,,,,,,,,,,,,,,,,,,,,,,,,,,,,
,,5f3c2648a9ef86a4c10de377,2022-09-08_14h10.39.221,CGTgamblingSpanTasks,2022.2.1,Win32,59.70505702,,,,,,,,2.7387,,,,,,,,,,,,,,2,n,1.2613,0,1,3.7387,1,0,28,28,12,1,13.04,0,5.48,0,,,,,,,,,,,,,,,,,,,,,,,,,,,,,,,,,,,,,,,,,,,,,,,,,,,,,,,,,,,,,,,,,,,,,,,,,,,,,,,,,,,,,,,,,,,,,,,,,,
,,5f3c2648a9ef86a4c10de377,2022-09-08_14h10.39.221,CGTgamblingSpanTasks,2022.2.1,Win32,59.70505702,,,,,,,,3.1196,,,,,,,,,,,,,,1,v,0.8804,19.86,1,4.1196,1,0,29,29,11,1,19.86,0,8.07,0,,,,,,,,,,,,,,,,,,,,,,,,,,,,,,,,,,,,,,,,,,,,,,,,,,,,,,,,,,,,,,,,,,,,,,,,,,,,,,,,,,,,,,,,,,,,,,,,,,
,,5f3c2648a9ef86a4c10de377,2022-09-08_14h10.39.221,CGTgamblingSpanTasks,2022.2.1,Win32,59.70505702,,,,,,,,3.0207,,,,,,,,,,,,,,2,n,0.9793,0,1,4.0207,1,0,30,30,13,1,19.28,0,8.36,0,,,,,,,,,,,,,,,,,,,,,,,,,,,,,,,,,,,,,,,,,,,,,,,,,,,,,,,,,,,,,,,,,,,,,,,,,,,,,,,,,,,,,,,,,,,,,,,,,,
,,5f3c2648a9ef86a4c10de377,2022-09-08_14h10.39.221,CGTgamblingSpanTasks,2022.2.1,Win32,59.70505702,,,,,,,,3.1844,,,,,,,,,,,,,,1,n,0.8156,6.08,0,4.1844,1,0,31,31,20,1,11.84,0,6.08,0,,,,,,,,,,,,,,,,,,,,,,,,,,,,,,,,,,,,,,,,,,,,,,,,,,,,,,,,,,,,,,,,,,,,,,,,,,,,,,,,,,,,,,,,,,,,,,,,,,
,,5f3c2648a9ef86a4c10de377,2022-09-08_14h10.39.221,CGTgamblingSpanTasks,2022.2.1,Win32,59.70505702,,,,,,,,2.9881,,,,,,,,,,,,,,1,n,1.0119,6.81,0,3.9881,1,0,32,32,34,1,10.39,0,6.81,0,,,,,,,,,,,,,,,,,,,,,,,,,,,,,,,,,,,,,,,,,,,,,,,,,,,,,,,,,,,,,,,,,,,,,,,,,,,,,,,,,,,,,,,,,,,,,,,,,,
,,5f3c2648a9ef86a4c10de377,2022-09-08_14h10.39.221,CGTgamblingSpanTasks,2022.2.1,Win32,59.70505702,,,,,,,,2.9854,,,,,,,,,,,,,,1,n,1.0146,9.92,0,3.9854,1,0,33,33,49,1,6.79,0,9.92,1,,,,,,,,,,,,,,,,,,,,,,,,,,,,,,,,,,,,,,,,,,,,,,,,,,,,,,,,,,,,,,,,,,,,,,,,,,,,,,,,,,,,,,,,,,,,,,,,,,
,,5f3c2648a9ef86a4c10de377,2022-09-08_14h10.39.221,CGTgamblingSpanTasks,2022.2.1,Win32,59.70505702,,,,,,,,3.1157,,,,,,,,,,,,,,2,v,0.8843,10.02,0,4.6157,1.5,0,34,34,31,1,15.96,0,10.02,0,,,,,,,,,,,,,,,,,,,,,,,,,,,,,,,,,,,,,,,,,,,,,,,,,,,,,,,,,,,,,,,,,,,,,,,,,,,,,,,,,,,,,,,,,,,,,,,,,,
,,5f3c2648a9ef86a4c10de377,2022-09-08_14h10.39.221,CGTgamblingSpanTasks,2022.2.1,Win32,59.70505702,,,,,,,,3.1008,,,,,,,,,,,,,,2,n,0.8992,13.94,1,4.1008,1,0,35,35,8,1,13.94,0,5.03,0,,,,,,,,,,,,,,,,,,,,,,,,,,,,,,,,,,,,,,,,,,,,,,,,,,,,,,,,,,,,,,,,,,,,,,,,,,,,,,,,,,,,,,,,,,,,,,,,,,
,,5f3c2648a9ef86a4c10de377,2022-09-08_14h10.39.221,CGTgamblingSpanTasks,2022.2.1,Win32,59.70505702,,,,,,,,0,,,,,,,,,,,,,,2,,,,,1,1,0,36,36,48,1,10.68,0,10.68,1,,,,,,,,,,,,,,,,,,,,,,,,,,,,,,,,,,,,,,,,,,,,,,,,,,,,,,,,,,,,,,,,,,,,,,,,,,,,,,,,,,,,,,,,,,,,,,,,,,
,,5f3c2648a9ef86a4c10de377,2022-09-08_14h10.39.221,CGTgamblingSpanTasks,2022.2.1,Win32,59.70505702,,,,,,,,0,,,,,,,,,,,,,,1,,,,,1.5,1.5,0,37,37,0,1,20.03,0,1.99,0,,,,,,,,,,,,,,,,,,,,,,,,,,,,,,,,,,,,,,,,,,,,,,,,,,,,,,,,,,,,,,,,,,,,,,,,,,,,,,,,,,,,,,,,,,,,,,,,,,
,,5f3c2648a9ef86a4c10de377,2022-09-08_14h10.39.221,CGTgamblingSpanTasks,2022.2.1,Win32,59.70505702,,,,,,,,0,,,,,,,,,,,,,,2,,,,,1,1,0,38,38,44,1,13.1,7.73,4.68,1,,,,,,,,,,,,,,,,,,,,,,,,,,,,,,,,,,,,,,,,,,,,,,,,,,,,,,,,,,,,,,,,,,,,,,,,,,,,,,,,,,,,,,,,,,,,,,,,,,
,,5f3c2648a9ef86a4c10de377,2022-09-08_14h10.39.221,CGTgamblingSpanTasks,2022.2.1,Win32,59.70505702,,,,,,,,3.0264,,,,,,,,,,,,,,1,v,0.9736,0,1,4.0264,1,0,39,39,36,1,10.24,0,6.88,0,,,,,,,,,,,,,,,,,,,,,,,,,,,,,,,,,,,,,,,,,,,,,,,,,,,,,,,,,,,,,,,,,,,,,,,,,,,,,,,,,,,,,,,,,,,,,,,,,,
,,5f3c2648a9ef86a4c10de377,2022-09-08_14h10.39.221,CGTgamblingSpanTasks,2022.2.1,Win32,59.70505702,,,,,,,,2.7056,,,,,,,,,,,,,,1,v,1.2944,0,1,3.7056,1,0,40,40,26,1,11.2,0,6.4,0,,,,,,,,,,,,,,,,,,,,,,,,,,,,,,,,,,,,,,,,,,,,,,,,,,,,,,,,,,,,,,,,,,,,,,,,,,,,,,,,,,,,,,,,,,,,,,,,,,
,,5f3c2648a9ef86a4c10de377,2022-09-08_14h10.39.221,CGTgamblingSpanTasks,2022.2.1,Win32,59.70505702,,,,,,,,3.2138,,,,,,,,,,,,,,1,v,0.7862,0,1,4.7138,1.5,0,41,41,3,1,25.2,0,5.4,0,,,,,,,,,,,,,,,,,,,,,,,,,,,,,,,,,,,,,,,,,,,,,,,,,,,,,,,,,,,,,,,,,,,,,,,,,,,,,,,,,,,,,,,,,,,,,,,,,,
,,5f3c2648a9ef86a4c10de377,2022-09-08_14h10.39.221,CGTgamblingSpanTasks,2022.2.1,Win32,59.70505702,,,,,,,,3.1982,,,,,,,,,,,,,,2,n,0.8018,0,1,4.1982,1,0,42,42,42,1,19.86,0,0,1,,,,,,,,,,,,,,,,,,,,,,,,,,,,,,,,,,,,,,,,,,,,,,,,,,,,,,,,,,,,,,,,,,,,,,,,,,,,,,,,,,,,,,,,,,,,,,,,,,
,,5f3c2648a9ef86a4c10de377,2022-09-08_14h10.39.221,CGTgamblingSpanTasks,2022.2.1,Win32,59.70505702,,,,,,,,3.2388,,,,,,,,,,,,,,2,n,0.7612,20.53,1,4.7388,1.5,0,43,43,9,1,20.53,0,7.73,0,,,,,,,,,,,,,,,,,,,,,,,,,,,,,,,,,,,,,,,,,,,,,,,,,,,,,,,,,,,,,,,,,,,,,,,,,,,,,,,,,,,,,,,,,,,,,,,,,,
,,5f3c2648a9ef86a4c10de377,2022-09-08_14h10.39.221,CGTgamblingSpanTasks,2022.2.1,Win32,59.70505702,,,,,,,,3.0488,,,,,,,,,,,,,,2,v,0.9512,6.94,0,4.5488,1.5,0,44,44,38,1,10.12,0,6.94,0,,,,,,,,,,,,,,,,,,,,,,,,,,,,,,,,,,,,,,,,,,,,,,,,,,,,,,,,,,,,,,,,,,,,,,,,,,,,,,,,,,,,,,,,,,,,,,,,,,
,,5f3c2648a9ef86a4c10de377,2022-09-08_14h10.39.221,CGTgamblingSpanTasks,2022.2.1,Win32,59.70505702,,,,,,,,3.2233,,,,,,,,,,,,,,1,n,0.7767,9.87,0,4.7233,1.5,0,45,45,29,1,16.26,0,9.87,0,,,,,,,,,,,,,,,,,,,,,,,,,,,,,,,,,,,,,,,,,,,,,,,,,,,,,,,,,,,,,,,,,,,,,,,,,,,,,,,,,,,,,,,,,,,,,,,,,,
,,5f3c2648a9ef86a4c10de377,2022-09-08_14h10.39.221,CGTgamblingSpanTasks,2022.2.1,Win32,59.70505702,,,,,,,,3.1459,,,,,,,,,,,,,,1,n,0.8541,3.13,0,4.6459,1.5,0,46,46,47,1,0,0,3.13,1,,,,,,,,,,,,,,,,,,,,,,,,,,,,,,,,,,,,,,,,,,,,,,,,,,,,,,,,,,,,,,,,,,,,,,,,,,,,,,,,,,,,,,,,,,,,,,,,,,
,,5f3c2648a9ef86a4c10de377,2022-09-08_14h10.39.221,CGTgamblingSpanTasks,2022.2.1,Win32,59.70505702,,,,,,,,3.1963,,,,,,,,,,,,,,2,v,0.8037,10.15,0,4.6963,1.5,0,47,47,33,1,15.7,0,10.15,0,,,,,,,,,,,,,,,,,,,,,,,,,,,,,,,,,,,,,,,,,,,,,,,,,,,,,,,,,,,,,,,,,,,,,,,,,,,,,,,,,,,,,,,,,,,,,,,,,,
,,5f3c2648a9ef86a4c10de377,2022-09-08_14h10.39.221,CGTgamblingSpanTasks,2022.2.1,Win32,59.70505702,,,,,,,,3.2207,,,,,,,,,,,,,,1,n,0.7793,5.96,0,4.2207,1,0,48,48,18,1,12.08,0,5.96,0,,,,,,,,,,,,,,,,,,,,,,,,,,,,,,,,,,,,,,,,,,,,,,,,,,,,,,,,,,,,,,,,,,,,,,,,,,,,,,,,,,,,,,,,,,,,,,,,,,
,,5f3c2648a9ef86a4c10de377,2022-09-08_14h10.39.221,CGTgamblingSpanTasks,2022.2.1,Win32,59.70505702,,,,,,,,3.0407,,,,,,,,,,,,,,2,v,0.9593,9.5,0,4.0407,1,0,49,49,25,1,17,0,9.5,0,,,,,,,,,,,,,,,,,,,,,,,,,,,,,,,,,,,,,,,,,,,,,,,,,,,,,,,,,,,,,,,,,,,,,,,,,,,,,,,,,,,,,,,,,,,,,,,,,,
,,5f3c2648a9ef86a4c10de377,2022-09-08_14h10.39.221,CGTgamblingSpanTasks,2022.2.1,Win32,59.70505702,,,,,,,,,,,,,,,,,,,,,,,,,,,,,,,,,,,,,,bespoke_choiceset_rhoInd089_muInd054.csv,bespoke_choicesets/bespoke_choiceset_rhoInd089_muInd054.csv,89,54,0,0,0,0,1,,,,,,,,,,,,,,,,,,,,,,,,,,,,,,,,,,,,,,,,,,,,,,,,,,,,,,,,,,,,,,,,,,,,,,,,,,,,,,,,,,,,,,,,,
,,5f3c2648a9ef86a4c10de377,2022-09-08_14h10.39.221,CGTgamblingSpanTasks,2022.2.1,Win32,59.70505702,,,,,,,,,,,,,,,,,,,,,,,,,,,,,,,,,,,,,,,,,,,,,,,,,,,,,,,,,,,,,,,,,,,,,,,,,,,,,,,,,,,,,,,,,,,,,,,,,,,,,,,,,,,,,,,,,,,,,,,,,,,,,,,,,,,,,,,
,,5f3c2648a9ef86a4c10de377,2022-09-08_14h10.39.221,CGTgamblingSpanTasks,2022.2.1,Win32,59.70505702,,,,,,,,,,,,,,,,,,,,,,,,,,,,,,,,,,,,,,,,,,,,,,,v,3.343,,,,,,,,,,,,,,,,,,,,,,,,,,,,,,,,,,,,,,,,,,,,,,,,,,,,,,,,,,,,,,,,,,,,,,,,,,,,,,,,,,,,,,,
,,5f3c2648a9ef86a4c10de377,2022-09-08_14h10.39.221,CGTgamblingSpanTasks,2022.2.1,Win32,59.70505702,,,,,,,,3.1079,,,,,,,,,,,,,,1,v,0.8921,27.37527992,1,4.1079,1,,,,,,27.37527992,0,2.860319095,,,,,,,,,,,,,0,0,0,39,1,0.486304156,1,,,,,,,,,,,,,,,,,,,,,,,,,,,,,,,,,,,,,,,,,,,,,,,,,,,,,,,,,,,,,,,,,,,,,,,,,,,,,,,,
,,5f3c2648a9ef86a4c10de377,2022-09-08_14h10.39.221,CGTgamblingSpanTasks,2022.2.1,Win32,59.70505702,,,,,,,,2.918,,,,,,,,,,,,,,2,v,1.082,8.42547829,0,3.918,1,,,,,,15.87668502,0,8.42547829,,,,,,,,,,,,,0,1,1,56,1,0.092099462,0,,,,,,,,,,,,,,,,,,,,,,,,,,,,,,,,,,,,,,,,,,,,,,,,,,,,,,,,,,,,,,,,,,,,,,,,,,,,,,,,
,,5f3c2648a9ef86a4c10de377,2022-09-08_14h10.39.221,CGTgamblingSpanTasks,2022.2.1,Win32,59.70505702,,,,,,,,2.9235,,,,,,,,,,,,,,1,v,1.0765,18.50662664,1,4.4235,1.5,,,,,,18.50662664,0,0.052546026,,,,,,,,,,,,,0,2,2,112,1,0.908444837,0,,,,,,,,,,,,,,,,,,,,,,,,,,,,,,,,,,,,,,,,,,,,,,,,,,,,,,,,,,,,,,,,,,,,,,,,,,,,,,,,
,,5f3c2648a9ef86a4c10de377,2022-09-08_14h10.39.221,CGTgamblingSpanTasks,2022.2.1,Win32,59.70505702,,,,,,,,3.0536,,,,,,,,,,,,,,1,v,0.9464,0,1,4.0536,1,,,,,,23.59556381,0,2.464662219,,,,,,,,,,,,,0,3,3,22,1,0.486383205,1,,,,,,,,,,,,,,,,,,,,,,,,,,,,,,,,,,,,,,,,,,,,,,,,,,,,,,,,,,,,,,,,,,,,,,,,,,,,,,,,
,,5f3c2648a9ef86a4c10de377,2022-09-08_14h10.39.221,CGTgamblingSpanTasks,2022.2.1,Win32,59.70505702,,,,,,,,3.1364,,,,,,,,,,,,,,2,v,0.8636,4.251676631,0,4.1364,1,,,,,,3.395192929,0,4.251676631,,,,,,,,,,,,,0,4,4,7,1,0.023467153,0,,,,,,,,,,,,,,,,,,,,,,,,,,,,,,,,,,,,,,,,,,,,,,,,,,,,,,,,,,,,,,,,,,,,,,,,,,,,,,,,
,,5f3c2648a9ef86a4c10de377,2022-09-08_14h10.39.221,CGTgamblingSpanTasks,2022.2.1,Win32,59.70505702,,,,,,,,2.7914,,,,,,,,,,,,,,2,n,1.2086,13.96521039,1,4.2914,1.5,,,,,,13.96521039,0,1.591282699,,,,,,,,,,,,,0,5,5,49,1,0.462956344,1,,,,,,,,,,,,,,,,,,,,,,,,,,,,,,,,,,,,,,,,,,,,,,,,,,,,,,,,,,,,,,,,,,,,,,,,,,,,,,,,
,,5f3c2648a9ef86a4c10de377,2022-09-08_14h10.39.221,CGTgamblingSpanTasks,2022.2.1,Win32,59.70505702,,,,,,,,3.2683,,,,,,,,,,,,,,2,n,0.7317,27.38828234,1,4.7683,1.5,,,,,,27.38828234,0,0.0639233,,,,,,,,,,,,,0,6,6,43,1,0.914010176,0,,,,,,,,,,,,,,,,,,,,,,,,,,,,,,,,,,,,,,,,,,,,,,,,,,,,,,,,,,,,,,,,,,,,,,,,,,,,,,,,
,,5f3c2648a9ef86a4c10de377,2022-09-08_14h10.39.221,CGTgamblingSpanTasks,2022.2.1,Win32,59.70505702,,,,,,,,2.9015,,,,,,,,,,,,,,1,v,1.0985,25.21882231,1,3.9015,1,,,,,,25.21882231,0,0.085746782,,,,,,,,,,,,,0,7,7,64,1,0.90272076,0,,,,,,,,,,,,,,,,,,,,,,,,,,,,,,,,,,,,,,,,,,,,,,,,,,,,,,,,,,,,,,,,,,,,,,,,,,,,,,,,
,,5f3c2648a9ef86a4c10de377,2022-09-08_14h10.39.221,CGTgamblingSpanTasks,2022.2.1,Win32,59.70505702,,,,,,,,3.1221,,,,,,,,,,,,,,2,n,0.8779,21.17800335,1,4.6221,1.5,,,,,,21.17800335,0,0.059830985,,,,,,,,,,,,,0,8,8,67,1,0.908594974,0,,,,,,,,,,,,,,,,,,,,,,,,,,,,,,,,,,,,,,,,,,,,,,,,,,,,,,,,,,,,,,,,,,,,,,,,,,,,,,,,
,,5f3c2648a9ef86a4c10de377,2022-09-08_14h10.39.221,CGTgamblingSpanTasks,2022.2.1,Win32,59.70505702,,,,,,,,3.2194,,,,,,,,,,,,,,1,v,0.7806,20.31034258,1,4.2194,1,,,,,,20.31034258,0,1.870404296,,,,,,,,,,,,,0,9,9,85,1,0.519325853,1,,,,,,,,,,,,,,,,,,,,,,,,,,,,,,,,,,,,,,,,,,,,,,,,,,,,,,,,,,,,,,,,,,,,,,,,,,,,,,,,
,,5f3c2648a9ef86a4c10de377,2022-09-08_14h10.39.221,CGTgamblingSpanTasks,2022.2.1,Win32,59.70505702,,,,,,,,3.0452,,,,,,,,,,,,,,1,v,0.9548,25.56803059,1,4.5452,1.5,,,,,,25.56803059,0,2.543951743,,,,,,,,,,,,,0,10,10,41,1,0.499247217,1,,,,,,,,,,,,,,,,,,,,,,,,,,,,,,,,,,,,,,,,,,,,,,,,,,,,,,,,,,,,,,,,,,,,,,,,,,,,,,,,
,,5f3c2648a9ef86a4c10de377,2022-09-08_14h10.39.221,CGTgamblingSpanTasks,2022.2.1,Win32,59.70505702,,,,,,,,3.1252,,,,,,,,,,,,,,1,v,0.8748,21.48443242,1,4.1252,1,,,,,,21.48443242,0,2.229247341,,,,,,,,,,,,,0,11,11,63,1,0.488155912,1,,,,,,,,,,,,,,,,,,,,,,,,,,,,,,,,,,,,,,,,,,,,,,,,,,,,,,,,,,,,,,,,,,,,,,,,,,,,,,,,
,,5f3c2648a9ef86a4c10de377,2022-09-08_14h10.39.221,CGTgamblingSpanTasks,2022.2.1,Win32,59.70505702,,,,,,,,3.2962,,,,,,,,,,,,,,1,v,0.7038,0,1,4.2962,1,,,,,,24.479109,0,0.089582697,,,,,,,,,,,,,0,12,12,89,1,0.900200232,0,,,,,,,,,,,,,,,,,,,,,,,,,,,,,,,,,,,,,,,,,,,,,,,,,,,,,,,,,,,,,,,,,,,,,,,,,,,,,,,,
,,5f3c2648a9ef86a4c10de377,2022-09-08_14h10.39.221,CGTgamblingSpanTasks,2022.2.1,Win32,59.70505702,,,,,,,,3.1793,,,,,,,,,,,,,,2,n,0.8207,17.5608285,1,4.1793,1,,,,,,17.5608285,0,1.825111303,,,,,,,,,,,,,0,13,13,104,1,0.487721116,1,,,,,,,,,,,,,,,,,,,,,,,,,,,,,,,,,,,,,,,,,,,,,,,,,,,,,,,,,,,,,,,,,,,,,,,,,,,,,,,,
,,5f3c2648a9ef86a4c10de377,2022-09-08_14h10.39.221,CGTgamblingSpanTasks,2022.2.1,Win32,59.70505702,,,,,,,,3.2645,,,,,,,,,,,,,,2,n,0.7355,21.46599803,1,4.7645,1.5,,,,,,21.46599803,0,0.059789256,,,,,,,,,,,,,0,14,14,8,1,0.909019081,0,,,,,,,,,,,,,,,,,,,,,,,,,,,,,,,,,,,,,,,,,,,,,,,,,,,,,,,,,,,,,,,,,,,,,,,,,,,,,,,,
,,5f3c2648a9ef86a4c10de377,2022-09-08_14h10.39.221,CGTgamblingSpanTasks,2022.2.1,Win32,59.70505702,,,,,,,,3.3614,,,,,,,,,,,,,,1,v,0.6386,0,1,4.8614,1.5,,,,,,27.88092897,0,2.771762788,,,,,,,,,,,,,0,15,15,117,1,0.499466648,1,,,,,,,,,,,,,,,,,,,,,,,,,,,,,,,,,,,,,,,,,,,,,,,,,,,,,,,,,,,,,,,,,,,,,,,,,,,,,,,,
,,5f3c2648a9ef86a4c10de377,2022-09-08_14h10.39.221,CGTgamblingSpanTasks,2022.2.1,Win32,59.70505702,,,,,,,,3.3469,,,,,,,,,,,,,,2,n,0.6531,25.65316415,1,4.8469,1.5,,,,,,25.65316415,0,0.079652925,,,,,,,,,,,,,0,16,16,109,1,0.90568168,0,,,,,,,,,,,,,,,,,,,,,,,,,,,,,,,,,,,,,,,,,,,,,,,,,,,,,,,,,,,,,,,,,,,,,,,,,,,,,,,,
,,5f3c2648a9ef86a4c10de377,2022-09-08_14h10.39.221,CGTgamblingSpanTasks,2022.2.1,Win32,59.70505702,,,,,,,,3.3454,,,,,,,,,,,,,,2,n,0.6546,0,1,4.3454,1,,,,,,11.08143071,0,1.207538756,,,,,,,,,,,,,0,17,17,84,1,0.475047453,1,,,,,,,,,,,,,,,,,,,,,,,,,,,,,,,,,,,,,,,,,,,,,,,,,,,,,,,,,,,,,,,,,,,,,,,,,,,,,,,,
,,5f3c2648a9ef86a4c10de377,2022-09-08_14h10.39.221,CGTgamblingSpanTasks,2022.2.1,Win32,59.70505702,,,,,,,,3.4392,,,,,,,,,,,,,,1,v,0.5608,20.5726842,1,4.4392,1,,,,,,20.5726842,0,0.073558523,,,,,,,,,,,,,0,18,18,26,1,0.901008565,0,,,,,,,,,,,,,,,,,,,,,,,,,,,,,,,,,,,,,,,,,,,,,,,,,,,,,,,,,,,,,,,,,,,,,,,,,,,,,,,,
,,5f3c2648a9ef86a4c10de377,2022-09-08_14h10.39.221,CGTgamblingSpanTasks,2022.2.1,Win32,59.70505702,,,,,,,,3.1299,,,,,,,,,,,,,,1,v,0.8701,14.3363647,1,4.1299,1,,,,,,14.3363647,0,1.396635362,,,,,,,,,,,,,0,19,19,78,1,0.504775474,1,,,,,,,,,,,,,,,,,,,,,,,,,,,,,,,,,,,,,,,,,,,,,,,,,,,,,,,,,,,,,,,,,,,,,,,,,,,,,,,,
,,5f3c2648a9ef86a4c10de377,2022-09-08_14h10.39.221,CGTgamblingSpanTasks,2022.2.1,Win32,59.70505702,,,,,,,,2.6938,,,,,,,,,,,,,,1,v,1.3062,0,1,3.6938,1,,,,,,17.23907308,0,2.055848574,,,,,,,,,,,,,0,20,20,66,1,0.450504458,1,,,,,,,,,,,,,,,,,,,,,,,,,,,,,,,,,,,,,,,,,,,,,,,,,,,,,,,,,,,,,,,,,,,,,,,,,,,,,,,,
,,5f3c2648a9ef86a4c10de377,2022-09-08_14h10.39.221,CGTgamblingSpanTasks,2022.2.1,Win32,59.70505702,,,,,,,,2.764,,,,,,,,,,,,,,2,n,1.236,28.14876717,1,3.764,1,,,,,,28.14876717,0,3.117906378,,,,,,,,,,,,,0,21,21,76,1,0.470636736,1,,,,,,,,,,,,,,,,,,,,,,,,,,,,,,,,,,,,,,,,,,,,,,,,,,,,,,,,,,,,,,,,,,,,,,,,,,,,,,,,
,,5f3c2648a9ef86a4c10de377,2022-09-08_14h10.39.221,CGTgamblingSpanTasks,2022.2.1,Win32,59.70505702,,,,,,,,3.3567,,,,,,,,,,,,,,2,v,0.6433,7.646213173,0,4.8567,1.5,,,,,,2.042350179,0,7.646213173,,,,,,,,,,,,,0,22,22,53,1,0.009522273,0,,,,,,,,,,,,,,,,,,,,,,,,,,,,,,,,,,,,,,,,,,,,,,,,,,,,,,,,,,,,,,,,,,,,,,,,,,,,,,,,
,,5f3c2648a9ef86a4c10de377,2022-09-08_14h10.39.221,CGTgamblingSpanTasks,2022.2.1,Win32,59.70505702,,,,,,,,3.1319,,,,,,,,,,,,,,1,v,0.8681,26.36733703,1,4.1319,1,,,,,,26.36733703,0,2.201057101,,,,,,,,,,,,,0,23,23,90,1,0.544064207,1,,,,,,,,,,,,,,,,,,,,,,,,,,,,,,,,,,,,,,,,,,,,,,,,,,,,,,,,,,,,,,,,,,,,,,,,,,,,,,,,
,,5f3c2648a9ef86a4c10de377,2022-09-08_14h10.39.221,CGTgamblingSpanTasks,2022.2.1,Win32,59.70505702,,,,,,,,2.8484,,,,,,,,,,,,,,2,n,1.1516,8.217594828,1,4.3484,1.5,,,,,,8.217594828,0,0.951019374,,,,,,,,,,,,,0,24,24,87,1,0.458722936,1,,,,,,,,,,,,,,,,,,,,,,,,,,,,,,,,,,,,,,,,,,,,,,,,,,,,,,,,,,,,,,,,,,,,,,,,,,,,,,,,
,,5f3c2648a9ef86a4c10de377,2022-09-08_14h10.39.221,CGTgamblingSpanTasks,2022.2.1,Win32,59.70505702,,,,,,,,3.3164,,,,,,,,,,,,,,1,v,0.6836,0,1,4.3164,1,,,,,,13.4287264,0,1.317368801,,,,,,,,,,,,,0,25,25,100,1,0.502953125,1,,,,,,,,,,,,,,,,,,,,,,,,,,,,,,,,,,,,,,,,,,,,,,,,,,,,,,,,,,,,,,,,,,,,,,,,,,,,,,,,
,,5f3c2648a9ef86a4c10de377,2022-09-08_14h10.39.221,CGTgamblingSpanTasks,2022.2.1,Win32,59.70505702,,,,,,,,3.0744,,,,,,,,,,,,,,2,n,0.9256,0,1,4.0744,1,,,,,,24.8002852,0,0.071848086,,,,,,,,,,,,,0,26,26,16,1,0.90783559,0,,,,,,,,,,,,,,,,,,,,,,,,,,,,,,,,,,,,,,,,,,,,,,,,,,,,,,,,,,,,,,,,,,,,,,,,,,,,,,,,
,,5f3c2648a9ef86a4c10de377,2022-09-08_14h10.39.221,CGTgamblingSpanTasks,2022.2.1,Win32,59.70505702,,,,,,,,3.1026,,,,,,,,,,,,,,1,v,0.8974,0,1,4.6026,1.5,,,,,,14.20587264,0,11.93550497,,,,,,,,,,,,,0,27,27,21,1,0.041340301,0,,,,,,,,,,,,,,,,,,,,,,,,,,,,,,,,,,,,,,,,,,,,,,,,,,,,,,,,,,,,,,,,,,,,,,,,,,,,,,,,
,,5f3c2648a9ef86a4c10de377,2022-09-08_14h10.39.221,CGTgamblingSpanTasks,2022.2.1,Win32,59.70505702,,,,,,,,3.3245,,,,,,,,,,,,,,2,n,0.6755,0,1,4.8245,1.5,,,,,,21.00799273,0,0.067969053,,,,,,,,,,,,,0,28,28,92,1,0.904360262,0,,,,,,,,,,,,,,,,,,,,,,,,,,,,,,,,,,,,,,,,,,,,,,,,,,,,,,,,,,,,,,,,,,,,,,,,,,,,,,,,
,,5f3c2648a9ef86a4c10de377,2022-09-08_14h10.39.221,CGTgamblingSpanTasks,2022.2.1,Win32,59.70505702,,,,,,,,2.9224,,,,,,,,,,,,,,1,v,1.0776,0,1,3.9224,1,,,,,,29.77342428,0,2.838865588,,,,,,,,,,,,,0,29,29,57,1,0.510363415,1,,,,,,,,,,,,,,,,,,,,,,,,,,,,,,,,,,,,,,,,,,,,,,,,,,,,,,,,,,,,,,,,,,,,,,,,,,,,,,,,
,,5f3c2648a9ef86a4c10de377,2022-09-08_14h10.39.221,CGTgamblingSpanTasks,2022.2.1,Win32,59.70505702,,,,,,,,3.2236,,,,,,,,,,,,,,2,n,0.7764,0,1,4.7236,1.5,,,,,,25.54604005,0,0.088845411,,,,,,,,,,,,,0,30,30,79,1,0.901957831,0,,,,,,,,,,,,,,,,,,,,,,,,,,,,,,,,,,,,,,,,,,,,,,,,,,,,,,,,,,,,,,,,,,,,,,,,,,,,,,,,
,,5f3c2648a9ef86a4c10de377,2022-09-08_14h10.39.221,CGTgamblingSpanTasks,2022.2.1,Win32,59.70505702,,,,,,,,2.914,,,,,,,,,,,,,,1,n,1.086,11.42134125,0,3.914,1,,,,,,12.9904115,0,11.42134125,,,,,,,,,,,,,0,31,31,118,1,0.037876033,0,,,,,,,,,,,,,,,,,,,,,,,,,,,,,,,,,,,,,,,,,,,,,,,,,,,,,,,,,,,,,,,,,,,,,,,,,,,,,,,,
,,5f3c2648a9ef86a4c10de377,2022-09-08_14h10.39.221,CGTgamblingSpanTasks,2022.2.1,Win32,59.70505702,,,,,,,,3.0986,,,,,,,,,,,,,,2,n,0.9014,0,1,4.0986,1,,,,,,15.21435748,0,10.3417501,,,,,,,,,,,,,0,32,32,72,1,0.060969226,0,,,,,,,,,,,,,,,,,,,,,,,,,,,,,,,,,,,,,,,,,,,,,,,,,,,,,,,,,,,,,,,,,,,,,,,,,,,,,,,,
,,5f3c2648a9ef86a4c10de377,2022-09-08_14h10.39.221,CGTgamblingSpanTasks,2022.2.1,Win32,59.70505702,,,,,,,,3.0816,,,,,,,,,,,,,,1,v,0.9184,28.33977875,1,4.5816,1.5,,,,,,28.33977875,0,2.768313633,,,,,,,,,,,,,0,33,33,116,1,0.50406901,1,,,,,,,,,,,,,,,,,,,,,,,,,,,,,,,,,,,,,,,,,,,,,,,,,,,,,,,,,,,,,,,,,,,,,,,,,,,,,,,,
,,5f3c2648a9ef86a4c10de377,2022-09-08_14h10.39.221,CGTgamblingSpanTasks,2022.2.1,Win32,59.70505702,,,,,,,,2.6649,,,,,,,,,,,,,,1,v,1.3351,28.18900855,1,4.1649,1.5,,,,,,28.18900855,0,0.05384276,,,,,,,,,,,,,0,34,34,55,1,0.919081308,0,,,,,,,,,,,,,,,,,,,,,,,,,,,,,,,,,,,,,,,,,,,,,,,,,,,,,,,,,,,,,,,,,,,,,,,,,,,,,,,,
,,5f3c2648a9ef86a4c10de377,2022-09-08_14h10.39.221,CGTgamblingSpanTasks,2022.2.1,Win32,59.70505702,,,,,,,,2.9321,,,,,,,,,,,,,,1,n,1.0679,11.41737518,0,3.9321,1,,,,,,18.11029021,0,11.41737518,,,,,,,,,,,,,0,35,35,48,1,0.069445859,0,,,,,,,,,,,,,,,,,,,,,,,,,,,,,,,,,,,,,,,,,,,,,,,,,,,,,,,,,,,,,,,,,,,,,,,,,,,,,,,,
,,5f3c2648a9ef86a4c10de377,2022-09-08_14h10.39.221,CGTgamblingSpanTasks,2022.2.1,Win32,59.70505702,,,,,,,,3.0301,,,,,,,,,,,,,,1,v,0.9699,22.62475578,1,4.5301,1.5,,,,,,22.62475578,0,2.397643354,,,,,,,,,,,,,0,36,36,93,1,0.482527609,1,,,,,,,,,,,,,,,,,,,,,,,,,,,,,,,,,,,,,,,,,,,,,,,,,,,,,,,,,,,,,,,,,,,,,,,,,,,,,,,,
,,5f3c2648a9ef86a4c10de377,2022-09-08_14h10.39.221,CGTgamblingSpanTasks,2022.2.1,Win32,59.70505702,,,,,,,,3.2995,,,,,,,,,,,,,,1,v,0.7005,7.066129113,1,4.7995,1.5,,,,,,7.066129113,0,0.585581699,,,,,,,,,,,,,0,37,37,19,1,0.545860632,1,,,,,,,,,,,,,,,,,,,,,,,,,,,,,,,,,,,,,,,,,,,,,,,,,,,,,,,,,,,,,,,,,,,,,,,,,,,,,,,,
,,5f3c2648a9ef86a4c10de377,2022-09-08_14h10.39.221,CGTgamblingSpanTasks,2022.2.1,Win32,59.70505702,,,,,,,,3.1566,,,,,,,,,,,,,,2,n,0.8434,0,1,4.6566,1.5,,,,,,22.86604061,0,2.293289792,,,,,,,,,,,,,0,38,38,51,1,0.49715382,1,,,,,,,,,,,,,,,,,,,,,,,,,,,,,,,,,,,,,,,,,,,,,,,,,,,,,,,,,,,,,,,,,,,,,,,,,,,,,,,,
,,5f3c2648a9ef86a4c10de377,2022-09-08_14h10.39.221,CGTgamblingSpanTasks,2022.2.1,Win32,59.70505702,,,,,,,,3.2665,,,,,,,,,,,,,,2,n,0.7335,0,1,4.2665,1,,,,,,23.24777057,0,2.003482335,,,,,,,,,,,,,0,39,39,59,1,0.536135174,1,,,,,,,,,,,,,,,,,,,,,,,,,,,,,,,,,,,,,,,,,,,,,,,,,,,,,,,,,,,,,,,,,,,,,,,,,,,,,,,,
,,5f3c2648a9ef86a4c10de377,2022-09-08_14h10.39.221,CGTgamblingSpanTasks,2022.2.1,Win32,59.70505702,,,,,,,,3.3438,,,,,,,,,,,,,,1,v,0.6562,0,1,4.8438,1.5,,,,,,22.87092517,0,0.059276504,,,,,,,,,,,,,0,40,40,27,1,0.911114935,0,,,,,,,,,,,,,,,,,,,,,,,,,,,,,,,,,,,,,,,,,,,,,,,,,,,,,,,,,,,,,,,,,,,,,,,,,,,,,,,,
,,5f3c2648a9ef86a4c10de377,2022-09-08_14h10.39.221,CGTgamblingSpanTasks,2022.2.1,Win32,59.70505702,,,,,,,,3.1821,,,,,,,,,,,,,,1,v,0.8179,0,1,4.6821,1.5,,,,,,14.11762686,0,8.579385201,,,,,,,,,,,,,0,41,41,60,1,0.073886959,0,,,,,,,,,,,,,,,,,,,,,,,,,,,,,,,,,,,,,,,,,,,,,,,,,,,,,,,,,,,,,,,,,,,,,,,,,,,,,,,,
,,5f3c2648a9ef86a4c10de377,2022-09-08_14h10.39.221,CGTgamblingSpanTasks,2022.2.1,Win32,59.70505702,,,,,,,,3.0649,,,,,,,,,,,,,,1,v,0.9351,28.13634754,1,4.5649,1.5,,,,,,28.13634754,0,2.532806323,,,,,,,,,,,,,0,42,42,28,1,0.525136524,1,,,,,,,,,,,,,,,,,,,,,,,,,,,,,,,,,,,,,,,,,,,,,,,,,,,,,,,,,,,,,,,,,,,,,,,,,,,,,,,,
,,5f3c2648a9ef86a4c10de377,2022-09-08_14h10.39.221,CGTgamblingSpanTasks,2022.2.1,Win32,59.70505702,,,,,,,,3.0396,,,,,,,,,,,,,,1,v,0.9604,19.68065872,1,4.0396,1,,,,,,19.68065872,0,1.843597162,,,,,,,,,,,,,0,43,43,80,1,0.514941058,1,,,,,,,,,,,,,,,,,,,,,,,,,,,,,,,,,,,,,,,,,,,,,,,,,,,,,,,,,,,,,,,,,,,,,,,,,,,,,,,,
,,5f3c2648a9ef86a4c10de377,2022-09-08_14h10.39.221,CGTgamblingSpanTasks,2022.2.1,Win32,59.70505702,,,,,,,,3.3141,,,,,,,,,,,,,,2,n,0.6859,27.4965044,1,4.8141,1.5,,,,,,27.4965044,0,2.461467004,,,,,,,,,,,,,0,44,44,36,1,0.526550878,1,,,,,,,,,,,,,,,,,,,,,,,,,,,,,,,,,,,,,,,,,,,,,,,,,,,,,,,,,,,,,,,,,,,,,,,,,,,,,,,,
,,5f3c2648a9ef86a4c10de377,2022-09-08_14h10.39.221,CGTgamblingSpanTasks,2022.2.1,Win32,59.70505702,,,,,,,,2.9648,,,,,,,,,,,,,,2,n,1.0352,0,1,4.4648,1.5,,,,,,11.16819157,0,0.941456753,,,,,,,,,,,,,0,45,45,45,1,0.54163803,1,,,,,,,,,,,,,,,,,,,,,,,,,,,,,,,,,,,,,,,,,,,,,,,,,,,,,,,,,,,,,,,,,,,,,,,,,,,,,,,,
,,5f3c2648a9ef86a4c10de377,2022-09-08_14h10.39.221,CGTgamblingSpanTasks,2022.2.1,Win32,59.70505702,,,,,,,,3.3158,,,,,,,,,,,,,,1,v,0.6842,27.76752685,1,4.8158,1.5,,,,,,27.76752685,0,0.083968035,,,,,,,,,,,,,0,46,46,13,1,0.906513967,0,,,,,,,,,,,,,,,,,,,,,,,,,,,,,,,,,,,,,,,,,,,,,,,,,,,,,,,,,,,,,,,,,,,,,,,,,,,,,,,,
,,5f3c2648a9ef86a4c10de377,2022-09-08_14h10.39.221,CGTgamblingSpanTasks,2022.2.1,Win32,59.70505702,,,,,,,,2.966,,,,,,,,,,,,,,1,n,1.034,4.462262453,0,4.466,1.5,,,,,,0.192759042,0,4.462262453,,,,,,,,,,,,,0,47,47,52,1,0.003553223,0,,,,,,,,,,,,,,,,,,,,,,,,,,,,,,,,,,,,,,,,,,,,,,,,,,,,,,,,,,,,,,,,,,,,,,,,,,,,,,,,
,,5f3c2648a9ef86a4c10de377,2022-09-08_14h10.39.221,CGTgamblingSpanTasks,2022.2.1,Win32,59.70505702,,,,,,,,3.2242,,,,,,,,,,,,,,1,n,0.7758,11.61882862,0,4.2242,1,,,,,,4.022743614,0,11.61882862,,,,,,,,,,,,,0,48,48,38,1,0.011499376,0,,,,,,,,,,,,,,,,,,,,,,,,,,,,,,,,,,,,,,,,,,,,,,,,,,,,,,,,,,,,,,,,,,,,,,,,,,,,,,,,
,,5f3c2648a9ef86a4c10de377,2022-09-08_14h10.39.221,CGTgamblingSpanTasks,2022.2.1,Win32,59.70505702,,,,,,,,3.1319,,,,,,,,,,,,,,1,v,0.8681,0,1,4.6319,1.5,,,,,,13.84410806,0,1.535873964,,,,,,,,,,,,,0,49,49,88,1,0.470209002,1,,,,,,,,,,,,,,,,,,,,,,,,,,,,,,,,,,,,,,,,,,,,,,,,,,,,,,,,,,,,,,,,,,,,,,,,,,,,,,,,
,,5f3c2648a9ef86a4c10de377,2022-09-08_14h10.39.221,CGTgamblingSpanTasks,2022.2.1,Win32,59.70505702,,,,,,,,2.7647,,,,,,,,,,,,,,1,v,1.2353,7.534278541,1,4.2647,1.5,,,,,,7.534278541,0,0.747140182,,,,,,,,,,,,,0,50,50,37,1,0.50012466,1,,,,,,,,,,,,,,,,,,,,,,,,,,,,,,,,,,,,,,,,,,,,,,,,,,,,,,,,,,,,,,,,,,,,,,,,,,,,,,,,
,,5f3c2648a9ef86a4c10de377,2022-09-08_14h10.39.221,CGTgamblingSpanTasks,2022.2.1,Win32,59.70505702,,,,,,,,3.2154,,,,,,,,,,,,,,1,v,0.7846,0,1,4.7154,1.5,,,,,,22.25959835,0,0.065383587,,,,,,,,,,,,,0,51,51,97,1,0.907413875,0,,,,,,,,,,,,,,,,,,,,,,,,,,,,,,,,,,,,,,,,,,,,,,,,,,,,,,,,,,,,,,,,,,,,,,,,,,,,,,,,
,,5f3c2648a9ef86a4c10de377,2022-09-08_14h10.39.221,CGTgamblingSpanTasks,2022.2.1,Win32,59.70505702,,,,,,,,3.2806,,,,,,,,,,,,,,1,v,0.7194,0,1,4.7806,1.5,,,,,,27.12325385,0,0.080932047,,,,,,,,,,,,,0,52,52,14,1,0.906929184,0,,,,,,,,,,,,,,,,,,,,,,,,,,,,,,,,,,,,,,,,,,,,,,,,,,,,,,,,,,,,,,,,,,,,,,,,,,,,,,,,
,,5f3c2648a9ef86a4c10de377,2022-09-08_14h10.39.221,CGTgamblingSpanTasks,2022.2.1,Win32,59.70505702,,,,,,,,3.3679,,,,,,,,,,,,,,1,v,0.6321,28.94627214,1,4.3679,1,,,,,,28.94627214,0,2.701896413,,,,,,,,,,,,,0,53,53,111,1,0.515860759,1,,,,,,,,,,,,,,,,,,,,,,,,,,,,,,,,,,,,,,,,,,,,,,,,,,,,,,,,,,,,,,,,,,,,,,,,,,,,,,,,
,,5f3c2648a9ef86a4c10de377,2022-09-08_14h10.39.221,CGTgamblingSpanTasks,2022.2.1,Win32,59.70505702,,,,,,,,2.9582,,,,,,,,,,,,,,2,n,1.0418,0,1,3.9582,1,,,,,,18.51345298,0,1.932334278,,,,,,,,,,,,,0,54,54,31,1,0.48658696,1,,,,,,,,,,,,,,,,,,,,,,,,,,,,,,,,,,,,,,,,,,,,,,,,,,,,,,,,,,,,,,,,,,,,,,,,,,,,,,,,
,,5f3c2648a9ef86a4c10de377,2022-09-08_14h10.39.221,CGTgamblingSpanTasks,2022.2.1,Win32,59.70505702,,,,,,,,2.8571,,,,,,,,,,,,,,1,n,1.1429,3.877530383,0,3.8571,1,,,,,,3.471484939,0,3.877530383,,,,,,,,,,,,,0,55,55,40,1,0.02623078,0,,,,,,,,,,,,,,,,,,,,,,,,,,,,,,,,,,,,,,,,,,,,,,,,,,,,,,,,,,,,,,,,,,,,,,,,,,,,,,,,
,,5f3c2648a9ef86a4c10de377,2022-09-08_14h10.39.221,CGTgamblingSpanTasks,2022.2.1,Win32,59.70505702,,,,,,,,3.182,,,,,,,,,,,,,,1,v,0.818,0,1,4.682,1.5,,,,,,28.9381277,0,2.663622024,,,,,,,,,,,,,0,56,56,103,1,0.519453367,1,,,,,,,,,,,,,,,,,,,,,,,,,,,,,,,,,,,,,,,,,,,,,,,,,,,,,,,,,,,,,,,,,,,,,,,,,,,,,,,,
,,5f3c2648a9ef86a4c10de377,2022-09-08_14h10.39.221,CGTgamblingSpanTasks,2022.2.1,Win32,59.70505702,,,,,,,,3.2145,,,,,,,,,,,,,,1,v,0.7855,17.92584289,1,4.7145,1.5,,,,,,17.92584289,0,1.878232496,,,,,,,,,,,,,0,57,57,5,1,0.485559263,1,,,,,,,,,,,,,,,,,,,,,,,,,,,,,,,,,,,,,,,,,,,,,,,,,,,,,,,,,,,,,,,,,,,,,,,,,,,,,,,,
,,5f3c2648a9ef86a4c10de377,2022-09-08_14h10.39.221,CGTgamblingSpanTasks,2022.2.1,Win32,59.70505702,,,,,,,,2.8166,,,,,,,,,,,,,,1,n,1.1834,8.512335864,0,3.8166,1,,,,,,10.05300841,0,8.512335864,,,,,,,,,,,,,0,58,58,74,1,0.040729225,0,,,,,,,,,,,,,,,,,,,,,,,,,,,,,,,,,,,,,,,,,,,,,,,,,,,,,,,,,,,,,,,,,,,,,,,,,,,,,,,,
,,5f3c2648a9ef86a4c10de377,2022-09-08_14h10.39.221,CGTgamblingSpanTasks,2022.2.1,Win32,59.70505702,,,,,,,,3.1477,,,,,,,,,,,,,,1,v,0.8523,25.76582409,1,4.1477,1,,,,,,25.76582409,0,2.393193076,,,,,,,,,,,,,0,59,59,46,1,0.517129855,1,,,,,,,,,,,,,,,,,,,,,,,,,,,,,,,,,,,,,,,,,,,,,,,,,,,,,,,,,,,,,,,,,,,,,,,,,,,,,,,,
,,5f3c2648a9ef86a4c10de377,2022-09-08_14h10.39.221,CGTgamblingSpanTasks,2022.2.1,Win32,59.70505702,,,,,,,,3.2673,,,,,,,,,,,,,,1,v,0.7327,0,1,4.2673,1,,,,,,23.4214135,0,2.485985001,,,,,,,,,,,,,0,60,60,81,1,0.482105905,1,,,,,,,,,,,,,,,,,,,,,,,,,,,,,,,,,,,,,,,,,,,,,,,,,,,,,,,,,,,,,,,,,,,,,,,,,,,,,,,,
,,5f3c2648a9ef86a4c10de377,2022-09-08_14h10.39.221,CGTgamblingSpanTasks,2022.2.1,Win32,59.70505702,,,,,,,,3.0454,,,,,,,,,,,,,,2,n,0.9546,27.60724521,1,4.5454,1.5,,,,,,27.60724521,0,0.088432325,,,,,,,,,,,,,0,61,61,17,1,0.904684186,0,,,,,,,,,,,,,,,,,,,,,,,,,,,,,,,,,,,,,,,,,,,,,,,,,,,,,,,,,,,,,,,,,,,,,,,,,,,,,,,,
,,5f3c2648a9ef86a4c10de377,2022-09-08_14h10.39.221,CGTgamblingSpanTasks,2022.2.1,Win32,59.70505702,,,,,,,,3.3791,,,,,,,,,,,,,,1,v,0.6209,29.76099779,1,4.8791,1.5,,,,,,29.76099779,0,0.095763086,,,,,,,,,,,,,0,62,62,35,1,0.904537896,0,,,,,,,,,,,,,,,,,,,,,,,,,,,,,,,,,,,,,,,,,,,,,,,,,,,,,,,,,,,,,,,,,,,,,,,,,,,,,,,,
,,5f3c2648a9ef86a4c10de377,2022-09-08_14h10.39.221,CGTgamblingSpanTasks,2022.2.1,Win32,59.70505702,,,,,,,,3.0611,,,,,,,,,,,,,,2,v,0.9389,5.526483034,0,4.0611,1,,,,,,9.725876653,0,5.526483034,,,,,,,,,,,,,0,63,63,44,1,0.082550696,0,,,,,,,,,,,,,,,,,,,,,,,,,,,,,,,,,,,,,,,,,,,,,,,,,,,,,,,,,,,,,,,,,,,,,,,,,,,,,,,,
,,5f3c2648a9ef86a4c10de377,2022-09-08_14h10.39.221,CGTgamblingSpanTasks,2022.2.1,Win32,59.70505702,,,,,,,,2.9117,,,,,,,,,,,,,,1,v,1.0883,19.3050342,1,4.4117,1.5,,,,,,19.3050342,0,2.030232342,,,,,,,,,,,,,0,64,64,73,1,0.484573227,1,,,,,,,,,,,,,,,,,,,,,,,,,,,,,,,,,,,,,,,,,,,,,,,,,,,,,,,,,,,,,,,,,,,,,,,,,,,,,,,,
,,5f3c2648a9ef86a4c10de377,2022-09-08_14h10.39.221,CGTgamblingSpanTasks,2022.2.1,Win32,59.70505702,,,,,,,,3.0546,,,,,,,,,,,,,,1,v,0.9454,0,1,4.0546,1,,,,,,27.77179191,0,0.074524436,,,,,,,,,,,,,0,65,65,99,1,0.910114387,0,,,,,,,,,,,,,,,,,,,,,,,,,,,,,,,,,,,,,,,,,,,,,,,,,,,,,,,,,,,,,,,,,,,,,,,,,,,,,,,,
,,5f3c2648a9ef86a4c10de377,2022-09-08_14h10.39.221,CGTgamblingSpanTasks,2022.2.1,Win32,59.70505702,,,,,,,,3.2438,,,,,,,,,,,,,,2,n,0.7562,0,1,4.2438,1,,,,,,15.43649625,0,1.65459324,,,,,,,,,,,,,0,66,66,33,1,0.479480163,1,,,,,,,,,,,,,,,,,,,,,,,,,,,,,,,,,,,,,,,,,,,,,,,,,,,,,,,,,,,,,,,,,,,,,,,,,,,,,,,,
,,5f3c2648a9ef86a4c10de377,2022-09-08_14h10.39.221,CGTgamblingSpanTasks,2022.2.1,Win32,59.70505702,,,,,,,,3.2509,,,,,,,,,,,,,,1,v,0.7491,0,1,4.2509,1,,,,,,17.4320197,0,1.448620949,,,,,,,,,,,,,0,67,67,30,1,0.545178213,1,,,,,,,,,,,,,,,,,,,,,,,,,,,,,,,,,,,,,,,,,,,,,,,,,,,,,,,,,,,,,,,,,,,,,,,,,,,,,,,,
,,5f3c2648a9ef86a4c10de377,2022-09-08_14h10.39.221,CGTgamblingSpanTasks,2022.2.1,Win32,59.70505702,,,,,,,,3.2662,,,,,,,,,,,,,,2,n,0.7338,19.36415485,1,4.2662,1,,,,,,19.36415485,0,1.966229494,,,,,,,,,,,,,0,68,68,96,1,0.493893111,1,,,,,,,,,,,,,,,,,,,,,,,,,,,,,,,,,,,,,,,,,,,,,,,,,,,,,,,,,,,,,,,,,,,,,,,,,,,,,,,,
,,5f3c2648a9ef86a4c10de377,2022-09-08_14h10.39.221,CGTgamblingSpanTasks,2022.2.1,Win32,59.70505702,,,,,,,,3.3328,,,,,,,,,,,,,,2,n,0.6672,25.0707644,1,4.8328,1.5,,,,,,25.0707644,0,0.067651625,,,,,,,,,,,,,0,69,69,70,1,0.909952349,0,,,,,,,,,,,,,,,,,,,,,,,,,,,,,,,,,,,,,,,,,,,,,,,,,,,,,,,,,,,,,,,,,,,,,,,,,,,,,,,,
,,5f3c2648a9ef86a4c10de377,2022-09-08_14h10.39.221,CGTgamblingSpanTasks,2022.2.1,Win32,59.70505702,,,,,,,,3.1322,,,,,,,,,,,,,,1,v,0.8678,20.97851654,1,4.1322,1,,,,,,20.97851654,0,11.39288827,,,,,,,,,,,,,0,70,70,2,1,0.088791079,0,,,,,,,,,,,,,,,,,,,,,,,,,,,,,,,,,,,,,,,,,,,,,,,,,,,,,,,,,,,,,,,,,,,,,,,,,,,,,,,,
,,5f3c2648a9ef86a4c10de377,2022-09-08_14h10.39.221,CGTgamblingSpanTasks,2022.2.1,Win32,59.70505702,,,,,,,,3.3978,,,,,,,,,,,,,,1,v,0.6022,28.9323758,1,4.3978,1,,,,,,28.9323758,0,2.893007023,,,,,,,,,,,,,0,71,71,11,1,0.497943321,1,,,,,,,,,,,,,,,,,,,,,,,,,,,,,,,,,,,,,,,,,,,,,,,,,,,,,,,,,,,,,,,,,,,,,,,,,,,,,,,,
,,5f3c2648a9ef86a4c10de377,2022-09-08_14h10.39.221,CGTgamblingSpanTasks,2022.2.1,Win32,59.70505702,,,,,,,,3.216,,,,,,,,,,,,,,2,n,0.784,0,1,4.716,1.5,,,,,,28.68598705,0,0.050674956,,,,,,,,,,,,,0,72,72,62,1,0.920905497,0,,,,,,,,,,,,,,,,,,,,,,,,,,,,,,,,,,,,,,,,,,,,,,,,,,,,,,,,,,,,,,,,,,,,,,,,,,,,,,,,
,,5f3c2648a9ef86a4c10de377,2022-09-08_14h10.39.221,CGTgamblingSpanTasks,2022.2.1,Win32,59.70505702,,,,,,,,3.1986,,,,,,,,,,,,,,2,n,0.8014,18.16238569,1,4.6986,1.5,,,,,,18.16238569,0,1.540604093,,,,,,,,,,,,,0,73,73,34,1,0.540092491,1,,,,,,,,,,,,,,,,,,,,,,,,,,,,,,,,,,,,,,,,,,,,,,,,,,,,,,,,,,,,,,,,,,,,,,,,,,,,,,,,
,,5f3c2648a9ef86a4c10de377,2022-09-08_14h10.39.221,CGTgamblingSpanTasks,2022.2.1,Win32,59.70505702,,,,,,,,3.4154,,,,,,,,,,,,,,2,n,0.5846,27.2532142,1,4.4154,1,,,,,,27.2532142,0,0.08089327,,,,,,,,,,,,,0,74,74,119,1,0.907091845,0,,,,,,,,,,,,,,,,,,,,,,,,,,,,,,,,,,,,,,,,,,,,,,,,,,,,,,,,,,,,,,,,,,,,,,,,,,,,,,,,
,,5f3c2648a9ef86a4c10de377,2022-09-08_14h10.39.221,CGTgamblingSpanTasks,2022.2.1,Win32,59.70505702,,,,,,,,3.4339,,,,,,,,,,,,,,1,v,0.5661,26.16821818,1,4.9339,1.5,,,,,,26.16821818,0,0.093528069,,,,,,,,,,,,,0,75,75,42,1,0.901022427,0,,,,,,,,,,,,,,,,,,,,,,,,,,,,,,,,,,,,,,,,,,,,,,,,,,,,,,,,,,,,,,,,,,,,,,,,,,,,,,,,
,,5f3c2648a9ef86a4c10de377,2022-09-08_14h10.39.221,CGTgamblingSpanTasks,2022.2.1,Win32,59.70505702,,,,,,,,3.3654,,,,,,,,,,,,,,1,v,0.6346,0,1,4.3654,1,,,,,,25.26994993,0,2.78925142,,,,,,,,,,,,,0,76,76,108,1,0.471582922,1,,,,,,,,,,,,,,,,,,,,,,,,,,,,,,,,,,,,,,,,,,,,,,,,,,,,,,,,,,,,,,,,,,,,,,,,,,,,,,,,
,,5f3c2648a9ef86a4c10de377,2022-09-08_14h10.39.221,CGTgamblingSpanTasks,2022.2.1,Win32,59.70505702,,,,,,,,3.0664,,,,,,,,,,,,,,2,v,0.9336,5.683635938,0,4.0664,1,,,,,,4.941039335,0,5.683635938,,,,,,,,,,,,,0,77,77,9,1,0.025481984,0,,,,,,,,,,,,,,,,,,,,,,,,,,,,,,,,,,,,,,,,,,,,,,,,,,,,,,,,,,,,,,,,,,,,,,,,,,,,,,,,
,,5f3c2648a9ef86a4c10de377,2022-09-08_14h10.39.221,CGTgamblingSpanTasks,2022.2.1,Win32,59.70505702,,,,,,,,3.3272,,,,,,,,,,,,,,1,v,0.6728,27.93093084,1,4.3272,1,,,,,,27.93093084,0,0.050207531,,,,,,,,,,,,,0,78,78,83,1,0.920505936,0,,,,,,,,,,,,,,,,,,,,,,,,,,,,,,,,,,,,,,,,,,,,,,,,,,,,,,,,,,,,,,,,,,,,,,,,,,,,,,,,
,,5f3c2648a9ef86a4c10de377,2022-09-08_14h10.39.221,CGTgamblingSpanTasks,2022.2.1,Win32,59.70505702,,,,,,,,3.3524,,,,,,,,,,,,,,1,v,0.6476,21.16780451,1,4.8524,1.5,,,,,,21.16780451,0,2.469465385,,,,,,,,,,,,,0,79,79,32,1,0.456531699,1,,,,,,,,,,,,,,,,,,,,,,,,,,,,,,,,,,,,,,,,,,,,,,,,,,,,,,,,,,,,,,,,,,,,,,,,,,,,,,,,
,,5f3c2648a9ef86a4c10de377,2022-09-08_14h10.39.221,CGTgamblingSpanTasks,2022.2.1,Win32,59.70505702,,,,,,,,3.3337,,,,,,,,,,,,,,1,v,0.6663,29.30724159,1,4.3337,1,,,,,,29.30724159,0,3.247012935,,,,,,,,,,,,,0,80,80,71,1,0.470571125,1,,,,,,,,,,,,,,,,,,,,,,,,,,,,,,,,,,,,,,,,,,,,,,,,,,,,,,,,,,,,,,,,,,,,,,,,,,,,,,,,
,,5f3c2648a9ef86a4c10de377,2022-09-08_14h10.39.221,CGTgamblingSpanTasks,2022.2.1,Win32,59.70505702,,,,,,,,3.1556,,,,,,,,,,,,,,1,n,0.8444,6.833409611,0,4.1556,1,,,,,,6.325091157,0,6.833409611,,,,,,,,,,,,,0,81,81,58,1,0.027113638,0,,,,,,,,,,,,,,,,,,,,,,,,,,,,,,,,,,,,,,,,,,,,,,,,,,,,,,,,,,,,,,,,,,,,,,,,,,,,,,,,
,,5f3c2648a9ef86a4c10de377,2022-09-08_14h10.39.221,CGTgamblingSpanTasks,2022.2.1,Win32,59.70505702,,,,,,,,3.0996,,,,,,,,,,,,,,2,n,0.9004,17.64114152,1,4.5996,1.5,,,,,,17.64114152,0,10.68505773,,,,,,,,,,,,,0,82,82,98,1,0.074299362,0,,,,,,,,,,,,,,,,,,,,,,,,,,,,,,,,,,,,,,,,,,,,,,,,,,,,,,,,,,,,,,,,,,,,,,,,,,,,,,,,
,,5f3c2648a9ef86a4c10de377,2022-09-08_14h10.39.221,CGTgamblingSpanTasks,2022.2.1,Win32,59.70505702,,,,,,,,3.2772,,,,,,,,,,,,,,2,v,0.7228,11.6744431,0,4.2772,1,,,,,,10.43004651,0,11.6744431,,,,,,,,,,,,,0,83,83,15,1,0.026176489,0,,,,,,,,,,,,,,,,,,,,,,,,,,,,,,,,,,,,,,,,,,,,,,,,,,,,,,,,,,,,,,,,,,,,,,,,,,,,,,,,
,,5f3c2648a9ef86a4c10de377,2022-09-08_14h10.39.221,CGTgamblingSpanTasks,2022.2.1,Win32,59.70505702,,,,,,,,3.3394,,,,,,,,,,,,,,2,v,0.6606,8.653432553,0,4.8394,1.5,,,,,,15.13999312,0,8.653432553,,,,,,,,,,,,,0,84,84,54,1,0.081767484,0,,,,,,,,,,,,,,,,,,,,,,,,,,,,,,,,,,,,,,,,,,,,,,,,,,,,,,,,,,,,,,,,,,,,,,,,,,,,,,,,
,,5f3c2648a9ef86a4c10de377,2022-09-08_14h10.39.221,CGTgamblingSpanTasks,2022.2.1,Win32,59.70505702,,,,,,,,3.3159,,,,,,,,,,,,,,2,n,0.6841,0,1,4.8159,1.5,,,,,,24.66627941,0,2.765426402,,,,,,,,,,,,,0,85,85,24,1,0.467360588,1,,,,,,,,,,,,,,,,,,,,,,,,,,,,,,,,,,,,,,,,,,,,,,,,,,,,,,,,,,,,,,,,,,,,,,,,,,,,,,,,
,,5f3c2648a9ef86a4c10de377,2022-09-08_14h10.39.221,CGTgamblingSpanTasks,2022.2.1,Win32,59.70505702,,,,,,,,3.1617,,,,,,,,,,,,,,2,n,0.8383,19.5450126,1,4.1617,1,,,,,,19.5450126,0,2.123581464,,,,,,,,,,,,,0,86,86,65,1,0.475836144,1,,,,,,,,,,,,,,,,,,,,,,,,,,,,,,,,,,,,,,,,,,,,,,,,,,,,,,,,,,,,,,,,,,,,,,,,,,,,,,,,
,,5f3c2648a9ef86a4c10de377,2022-09-08_14h10.39.221,CGTgamblingSpanTasks,2022.2.1,Win32,59.70505702,,,,,,,,3.093,,,,,,,,,,,,,,1,n,0.907,10.31611309,0,4.593,1.5,,,,,,19.30622782,0,10.31611309,,,,,,,,,,,,,0,87,87,1,1,0.091105656,0,,,,,,,,,,,,,,,,,,,,,,,,,,,,,,,,,,,,,,,,,,,,,,,,,,,,,,,,,,,,,,,,,,,,,,,,,,,,,,,,
,,5f3c2648a9ef86a4c10de377,2022-09-08_14h10.39.221,CGTgamblingSpanTasks,2022.2.1,Win32,59.70505702,,,,,,,,2.9776,,,,,,,,,,,,,,2,n,1.0224,19.58698544,1,3.9776,1,,,,,,19.58698544,0,9.936178001,,,,,,,,,,,,,0,88,88,77,1,0.098812204,0,,,,,,,,,,,,,,,,,,,,,,,,,,,,,,,,,,,,,,,,,,,,,,,,,,,,,,,,,,,,,,,,,,,,,,,,,,,,,,,,
,,5f3c2648a9ef86a4c10de377,2022-09-08_14h10.39.221,CGTgamblingSpanTasks,2022.2.1,Win32,59.70505702,,,,,,,,3.0569,,,,,,,,,,,,,,2,v,0.9431,6.091504705,0,4.0569,1,,,,,,6.662965216,0,6.091504705,,,,,,,,,,,,,0,89,89,102,1,0.035087099,0,,,,,,,,,,,,,,,,,,,,,,,,,,,,,,,,,,,,,,,,,,,,,,,,,,,,,,,,,,,,,,,,,,,,,,,,,,,,,,,,
,,5f3c2648a9ef86a4c10de377,2022-09-08_14h10.39.221,CGTgamblingSpanTasks,2022.2.1,Win32,59.70505702,,,,,,,,3.2152,,,,,,,,,,,,,,2,n,0.7848,27.7711693,1,4.2152,1,,,,,,27.7711693,0,2.320849632,,,,,,,,,,,,,0,90,90,94,1,0.543786368,1,,,,,,,,,,,,,,,,,,,,,,,,,,,,,,,,,,,,,,,,,,,,,,,,,,,,,,,,,,,,,,,,,,,,,,,,,,,,,,,,
,,5f3c2648a9ef86a4c10de377,2022-09-08_14h10.39.221,CGTgamblingSpanTasks,2022.2.1,Win32,59.70505702,,,,,,,,3.0776,,,,,,,,,,,,,,1,v,0.9224,26.4985979,1,4.0776,1,,,,,,26.4985979,0,0.051324376,,,,,,,,,,,,,0,91,91,106,1,0.918747215,0,,,,,,,,,,,,,,,,,,,,,,,,,,,,,,,,,,,,,,,,,,,,,,,,,,,,,,,,,,,,,,,,,,,,,,,,,,,,,,,,
,,5f3c2648a9ef86a4c10de377,2022-09-08_14h10.39.221,CGTgamblingSpanTasks,2022.2.1,Win32,59.70505702,,,,,,,,2.8476,,,,,,,,,,,,,,1,v,1.1524,0,1,4.3476,1.5,,,,,,21.03408097,0,2.208275162,,,,,,,,,,,,,0,92,92,0,1,0.485031246,1,,,,,,,,,,,,,,,,,,,,,,,,,,,,,,,,,,,,,,,,,,,,,,,,,,,,,,,,,,,,,,,,,,,,,,,,,,,,,,,,
,,5f3c2648a9ef86a4c10de377,2022-09-08_14h10.39.221,CGTgamblingSpanTasks,2022.2.1,Win32,59.70505702,,,,,,,,3.1324,,,,,,,,,,,,,,1,v,0.8676,27.53810185,1,4.6324,1.5,,,,,,27.53810185,0,0.097022401,,,,,,,,,,,,,0,93,93,50,1,0.901515865,0,,,,,,,,,,,,,,,,,,,,,,,,,,,,,,,,,,,,,,,,,,,,,,,,,,,,,,,,,,,,,,,,,,,,,,,,,,,,,,,,
,,5f3c2648a9ef86a4c10de377,2022-09-08_14h10.39.221,CGTgamblingSpanTasks,2022.2.1,Win32,59.70505702,,,,,,,,3.066,,,,,,,,,,,,,,1,v,0.934,0,1,4.566,1.5,,,,,,2.231316635,0,7.50753835,,,,,,,,,,,,,0,94,94,29,1,0.010273427,0,,,,,,,,,,,,,,,,,,,,,,,,,,,,,,,,,,,,,,,,,,,,,,,,,,,,,,,,,,,,,,,,,,,,,,,,,,,,,,,,
,,5f3c2648a9ef86a4c10de377,2022-09-08_14h10.39.221,CGTgamblingSpanTasks,2022.2.1,Win32,59.70505702,,,,,,,,3.1821,,,,,,,,,,,,,,2,v,0.8179,1.002188111,0,4.1821,1,,,,,,9.012590634,0,1.002188111,,,,,,,,,,,,,0,95,95,12,1,0.46958041,1,,,,,,,,,,,,,,,,,,,,,,,,,,,,,,,,,,,,,,,,,,,,,,,,,,,,,,,,,,,,,,,,,,,,,,,,,,,,,,,,
,,5f3c2648a9ef86a4c10de377,2022-09-08_14h10.39.221,CGTgamblingSpanTasks,2022.2.1,Win32,59.70505702,,,,,,,,3.2883,,,,,,,,,,,,,,2,n,0.7117,23.0613391,1,4.2883,1,,,,,,23.0613391,0,2.387726776,,,,,,,,,,,,,0,96,96,69,1,0.488727763,1,,,,,,,,,,,,,,,,,,,,,,,,,,,,,,,,,,,,,,,,,,,,,,,,,,,,,,,,,,,,,,,,,,,,,,,,,,,,,,,,
,,5f3c2648a9ef86a4c10de377,2022-09-08_14h10.39.221,CGTgamblingSpanTasks,2022.2.1,Win32,59.70505702,,,,,,,,3.2488,,,,,,,,,,,,,,2,n,0.7512,22.0050376,1,4.7488,1.5,,,,,,22.0050376,0,2.257683666,,,,,,,,,,,,,0,97,97,4,1,0.491147312,1,,,,,,,,,,,,,,,,,,,,,,,,,,,,,,,,,,,,,,,,,,,,,,,,,,,,,,,,,,,,,,,,,,,,,,,,,,,,,,,,
,,5f3c2648a9ef86a4c10de377,2022-09-08_14h10.39.221,CGTgamblingSpanTasks,2022.2.1,Win32,59.70505702,,,,,,,,2.6445,,,,,,,,,,,,,,2,n,1.3555,0,1,4.1445,1.5,,,,,,17.67865084,0,11.35147481,,,,,,,,,,,,,0,98,98,91,1,0.067304606,0,,,,,,,,,,,,,,,,,,,,,,,,,,,,,,,,,,,,,,,,,,,,,,,,,,,,,,,,,,,,,,,,,,,,,,,,,,,,,,,,
,,5f3c2648a9ef86a4c10de377,2022-09-08_14h10.39.221,CGTgamblingSpanTasks,2022.2.1,Win32,59.70505702,,,,,,,,3.1325,,,,,,,,,,,,,,1,n,0.8675,10.41201161,0,4.6325,1.5,,,,,,6.307062696,0,10.41201161,,,,,,,,,,,,,0,99,99,23,1,0.018187109,0,,,,,,,,,,,,,,,,,,,,,,,,,,,,,,,,,,,,,,,,,,,,,,,,,,,,,,,,,,,,,,,,,,,,,,,,,,,,,,,,
,,5f3c2648a9ef86a4c10de377,2022-09-08_14h10.39.221,CGTgamblingSpanTasks,2022.2.1,Win32,59.70505702,,,,,,,,3.1064,,,,,,,,,,,,,,2,n,0.8936,0,1,4.6064,1.5,,,,,,15.73000491,0,8.830252162,,,,,,,,,,,,,0,100,100,95,1,0.084193143,0,,,,,,,,,,,,,,,,,,,,,,,,,,,,,,,,,,,,,,,,,,,,,,,,,,,,,,,,,,,,,,,,,,,,,,,,,,,,,,,,
,,5f3c2648a9ef86a4c10de377,2022-09-08_14h10.39.221,CGTgamblingSpanTasks,2022.2.1,Win32,59.70505702,,,,,,,,3.1491,,,,,,,,,,,,,,2,n,0.8509,0,1,4.6491,1.5,,,,,,22.72923833,0,0.067170781,,,,,,,,,,,,,0,101,101,86,1,0.907226703,0,,,,,,,,,,,,,,,,,,,,,,,,,,,,,,,,,,,,,,,,,,,,,,,,,,,,,,,,,,,,,,,,,,,,,,,,,,,,,,,,
,,5f3c2648a9ef86a4c10de377,2022-09-08_14h10.39.221,CGTgamblingSpanTasks,2022.2.1,Win32,59.70505702,,,,,,,,3.2652,,,,,,,,,,,,,,1,v,0.7348,0,1,4.2652,1,,,,,,21.7711579,0,2.502728921,,,,,,,,,,,,,0,102,102,101,1,0.460552621,1,,,,,,,,,,,,,,,,,,,,,,,,,,,,,,,,,,,,,,,,,,,,,,,,,,,,,,,,,,,,,,,,,,,,,,,,,,,,,,,,
,,5f3c2648a9ef86a4c10de377,2022-09-08_14h10.39.221,CGTgamblingSpanTasks,2022.2.1,Win32,59.70505702,,,,,,,,2.8753,,,,,,,,,,,,,,1,v,1.1247,0,1,4.3753,1.5,,,,,,24.35708027,0,2.738695417,,,,,,,,,,,,,0,103,103,114,1,0.466573634,1,,,,,,,,,,,,,,,,,,,,,,,,,,,,,,,,,,,,,,,,,,,,,,,,,,,,,,,,,,,,,,,,,,,,,,,,,,,,,,,,
,,5f3c2648a9ef86a4c10de377,2022-09-08_14h10.39.221,CGTgamblingSpanTasks,2022.2.1,Win32,59.70505702,,,,,,,,3.2438,,,,,,,,,,,,,,1,n,0.7562,7.850775577,0,4.7438,1.5,,,,,,4.622707531,0,7.850775577,,,,,,,,,,,,,0,104,104,6,1,0.017737407,0,,,,,,,,,,,,,,,,,,,,,,,,,,,,,,,,,,,,,,,,,,,,,,,,,,,,,,,,,,,,,,,,,,,,,,,,,,,,,,,,
,,5f3c2648a9ef86a4c10de377,2022-09-08_14h10.39.221,CGTgamblingSpanTasks,2022.2.1,Win32,59.70505702,,,,,,,,3.3225,,,,,,,,,,,,,,1,v,0.6775,0,1,4.8225,1.5,,,,,,27.39221343,0,2.743407746,,,,,,,,,,,,,0,105,105,47,1,0.49752044,1,,,,,,,,,,,,,,,,,,,,,,,,,,,,,,,,,,,,,,,,,,,,,,,,,,,,,,,,,,,,,,,,,,,,,,,,,,,,,,,,
,,5f3c2648a9ef86a4c10de377,2022-09-08_14h10.39.221,CGTgamblingSpanTasks,2022.2.1,Win32,59.70505702,,,,,,,,3.3741,,,,,,,,,,,,,,1,v,0.6259,18.20422443,1,4.8741,1.5,,,,,,18.20422443,0,1.635040165,,,,,,,,,,,,,0,106,106,82,1,0.525708991,1,,,,,,,,,,,,,,,,,,,,,,,,,,,,,,,,,,,,,,,,,,,,,,,,,,,,,,,,,,,,,,,,,,,,,,,,,,,,,,,,
,,5f3c2648a9ef86a4c10de377,2022-09-08_14h10.39.221,CGTgamblingSpanTasks,2022.2.1,Win32,59.70505702,,,,,,,,3.1847,,,,,,,,,,,,,,2,n,0.8153,26.11188619,1,4.6847,1.5,,,,,,26.11188619,0,0.081942421,,,,,,,,,,,,,0,107,107,105,1,0.905343856,0,,,,,,,,,,,,,,,,,,,,,,,,,,,,,,,,,,,,,,,,,,,,,,,,,,,,,,,,,,,,,,,,,,,,,,,,,,,,,,,,
,,5f3c2648a9ef86a4c10de377,2022-09-08_14h10.39.221,CGTgamblingSpanTasks,2022.2.1,Win32,59.70505702,,,,,,,,3.1212,,,,,,,,,,,,,,1,v,0.8788,8.363821911,1,4.1212,1,,,,,,8.363821911,0,6.781500919,,,,,,,,,,,,,0,108,108,61,1,0.044227959,0,,,,,,,,,,,,,,,,,,,,,,,,,,,,,,,,,,,,,,,,,,,,,,,,,,,,,,,,,,,,,,,,,,,,,,,,,,,,,,,,
,,5f3c2648a9ef86a4c10de377,2022-09-08_14h10.39.221,CGTgamblingSpanTasks,2022.2.1,Win32,59.70505702,,,,,,,,3.1655,,,,,,,,,,,,,,2,n,0.8345,0,1,4.1655,1,,,,,,24.57684014,0,0.061756244,,,,,,,,,,,,,0,109,109,68,1,0.911988903,0,,,,,,,,,,,,,,,,,,,,,,,,,,,,,,,,,,,,,,,,,,,,,,,,,,,,,,,,,,,,,,,,,,,,,,,,,,,,,,,,
,,5f3c2648a9ef86a4c10de377,2022-09-08_14h10.39.221,CGTgamblingSpanTasks,2022.2.1,Win32,59.70505702,,,,,,,,3.12,,,,,,,,,,,,,,1,v,0.88,0,1,4.12,1,,,,,,17.85020524,0,2.058701084,,,,,,,,,,,,,0,110,110,25,1,0.459662216,1,,,,,,,,,,,,,,,,,,,,,,,,,,,,,,,,,,,,,,,,,,,,,,,,,,,,,,,,,,,,,,,,,,,,,,,,,,,,,,,,
,,5f3c2648a9ef86a4c10de377,2022-09-08_14h10.39.221,CGTgamblingSpanTasks,2022.2.1,Win32,59.70505702,,,,,,,,3.2987,,,,,,,,,,,,,,1,v,0.7013,0,1,4.2987,1,,,,,,29.75778644,0,2.810531415,,,,,,,,,,,,,0,111,111,113,1,0.512824233,1,,,,,,,,,,,,,,,,,,,,,,,,,,,,,,,,,,,,,,,,,,,,,,,,,,,,,,,,,,,,,,,,,,,,,,,,,,,,,,,,
,,5f3c2648a9ef86a4c10de377,2022-09-08_14h10.39.221,CGTgamblingSpanTasks,2022.2.1,Win32,59.70505702,,,,,,,,3.2214,,,,,,,,,,,,,,2,n,0.7786,0,1,4.2214,1,,,,,,21.2188881,0,2.067660742,,,,,,,,,,,,,0,112,112,107,1,0.50470775,1,,,,,,,,,,,,,,,,,,,,,,,,,,,,,,,,,,,,,,,,,,,,,,,,,,,,,,,,,,,,,,,,,,,,,,,,,,,,,,,,
,,5f3c2648a9ef86a4c10de377,2022-09-08_14h10.39.221,CGTgamblingSpanTasks,2022.2.1,Win32,59.70505702,,,,,,,,2.9276,,,,,,,,,,,,,,2,n,1.0724,27.94544945,1,3.9276,1,,,,,,27.94544945,0,2.32030209,,,,,,,,,,,,,0,113,113,115,1,0.545390564,1,,,,,,,,,,,,,,,,,,,,,,,,,,,,,,,,,,,,,,,,,,,,,,,,,,,,,,,,,,,,,,,,,,,,,,,,,,,,,,,,
,,5f3c2648a9ef86a4c10de377,2022-09-08_14h10.39.221,CGTgamblingSpanTasks,2022.2.1,Win32,59.70505702,,,,,,,,3.1119,,,,,,,,,,,,,,2,v,0.8881,4.904872644,0,4.1119,1,,,,,,4.698775357,0,4.904872644,,,,,,,,,,,,,0,114,114,75,1,0.028064484,0,,,,,,,,,,,,,,,,,,,,,,,,,,,,,,,,,,,,,,,,,,,,,,,,,,,,,,,,,,,,,,,,,,,,,,,,,,,,,,,,
,,5f3c2648a9ef86a4c10de377,2022-09-08_14h10.39.221,CGTgamblingSpanTasks,2022.2.1,Win32,59.70505702,,,,,,,,2.8711,,,,,,,,,,,,,,1,v,1.1289,8.670591867,1,4.3711,1.5,,,,,,8.670591867,0,1.025847652,,,,,,,,,,,,,0,115,115,18,1,0.452680459,1,,,,,,,,,,,,,,,,,,,,,,,,,,,,,,,,,,,,,,,,,,,,,,,,,,,,,,,,,,,,,,,,,,,,,,,,,,,,,,,,
,,5f3c2648a9ef86a4c10de377,2022-09-08_14h10.39.221,CGTgamblingSpanTasks,2022.2.1,Win32,59.70505702,,,,,,,,3.2068,,,,,,,,,,,,,,1,v,0.7932,17.30137174,1,4.7068,1.5,,,,,,17.30137174,0,1.716380842,,,,,,,,,,,,,0,116,116,20,1,0.500020285,1,,,,,,,,,,,,,,,,,,,,,,,,,,,,,,,,,,,,,,,,,,,,,,,,,,,,,,,,,,,,,,,,,,,,,,,,,,,,,,,,
,,5f3c2648a9ef86a4c10de377,2022-09-08_14h10.39.221,CGTgamblingSpanTasks,2022.2.1,Win32,59.70505702,,,,,,,,3.1985,,,,,,,,,,,,,,1,v,0.8015,0,1,4.6985,1.5,,,,,,21.39646914,0,0.072474078,,,,,,,,,,,,,0,117,117,3,1,0.902848133,0,,,,,,,,,,,,,,,,,,,,,,,,,,,,,,,,,,,,,,,,,,,,,,,,,,,,,,,,,,,,,,,,,,,,,,,,,,,,,,,,
,,5f3c2648a9ef86a4c10de377,2022-09-08_14h10.39.221,CGTgamblingSpanTasks,2022.2.1,Win32,59.70505702,,,,,,,,3.0064,,,,,,,,,,,,,,1,n,0.9936,11.19311486,0,4.5064,1.5,,,,,,8.17598802,0,11.19311486,,,,,,,,,,,,,0,118,118,110,1,0.021568003,0,,,,,,,,,,,,,,,,,,,,,,,,,,,,,,,,,,,,,,,,,,,,,,,,,,,,,,,,,,,,,,,,,,,,,,,,,,,,,,,,
,,5f3c2648a9ef86a4c10de377,2022-09-08_14h10.39.221,CGTgamblingSpanTasks,2022.2.1,Win32,59.70505702,,,,,,,,3.226,,,,,,,,,,,,,,1,v,0.774,27.57491653,1,4.226,1,,,,,,27.57491653,0,2.99133314,,,,,,,,,,,,,0,119,119,10,1,0.47625893,1,,,,,,,,,,,,,,,,,,,,,,,,,,,,,,,,,,,,,,,,,,,,,,,,,,,,,,,,,,,,,,,,,,,,,,,,,,,,,,,,
,,5f3c2648a9ef86a4c10de377,2022-09-08_14h10.39.221,CGTgamblingSpanTasks,2022.2.1,Win32,59.70505702,,,,,,,,,,,,,,,,,,,,,,,,,,,,,,,,,,,,,,,,,,,,,,,,,,,,,,,,return,82.9073,,,,,,,,,,,,,,,,,,,,,,,,,,,,,,,,,,,,,,,,,,,,,,,,,,,,,,,,,,,,,,,,,,,,,,,,,,,,,,
,,5f3c2648a9ef86a4c10de377,2022-09-08_14h10.39.221,CGTgamblingSpanTasks,2022.2.1,Win32,59.70505702,,,,,,,,,,,,,,,,,,,,,,,,,,,,,,,,,,,,,,,,,,,,,,,,,,,,,,,,,,return,98.7733,,,,,,,,,,,,,,,,,,,,,,,,,,,,,,,,,,,,,,,,,,,,,,,,,,,,,,,,,,,,,,,,,,,,,,,,,,,,
,,5f3c2648a9ef86a4c10de377,2022-09-08_14h10.39.221,CGTgamblingSpanTasks,2022.2.1,Win32,59.70505702,,,,,,,,,,,,,,,,,,,,,,,,,,,,,,,,,,,,,,,,,,,,,,,,,,,,,,,,,,,,return,18.8041,,,,,,,,,,,,,,,,,,,,,,,,,,,,,,,,,,,,,,,,,,,,,,,,,,,,,,,,,,,,,,,,,,,,,,,,,,
,,5f3c2648a9ef86a4c10de377,2022-09-08_14h10.39.221,CGTgamblingSpanTasks,2022.2.1,Win32,59.70505702,,,,,,,,,,,,,,,,,,,,,,,,,,,,,,,,,,,,,,,,,,,,,,,,,,,,,,,,,,,,,,342,1,-0.026851852,-0.375925926,1,0,0,cont_buttonPractice,0,0,0,0,1,3,342,24,2,42,,,,,,,,,,,,,,,,,,,,,,,,,,,,,,,,,,,,,,,,,,,,,,,,,,,,,,,,
,,5f3c2648a9ef86a4c10de377,2022-09-08_14h10.39.221,CGTgamblingSpanTasks,2022.2.1,Win32,59.70505702,,,,,,,,,,,,,,,,,,,,,,,,,,,,,,,,,,,,,,,,,,,,,,,,,,,,,,,,,,,,,,937,1,-0.052777778,-0.389814815,1,0,0,cont_buttonPractice,0,1,1,1,1,3,937,73,2,37,,,,,,,,,,,,,,,,,,,,,,,,,,,,,,,,,,,,,,,,,,,,,,,,,,,,,,,,
,,5f3c2648a9ef86a4c10de377,2022-09-08_14h10.39.221,CGTgamblingSpanTasks,2022.2.1,Win32,59.70505702,,,,,,,,,,,,,,,,,,,,,,,,,,,,,,,,,,,,,,,,,,,,,,,,,,,,,,,,,,,,,,,,,,,,,,,,,,,,,,,,return,10.1628,,,,,,,,,,,,,,,,,,,,,,,,,,,,,,,,,,,,,,,,,,,,,,,,,,,,,,
,,5f3c2648a9ef86a4c10de377,2022-09-08_14h10.39.221,CGTgamblingSpanTasks,2022.2.1,Win32,59.70505702,,,,,,,,,,,,,,,,,,,,,,,,,,,,,,,,,,,,,,,,,,,,,,,,,,,,,,,,,,,,,,,,,,,,,,,,,,,,,,,,,,"[7,8,1]",0,0,0,0,1,,,,,,,,,,,,,,,,,,,,,,,,,,,,,,,,,,,,,,,,,,,,,,,,
,,5f3c2648a9ef86a4c10de377,2022-09-08_14h10.39.221,CGTgamblingSpanTasks,2022.2.1,Win32,59.70505702,,,,,,,,,,,,,,,,,,,,,,,,,,,,,,,,,,,,,,,,,,,,,,,,,,,,,,,,,,,,,,,,,,,,,,,,,,,,,,,,,,"[7,8,1]",1,0,1,0,1,,,,,,,,,,,,,,,,,,,,,,,,,,,,,,,,,,,,,,,,,,,,,,,,
,,5f3c2648a9ef86a4c10de377,2022-09-08_14h10.39.221,CGTgamblingSpanTasks,2022.2.1,Win32,59.70505702,,,,,,,,,,,,,,,,,,,,,,,,,,,,,,,,,,,,,,,,,,,,,,,,,,,,,,,,,,,,,,,,,,,,,,,,,,,,,,,,,,"[7,8,1]",2,0,2,0,1,,,,,,,,,,,,,,,,,,,,,,,,,,,,,,,,,,,,,,,,,,,,,,,,
,,5f3c2648a9ef86a4c10de377,2022-09-08_14h10.39.221,CGTgamblingSpanTasks,2022.2.1,Win32,59.70505702,,,,,,,,,,,,,,,,,,,,,,,,,,,,,,,,,,,,,,,,,,,,,,,,,,,,,,,,,,,,,,,1,,,,,,,,,,,,,,,,,,,,,,,,,781,-0.003703704,-0.394444444,1,0,0,cont_button,0,0,0,0,1,1,,,,,,,,,,,,,,,,,,,,,,,,,,,,,,,,,,,
,,5f3c2648a9ef86a4c10de377,2022-09-08_14h10.39.221,CGTgamblingSpanTasks,2022.2.1,Win32,59.70505702,,,,,,,,,,,,,,,,,,,,,,,,,,,,,,,,,,,,,,,,,,,,,,,,,,,,,,,,,,,,,,,,,,,,,,,,,,,,,,,,,,"[6,2,9,8]",0,0,0,0,1,,,,,,,,,,,,,,,,,,,,,,,,,,,,,,,,,,,,,,,,,,,,,,,,
,,5f3c2648a9ef86a4c10de377,2022-09-08_14h10.39.221,CGTgamblingSpanTasks,2022.2.1,Win32,59.70505702,,,,,,,,,,,,,,,,,,,,,,,,,,,,,,,,,,,,,,,,,,,,,,,,,,,,,,,,,,,,,,,,,,,,,,,,,,,,,,,,,,"[6,2,9,8]",1,0,1,0,1,,,,,,,,,,,,,,,,,,,,,,,,,,,,,,,,,,,,,,,,,,,,,,,,
,,5f3c2648a9ef86a4c10de377,2022-09-08_14h10.39.221,CGTgamblingSpanTasks,2022.2.1,Win32,59.70505702,,,,,,,,,,,,,,,,,,,,,,,,,,,,,,,,,,,,,,,,,,,,,,,,,,,,,,,,,,,,,,,,,,,,,,,,,,,,,,,,,,"[6,2,9,8]",2,0,2,0,1,,,,,,,,,,,,,,,,,,,,,,,,,,,,,,,,,,,,,,,,,,,,,,,,
,,5f3c2648a9ef86a4c10de377,2022-09-08_14h10.39.221,CGTgamblingSpanTasks,2022.2.1,Win32,59.70505702,,,,,,,,,,,,,,,,,,,,,,,,,,,,,,,,,,,,,,,,,,,,,,,,,,,,,,,,,,,,,,,,,,,,,,,,,,,,,,,,,,"[6,2,9,8]",3,0,3,0,1,,,,,,,,,,,,,,,,,,,,,,,,,,,,,,,,,,,,,,,,,,,,,,,,
,,5f3c2648a9ef86a4c10de377,2022-09-08_14h10.39.221,CGTgamblingSpanTasks,2022.2.1,Win32,59.70505702,,,,,,,,,,,,,,,,,,,,,,,,,,,,,,,,,,,,,,,,,,,,,,,,,,,,,,,,,,,,,,,1,,,,,,,,,,,,,,,,,,,,,,,,,6298,0.040740741,-0.428703704,1,0,0,cont_button,0,1,1,1,1,2,,,,,,,,,,,,,,,,,,,,,,,,,,,,,,,,,,,
,,5f3c2648a9ef86a4c10de377,2022-09-08_14h10.39.221,CGTgamblingSpanTasks,2022.2.1,Win32,59.70505702,,,,,,,,,,,,,,,,,,,,,,,,,,,,,,,,,,,,,,,,,,,,,,,,,,,,,,,,,,,,,,,,,,,,,,,,,,,,,,,,,,"[3,4,2,6,5]",0,0,0,0,1,,,,,,,,,,,,,,,,,,,,,,,,,,,,,,,,,,,,,,,,,,,,,,,,
,,5f3c2648a9ef86a4c10de377,2022-09-08_14h10.39.221,CGTgamblingSpanTasks,2022.2.1,Win32,59.70505702,,,,,,,,,,,,,,,,,,,,,,,,,,,,,,,,,,,,,,,,,,,,,,,,,,,,,,,,,,,,,,,,,,,,,,,,,,,,,,,,,,"[3,4,2,6,5]",1,0,1,0,1,,,,,,,,,,,,,,,,,,,,,,,,,,,,,,,,,,,,,,,,,,,,,,,,
,,5f3c2648a9ef86a4c10de377,2022-09-08_14h10.39.221,CGTgamblingSpanTasks,2022.2.1,Win32,59.70505702,,,,,,,,,,,,,,,,,,,,,,,,,,,,,,,,,,,,,,,,,,,,,,,,,,,,,,,,,,,,,,,,,,,,,,,,,,,,,,,,,,"[3,4,2,6,5]",2,0,2,0,1,,,,,,,,,,,,,,,,,,,,,,,,,,,,,,,,,,,,,,,,,,,,,,,,
,,5f3c2648a9ef86a4c10de377,2022-09-08_14h10.39.221,CGTgamblingSpanTasks,2022.2.1,Win32,59.70505702,,,,,,,,,,,,,,,,,,,,,,,,,,,,,,,,,,,,,,,,,,,,,,,,,,,,,,,,,,,,,,,,,,,,,,,,,,,,,,,,,,"[3,4,2,6,5]",3,0,3,0,1,,,,,,,,,,,,,,,,,,,,,,,,,,,,,,,,,,,,,,,,,,,,,,,,
,,5f3c2648a9ef86a4c10de377,2022-09-08_14h10.39.221,CGTgamblingSpanTasks,2022.2.1,Win32,59.70505702,,,,,,,,,,,,,,,,,,,,,,,,,,,,,,,,,,,,,,,,,,,,,,,,,,,,,,,,,,,,,,,,,,,,,,,,,,,,,,,,,,"[3,4,2,6,5]",4,0,4,0,1,,,,,,,,,,,,,,,,,,,,,,,,,,,,,,,,,,,,,,,,,,,,,,,,
,,5f3c2648a9ef86a4c10de377,2022-09-08_14h10.39.221,CGTgamblingSpanTasks,2022.2.1,Win32,59.70505702,,,,,,,,,,,,,,,,,,,,,,,,,,,,,,,,,,,,,,,,,,,,,,,,,,,,,,,,,,,,,,,1,,,,,,,,,,,,,,,,,,,,,,,,,34265,0.006481481,-0.410185185,1,0,0,cont_button,0,2,2,2,1,3,,,,,,,,,,,,,,,,,,,,,,,,,,,,,,,,,,,
,,5f3c2648a9ef86a4c10de377,2022-09-08_14h10.39.221,CGTgamblingSpanTasks,2022.2.1,Win32,59.70505702,,,,,,,,,,,,,,,,,,,,,,,,,,,,,,,,,,,,,,,,,,,,,,,,,,,,,,,,,,,,,,,,,,,,,,,,,,,,,,,,,,"[3,8,4,2,9,6]",0,0,0,0,1,,,,,,,,,,,,,,,,,,,,,,,,,,,,,,,,,,,,,,,,,,,,,,,,
,,5f3c2648a9ef86a4c10de377,2022-09-08_14h10.39.221,CGTgamblingSpanTasks,2022.2.1,Win32,59.70505702,,,,,,,,,,,,,,,,,,,,,,,,,,,,,,,,,,,,,,,,,,,,,,,,,,,,,,,,,,,,,,,,,,,,,,,,,,,,,,,,,,"[3,8,4,2,9,6]",1,0,1,0,1,,,,,,,,,,,,,,,,,,,,,,,,,,,,,,,,,,,,,,,,,,,,,,,,
,,5f3c2648a9ef86a4c10de377,2022-09-08_14h10.39.221,CGTgamblingSpanTasks,2022.2.1,Win32,59.70505702,,,,,,,,,,,,,,,,,,,,,,,,,,,,,,,,,,,,,,,,,,,,,,,,,,,,,,,,,,,,,,,,,,,,,,,,,,,,,,,,,,"[3,8,4,2,9,6]",2,0,2,0,1,,,,,,,,,,,,,,,,,,,,,,,,,,,,,,,,,,,,,,,,,,,,,,,,
,,5f3c2648a9ef86a4c10de377,2022-09-08_14h10.39.221,CGTgamblingSpanTasks,2022.2.1,Win32,59.70505702,,,,,,,,,,,,,,,,,,,,,,,,,,,,,,,,,,,,,,,,,,,,,,,,,,,,,,,,,,,,,,,,,,,,,,,,,,,,,,,,,,"[3,8,4,2,9,6]",3,0,3,0,1,,,,,,,,,,,,,,,,,,,,,,,,,,,,,,,,,,,,,,,,,,,,,,,,
,,5f3c2648a9ef86a4c10de377,2022-09-08_14h10.39.221,CGTgamblingSpanTasks,2022.2.1,Win32,59.70505702,,,,,,,,,,,,,,,,,,,,,,,,,,,,,,,,,,,,,,,,,,,,,,,,,,,,,,,,,,,,,,,,,,,,,,,,,,,,,,,,,,"[3,8,4,2,9,6]",4,0,4,0,1,,,,,,,,,,,,,,,,,,,,,,,,,,,,,,,,,,,,,,,,,,,,,,,,
,,5f3c2648a9ef86a4c10de377,2022-09-08_14h10.39.221,CGTgamblingSpanTasks,2022.2.1,Win32,59.70505702,,,,,,,,,,,,,,,,,,,,,,,,,,,,,,,,,,,,,,,,,,,,,,,,,,,,,,,,,,,,,,,,,,,,,,,,,,,,,,,,,,"[3,8,4,2,9,6]",5,0,5,0,1,,,,,,,,,,,,,,,,,,,,,,,,,,,,,,,,,,,,,,,,,,,,,,,,
,,5f3c2648a9ef86a4c10de377,2022-09-08_14h10.39.221,CGTgamblingSpanTasks,2022.2.1,Win32,59.70505702,,,,,,,,,,,,,,,,,,,,,,,,,,,,,,,,,,,,,,,,,,,,,,,,,,,,,,,,,,,,,,,1,,,,,,,,,,,,,,,,,,,,,,,,,384296,-0.112962963,-0.40462963,1,0,0,cont_button,0,3,3,3,1,4,,,,,,,,,,,,,,,,,,,,,,,,,,,,,,,,,,,
,,5f3c2648a9ef86a4c10de377,2022-09-08_14h10.39.221,CGTgamblingSpanTasks,2022.2.1,Win32,59.70505702,,,,,,,,,,,,,,,,,,,,,,,,,,,,,,,,,,,,,,,,,,,,,,,,,,,,,,,,,,,,,,,,,,,,,,,,,,,,,,,,,,"[5,7,1,2,4,9,3]",0,0,0,0,1,,,,,,,,,,,,,,,,,,,,,,,,,,,,,,,,,,,,,,,,,,,,,,,,
,,5f3c2648a9ef86a4c10de377,2022-09-08_14h10.39.221,CGTgamblingSpanTasks,2022.2.1,Win32,59.70505702,,,,,,,,,,,,,,,,,,,,,,,,,,,,,,,,,,,,,,,,,,,,,,,,,,,,,,,,,,,,,,,,,,,,,,,,,,,,,,,,,,"[5,7,1,2,4,9,3]",1,0,1,0,1,,,,,,,,,,,,,,,,,,,,,,,,,,,,,,,,,,,,,,,,,,,,,,,,
,,5f3c2648a9ef86a4c10de377,2022-09-08_14h10.39.221,CGTgamblingSpanTasks,2022.2.1,Win32,59.70505702,,,,,,,,,,,,,,,,,,,,,,,,,,,,,,,,,,,,,,,,,,,,,,,,,,,,,,,,,,,,,,,,,,,,,,,,,,,,,,,,,,"[5,7,1,2,4,9,3]",2,0,2,0,1,,,,,,,,,,,,,,,,,,,,,,,,,,,,,,,,,,,,,,,,,,,,,,,,
,,5f3c2648a9ef86a4c10de377,2022-09-08_14h10.39.221,CGTgamblingSpanTasks,2022.2.1,Win32,59.70505702,,,,,,,,,,,,,,,,,,,,,,,,,,,,,,,,,,,,,,,,,,,,,,,,,,,,,,,,,,,,,,,,,,,,,,,,,,,,,,,,,,"[5,7,1,2,4,9,3]",3,0,3,0,1,,,,,,,,,,,,,,,,,,,,,,,,,,,,,,,,,,,,,,,,,,,,,,,,
,,5f3c2648a9ef86a4c10de377,2022-09-08_14h10.39.221,CGTgamblingSpanTasks,2022.2.1,Win32,59.70505702,,,,,,,,,,,,,,,,,,,,,,,,,,,,,,,,,,,,,,,,,,,,,,,,,,,,,,,,,,,,,,,,,,,,,,,,,,,,,,,,,,"[5,7,1,2,4,9,3]",4,0,4,0,1,,,,,,,,,,,,,,,,,,,,,,,,,,,,,,,,,,,,,,,,,,,,,,,,
,,5f3c2648a9ef86a4c10de377,2022-09-08_14h10.39.221,CGTgamblingSpanTasks,2022.2.1,Win32,59.70505702,,,,,,,,,,,,,,,,,,,,,,,,,,,,,,,,,,,,,,,,,,,,,,,,,,,,,,,,,,,,,,,,,,,,,,,,,,,,,,,,,,"[5,7,1,2,4,9,3]",5,0,5,0,1,,,,,,,,,,,,,,,,,,,,,,,,,,,,,,,,,,,,,,,,,,,,,,,,
,,5f3c2648a9ef86a4c10de377,2022-09-08_14h10.39.221,CGTgamblingSpanTasks,2022.2.1,Win32,59.70505702,,,,,,,,,,,,,,,,,,,,,,,,,,,,,,,,,,,,,,,,,,,,,,,,,,,,,,,,,,,,,,,,,,,,,,,,,,,,,,,,,,"[5,7,1,2,4,9,3]",6,0,6,0,1,,,,,,,,,,,,,,,,,,,,,,,,,,,,,,,,,,,,,,,,,,,,,,,,
,,5f3c2648a9ef86a4c10de377,2022-09-08_14h10.39.221,CGTgamblingSpanTasks,2022.2.1,Win32,59.70505702,,,,,,,,,,,,,,,,,,,,,,,,,,,,,,,,,,,,,,,,,,,,,,,,,,,,,,,,,,,,,,,1,,,,,,,,,,,,,,,,,,,,,,,,,5712493,-0.044444444,-0.421296296,1,0,0,cont_button,0,4,4,4,1,5,,,,,,,,,,,,,,,,,,,,,,,,,,,,,,,,,,,
,,5f3c2648a9ef86a4c10de377,2022-09-08_14h10.39.221,CGTgamblingSpanTasks,2022.2.1,Win32,59.70505702,,,,,,,,,,,,,,,,,,,,,,,,,,,,,,,,,,,,,,,,,,,,,,,,,,,,,,,,,,,,,,,,,,,,,,,,,,,,,,,,,,"[2,6,1,5,3,8,4,9]",0,0,0,0,1,,,,,,,,,,,,,,,,,,,,,,,,,,,,,,,,,,,,,,,,,,,,,,,,
,,5f3c2648a9ef86a4c10de377,2022-09-08_14h10.39.221,CGTgamblingSpanTasks,2022.2.1,Win32,59.70505702,,,,,,,,,,,,,,,,,,,,,,,,,,,,,,,,,,,,,,,,,,,,,,,,,,,,,,,,,,,,,,,,,,,,,,,,,,,,,,,,,,"[2,6,1,5,3,8,4,9]",1,0,1,0,1,,,,,,,,,,,,,,,,,,,,,,,,,,,,,,,,,,,,,,,,,,,,,,,,
,,5f3c2648a9ef86a4c10de377,2022-09-08_14h10.39.221,CGTgamblingSpanTasks,2022.2.1,Win32,59.70505702,,,,,,,,,,,,,,,,,,,,,,,,,,,,,,,,,,,,,,,,,,,,,,,,,,,,,,,,,,,,,,,,,,,,,,,,,,,,,,,,,,"[2,6,1,5,3,8,4,9]",2,0,2,0,1,,,,,,,,,,,,,,,,,,,,,,,,,,,,,,,,,,,,,,,,,,,,,,,,
,,5f3c2648a9ef86a4c10de377,2022-09-08_14h10.39.221,CGTgamblingSpanTasks,2022.2.1,Win32,59.70505702,,,,,,,,,,,,,,,,,,,,,,,,,,,,,,,,,,,,,,,,,,,,,,,,,,,,,,,,,,,,,,,,,,,,,,,,,,,,,,,,,,"[2,6,1,5,3,8,4,9]",3,0,3,0,1,,,,,,,,,,,,,,,,,,,,,,,,,,,,,,,,,,,,,,,,,,,,,,,,
,,5f3c2648a9ef86a4c10de377,2022-09-08_14h10.39.221,CGTgamblingSpanTasks,2022.2.1,Win32,59.70505702,,,,,,,,,,,,,,,,,,,,,,,,,,,,,,,,,,,,,,,,,,,,,,,,,,,,,,,,,,,,,,,,,,,,,,,,,,,,,,,,,,"[2,6,1,5,3,8,4,9]",4,0,4,0,1,,,,,,,,,,,,,,,,,,,,,,,,,,,,,,,,,,,,,,,,,,,,,,,,
,,5f3c2648a9ef86a4c10de377,2022-09-08_14h10.39.221,CGTgamblingSpanTasks,2022.2.1,Win32,59.70505702,,,,,,,,,,,,,,,,,,,,,,,,,,,,,,,,,,,,,,,,,,,,,,,,,,,,,,,,,,,,,,,,,,,,,,,,,,,,,,,,,,"[2,6,1,5,3,8,4,9]",5,0,5,0,1,,,,,,,,,,,,,,,,,,,,,,,,,,,,,,,,,,,,,,,,,,,,,,,,
,,5f3c2648a9ef86a4c10de377,2022-09-08_14h10.39.221,CGTgamblingSpanTasks,2022.2.1,Win32,59.70505702,,,,,,,,,,,,,,,,,,,,,,,,,,,,,,,,,,,,,,,,,,,,,,,,,,,,,,,,,,,,,,,,,,,,,,,,,,,,,,,,,,"[2,6,1,5,3,8,4,9]",6,0,6,0,1,,,,,,,,,,,,,,,,,,,,,,,,,,,,,,,,,,,,,,,,,,,,,,,,
,,5f3c2648a9ef86a4c10de377,2022-09-08_14h10.39.221,CGTgamblingSpanTasks,2022.2.1,Win32,59.70505702,,,,,,,,,,,,,,,,,,,,,,,,,,,,,,,,,,,,,,,,,,,,,,,,,,,,,,,,,,,,,,,,,,,,,,,,,,,,,,,,,,"[2,6,1,5,3,8,4,9]",7,0,7,0,1,,,,,,,,,,,,,,,,,,,,,,,,,,,,,,,,,,,,,,,,,,,,,,,,
,,5f3c2648a9ef86a4c10de377,2022-09-08_14h10.39.221,CGTgamblingSpanTasks,2022.2.1,Win32,59.70505702,,,,,,,,,,,,,,,,,,,,,,,,,,,,,,,,,,,,,,,,,,,,,,,,,,,,,,,,,,,,,,,0,,,,,,,,,,,,,,,,,,,,,,,,,2619473,-0.010185185,-0.377777778,1,0,0,cont_button,0,5,5,5,1,6,,,,,,,,,,,,,,,,,,,,,,,,,,,,,,,,,,,
,,5f3c2648a9ef86a4c10de377,2022-09-08_14h10.39.221,CGTgamblingSpanTasks,2022.2.1,Win32,59.70505702,,,,,,,,,,,,,,,,,,,,,,,,,,,,,,,,,,,,,,,,,,,,,,,,,,,,,,,,,,,,,,,,,,,,,,,,,,,,,,,,,,"[7,9,8,6,1,3,5,4]",0,0,0,0,1,,,,,,,,,,,,,,,,,,,,,,,,,,,,,,,,,,,,,,,,,,,,,,,,
,,5f3c2648a9ef86a4c10de377,2022-09-08_14h10.39.221,CGTgamblingSpanTasks,2022.2.1,Win32,59.70505702,,,,,,,,,,,,,,,,,,,,,,,,,,,,,,,,,,,,,,,,,,,,,,,,,,,,,,,,,,,,,,,,,,,,,,,,,,,,,,,,,,"[7,9,8,6,1,3,5,4]",1,0,1,0,1,,,,,,,,,,,,,,,,,,,,,,,,,,,,,,,,,,,,,,,,,,,,,,,,
,,5f3c2648a9ef86a4c10de377,2022-09-08_14h10.39.221,CGTgamblingSpanTasks,2022.2.1,Win32,59.70505702,,,,,,,,,,,,,,,,,,,,,,,,,,,,,,,,,,,,,,,,,,,,,,,,,,,,,,,,,,,,,,,,,,,,,,,,,,,,,,,,,,"[7,9,8,6,1,3,5,4]",2,0,2,0,1,,,,,,,,,,,,,,,,,,,,,,,,,,,,,,,,,,,,,,,,,,,,,,,,
,,5f3c2648a9ef86a4c10de377,2022-09-08_14h10.39.221,CGTgamblingSpanTasks,2022.2.1,Win32,59.70505702,,,,,,,,,,,,,,,,,,,,,,,,,,,,,,,,,,,,,,,,,,,,,,,,,,,,,,,,,,,,,,,,,,,,,,,,,,,,,,,,,,"[7,9,8,6,1,3,5,4]",3,0,3,0,1,,,,,,,,,,,,,,,,,,,,,,,,,,,,,,,,,,,,,,,,,,,,,,,,
,,5f3c2648a9ef86a4c10de377,2022-09-08_14h10.39.221,CGTgamblingSpanTasks,2022.2.1,Win32,59.70505702,,,,,,,,,,,,,,,,,,,,,,,,,,,,,,,,,,,,,,,,,,,,,,,,,,,,,,,,,,,,,,,,,,,,,,,,,,,,,,,,,,"[7,9,8,6,1,3,5,4]",4,0,4,0,1,,,,,,,,,,,,,,,,,,,,,,,,,,,,,,,,,,,,,,,,,,,,,,,,
,,5f3c2648a9ef86a4c10de377,2022-09-08_14h10.39.221,CGTgamblingSpanTasks,2022.2.1,Win32,59.70505702,,,,,,,,,,,,,,,,,,,,,,,,,,,,,,,,,,,,,,,,,,,,,,,,,,,,,,,,,,,,,,,,,,,,,,,,,,,,,,,,,,"[7,9,8,6,1,3,5,4]",5,0,5,0,1,,,,,,,,,,,,,,,,,,,,,,,,,,,,,,,,,,,,,,,,,,,,,,,,
,,5f3c2648a9ef86a4c10de377,2022-09-08_14h10.39.221,CGTgamblingSpanTasks,2022.2.1,Win32,59.70505702,,,,,,,,,,,,,,,,,,,,,,,,,,,,,,,,,,,,,,,,,,,,,,,,,,,,,,,,,,,,,,,,,,,,,,,,,,,,,,,,,,"[7,9,8,6,1,3,5,4]",6,0,6,0,1,,,,,,,,,,,,,,,,,,,,,,,,,,,,,,,,,,,,,,,,,,,,,,,,
,,5f3c2648a9ef86a4c10de377,2022-09-08_14h10.39.221,CGTgamblingSpanTasks,2022.2.1,Win32,59.70505702,,,,,,,,,,,,,,,,,,,,,,,,,,,,,,,,,,,,,,,,,,,,,,,,,,,,,,,,,,,,,,,,,,,,,,,,,,,,,,,,,,"[7,9,8,6,1,3,5,4]",7,0,7,0,1,,,,,,,,,,,,,,,,,,,,,,,,,,,,,,,,,,,,,,,,,,,,,,,,
,,5f3c2648a9ef86a4c10de377,2022-09-08_14h10.39.221,CGTgamblingSpanTasks,2022.2.1,Win32,59.70505702,,,,,,,,,,,,,,,,,,,,,,,,,,,,,,,,,,,,,,,,,,,,,,,,,,,,,,,,,,,,,,,0,,,,,,,,,,,,,,,,,,,,,,,,,7819694,-0.040740741,-0.408333333,1,0,0,cont_button,0,6,6,6,1,7,,,,,,,,,,,,,,,,,,,,,,,,,,,,,,,,,,,
,,5f3c2648a9ef86a4c10de377,2022-09-08_14h10.39.221,CGTgamblingSpanTasks,2022.2.1,Win32,59.70505702,,,,,,,,,,,,,,,,,,,,,,,,,,,,,,,,,,,,,,,,,,,,,,,,,,,,,,,,,,,,,,,,,,,,,,,,,,,,,,,,,,"[1,3,5,2,6,9,4]",0,0,0,0,1,,,,,,,,,,,,,,,,,,,,,,,,,,,,,,,,,,,,,,,,,,,,,,,,
,,5f3c2648a9ef86a4c10de377,2022-09-08_14h10.39.221,CGTgamblingSpanTasks,2022.2.1,Win32,59.70505702,,,,,,,,,,,,,,,,,,,,,,,,,,,,,,,,,,,,,,,,,,,,,,,,,,,,,,,,,,,,,,,,,,,,,,,,,,,,,,,,,,"[1,3,5,2,6,9,4]",1,0,1,0,1,,,,,,,,,,,,,,,,,,,,,,,,,,,,,,,,,,,,,,,,,,,,,,,,
,,5f3c2648a9ef86a4c10de377,2022-09-08_14h10.39.221,CGTgamblingSpanTasks,2022.2.1,Win32,59.70505702,,,,,,,,,,,,,,,,,,,,,,,,,,,,,,,,,,,,,,,,,,,,,,,,,,,,,,,,,,,,,,,,,,,,,,,,,,,,,,,,,,"[1,3,5,2,6,9,4]",2,0,2,0,1,,,,,,,,,,,,,,,,,,,,,,,,,,,,,,,,,,,,,,,,,,,,,,,,
,,5f3c2648a9ef86a4c10de377,2022-09-08_14h10.39.221,CGTgamblingSpanTasks,2022.2.1,Win32,59.70505702,,,,,,,,,,,,,,,,,,,,,,,,,,,,,,,,,,,,,,,,,,,,,,,,,,,,,,,,,,,,,,,,,,,,,,,,,,,,,,,,,,"[1,3,5,2,6,9,4]",3,0,3,0,1,,,,,,,,,,,,,,,,,,,,,,,,,,,,,,,,,,,,,,,,,,,,,,,,
,,5f3c2648a9ef86a4c10de377,2022-09-08_14h10.39.221,CGTgamblingSpanTasks,2022.2.1,Win32,59.70505702,,,,,,,,,,,,,,,,,,,,,,,,,,,,,,,,,,,,,,,,,,,,,,,,,,,,,,,,,,,,,,,,,,,,,,,,,,,,,,,,,,"[1,3,5,2,6,9,4]",4,0,4,0,1,,,,,,,,,,,,,,,,,,,,,,,,,,,,,,,,,,,,,,,,,,,,,,,,
,,5f3c2648a9ef86a4c10de377,2022-09-08_14h10.39.221,CGTgamblingSpanTasks,2022.2.1,Win32,59.70505702,,,,,,,,,,,,,,,,,,,,,,,,,,,,,,,,,,,,,,,,,,,,,,,,,,,,,,,,,,,,,,,,,,,,,,,,,,,,,,,,,,"[1,3,5,2,6,9,4]",5,0,5,0,1,,,,,,,,,,,,,,,,,,,,,,,,,,,,,,,,,,,,,,,,,,,,,,,,
,,5f3c2648a9ef86a4c10de377,2022-09-08_14h10.39.221,CGTgamblingSpanTasks,2022.2.1,Win32,59.70505702,,,,,,,,,,,,,,,,,,,,,,,,,,,,,,,,,,,,,,,,,,,,,,,,,,,,,,,,,,,,,,,,,,,,,,,,,,,,,,,,,,"[1,3,5,2,6,9,4]",6,0,6,0,1,,,,,,,,,,,,,,,,,,,,,,,,,,,,,,,,,,,,,,,,,,,,,,,,
,,5f3c2648a9ef86a4c10de377,2022-09-08_14h10.39.221,CGTgamblingSpanTasks,2022.2.1,Win32,59.70505702,,,,,,,,,,,,,,,,,,,,,,,,,,,,,,,,,,,,,,,,,,,,,,,,,,,,,,,,,,,,,,,1,,,,,,,,,,,,,,,,,,,,,,,,,1352694,0.010185185,-0.39537037,1,0,0,cont_button,0,7,7,7,1,8,,,,,,,,,,,,,,,,,,,,,,,,,,,,,,,,,,,
,,5f3c2648a9ef86a4c10de377,2022-09-08_14h10.39.221,CGTgamblingSpanTasks,2022.2.1,Win32,59.70505702,,,,,,,,,,,,,,,,,,,,,,,,,,,,,,,,,,,,,,,,,,,,,,,,,,,,,,,,,,,,,,,,,,,,,,,,,,,,,,,,,,"[6,4,9,2,8,1,7,5]",0,0,0,0,1,,,,,,,,,,,,,,,,,,,,,,,,,,,,,,,,,,,,,,,,,,,,,,,,
,,5f3c2648a9ef86a4c10de377,2022-09-08_14h10.39.221,CGTgamblingSpanTasks,2022.2.1,Win32,59.70505702,,,,,,,,,,,,,,,,,,,,,,,,,,,,,,,,,,,,,,,,,,,,,,,,,,,,,,,,,,,,,,,,,,,,,,,,,,,,,,,,,,"[6,4,9,2,8,1,7,5]",1,0,1,0,1,,,,,,,,,,,,,,,,,,,,,,,,,,,,,,,,,,,,,,,,,,,,,,,,
,,5f3c2648a9ef86a4c10de377,2022-09-08_14h10.39.221,CGTgamblingSpanTasks,2022.2.1,Win32,59.70505702,,,,,,,,,,,,,,,,,,,,,,,,,,,,,,,,,,,,,,,,,,,,,,,,,,,,,,,,,,,,,,,,,,,,,,,,,,,,,,,,,,"[6,4,9,2,8,1,7,5]",2,0,2,0,1,,,,,,,,,,,,,,,,,,,,,,,,,,,,,,,,,,,,,,,,,,,,,,,,
,,5f3c2648a9ef86a4c10de377,2022-09-08_14h10.39.221,CGTgamblingSpanTasks,2022.2.1,Win32,59.70505702,,,,,,,,,,,,,,,,,,,,,,,,,,,,,,,,,,,,,,,,,,,,,,,,,,,,,,,,,,,,,,,,,,,,,,,,,,,,,,,,,,"[6,4,9,2,8,1,7,5]",3,0,3,0,1,,,,,,,,,,,,,,,,,,,,,,,,,,,,,,,,,,,,,,,,,,,,,,,,
,,5f3c2648a9ef86a4c10de377,2022-09-08_14h10.39.221,CGTgamblingSpanTasks,2022.2.1,Win32,59.70505702,,,,,,,,,,,,,,,,,,,,,,,,,,,,,,,,,,,,,,,,,,,,,,,,,,,,,,,,,,,,,,,,,,,,,,,,,,,,,,,,,,"[6,4,9,2,8,1,7,5]",4,0,4,0,1,,,,,,,,,,,,,,,,,,,,,,,,,,,,,,,,,,,,,,,,,,,,,,,,
,,5f3c2648a9ef86a4c10de377,2022-09-08_14h10.39.221,CGTgamblingSpanTasks,2022.2.1,Win32,59.70505702,,,,,,,,,,,,,,,,,,,,,,,,,,,,,,,,,,,,,,,,,,,,,,,,,,,,,,,,,,,,,,,,,,,,,,,,,,,,,,,,,,"[6,4,9,2,8,1,7,5]",5,0,5,0,1,,,,,,,,,,,,,,,,,,,,,,,,,,,,,,,,,,,,,,,,,,,,,,,,
,,5f3c2648a9ef86a4c10de377,2022-09-08_14h10.39.221,CGTgamblingSpanTasks,2022.2.1,Win32,59.70505702,,,,,,,,,,,,,,,,,,,,,,,,,,,,,,,,,,,,,,,,,,,,,,,,,,,,,,,,,,,,,,,,,,,,,,,,,,,,,,,,,,"[6,4,9,2,8,1,7,5]",6,0,6,0,1,,,,,,,,,,,,,,,,,,,,,,,,,,,,,,,,,,,,,,,,,,,,,,,,
,,5f3c2648a9ef86a4c10de377,2022-09-08_14h10.39.221,CGTgamblingSpanTasks,2022.2.1,Win32,59.70505702,,,,,,,,,,,,,,,,,,,,,,,,,,,,,,,,,,,,,,,,,,,,,,,,,,,,,,,,,,,,,,,,,,,,,,,,,,,,,,,,,,"[6,4,9,2,8,1,7,5]",7,0,7,0,1,,,,,,,,,,,,,,,,,,,,,,,,,,,,,,,,,,,,,,,,,,,,,,,,
,,5f3c2648a9ef86a4c10de377,2022-09-08_14h10.39.221,CGTgamblingSpanTasks,2022.2.1,Win32,59.70505702,,,,,,,,,,,,,,,,,,,,,,,,,,,,,,,,,,,,,,,,,,,,,,,,,,,,,,,,,,,,,,,0,,,,,,,,,,,,,,,,,,,,,,,,,649216,-0.112037037,-0.422222222,1,0,0,cont_button,0,8,8,8,1,9,,,,,,,,,,,,,,,,,,,,,,,,,,,,,,,,,,,
,,5f3c2648a9ef86a4c10de377,2022-09-08_14h10.39.221,CGTgamblingSpanTasks,2022.2.1,Win32,59.70505702,,,,,,,,,,,,,,,,,,,,,,,,,,,,,,,,,,,,,,,,,,,,,,,,,,,,,,,,,,,,,,,,,,,,,,,,,,,,,,,,,,"[3,4,1,7,9,8,2,6]",0,0,0,0,1,,,,,,,,,,,,,,,,,,,,,,,,,,,,,,,,,,,,,,,,,,,,,,,,
,,5f3c2648a9ef86a4c10de377,2022-09-08_14h10.39.221,CGTgamblingSpanTasks,2022.2.1,Win32,59.70505702,,,,,,,,,,,,,,,,,,,,,,,,,,,,,,,,,,,,,,,,,,,,,,,,,,,,,,,,,,,,,,,,,,,,,,,,,,,,,,,,,,"[3,4,1,7,9,8,2,6]",1,0,1,0,1,,,,,,,,,,,,,,,,,,,,,,,,,,,,,,,,,,,,,,,,,,,,,,,,
,,5f3c2648a9ef86a4c10de377,2022-09-08_14h10.39.221,CGTgamblingSpanTasks,2022.2.1,Win32,59.70505702,,,,,,,,,,,,,,,,,,,,,,,,,,,,,,,,,,,,,,,,,,,,,,,,,,,,,,,,,,,,,,,,,,,,,,,,,,,,,,,,,,"[3,4,1,7,9,8,2,6]",2,0,2,0,1,,,,,,,,,,,,,,,,,,,,,,,,,,,,,,,,,,,,,,,,,,,,,,,,
,,5f3c2648a9ef86a4c10de377,2022-09-08_14h10.39.221,CGTgamblingSpanTasks,2022.2.1,Win32,59.70505702,,,,,,,,,,,,,,,,,,,,,,,,,,,,,,,,,,,,,,,,,,,,,,,,,,,,,,,,,,,,,,,,,,,,,,,,,,,,,,,,,,"[3,4,1,7,9,8,2,6]",3,0,3,0,1,,,,,,,,,,,,,,,,,,,,,,,,,,,,,,,,,,,,,,,,,,,,,,,,
,,5f3c2648a9ef86a4c10de377,2022-09-08_14h10.39.221,CGTgamblingSpanTasks,2022.2.1,Win32,59.70505702,,,,,,,,,,,,,,,,,,,,,,,,,,,,,,,,,,,,,,,,,,,,,,,,,,,,,,,,,,,,,,,,,,,,,,,,,,,,,,,,,,"[3,4,1,7,9,8,2,6]",4,0,4,0,1,,,,,,,,,,,,,,,,,,,,,,,,,,,,,,,,,,,,,,,,,,,,,,,,
,,5f3c2648a9ef86a4c10de377,2022-09-08_14h10.39.221,CGTgamblingSpanTasks,2022.2.1,Win32,59.70505702,,,,,,,,,,,,,,,,,,,,,,,,,,,,,,,,,,,,,,,,,,,,,,,,,,,,,,,,,,,,,,,,,,,,,,,,,,,,,,,,,,"[3,4,1,7,9,8,2,6]",5,0,5,0,1,,,,,,,,,,,,,,,,,,,,,,,,,,,,,,,,,,,,,,,,,,,,,,,,
,,5f3c2648a9ef86a4c10de377,2022-09-08_14h10.39.221,CGTgamblingSpanTasks,2022.2.1,Win32,59.70505702,,,,,,,,,,,,,,,,,,,,,,,,,,,,,,,,,,,,,,,,,,,,,,,,,,,,,,,,,,,,,,,,,,,,,,,,,,,,,,,,,,"[3,4,1,7,9,8,2,6]",6,0,6,0,1,,,,,,,,,,,,,,,,,,,,,,,,,,,,,,,,,,,,,,,,,,,,,,,,
,,5f3c2648a9ef86a4c10de377,2022-09-08_14h10.39.221,CGTgamblingSpanTasks,2022.2.1,Win32,59.70505702,,,,,,,,,,,,,,,,,,,,,,,,,,,,,,,,,,,,,,,,,,,,,,,,,,,,,,,,,,,,,,,,,,,,,,,,,,,,,,,,,,"[3,4,1,7,9,8,2,6]",7,0,7,0,1,,,,,,,,,,,,,,,,,,,,,,,,,,,,,,,,,,,,,,,,,,,,,,,,
,,5f3c2648a9ef86a4c10de377,2022-09-08_14h10.39.221,CGTgamblingSpanTasks,2022.2.1,Win32,59.70505702,,,,,,,,,,,,,,,,,,,,,,,,,,,,,,,,,,,,,,,,,,,,,,,,,,,,,,,,,,,,,,,0,,,,,,,,,,,,,,,,,,,,,,,,,3497182,0.00462963,-0.401851852,1,0,0,cont_button,0,9,9,9,1,10,,,,,,,,,,,,,,,,,,,,,,,,,,,,,,,,,,,
,,5f3c2648a9ef86a4c10de377,2022-09-08_14h10.39.221,CGTgamblingSpanTasks,2022.2.1,Win32,59.70505702,,,,,,,,,,,,,,,,,,,,,,,,,,,,,,,,,,,,,,,,,,,,,,,,,,,,,,,,,,,,,,,,,,,,,,,,,,,,,,,,,,"[5,8,9,7,1,4,3]",0,0,0,0,1,,,,,,,,,,,,,,,,,,,,,,,,,,,,,,,,,,,,,,,,,,,,,,,,
,,5f3c2648a9ef86a4c10de377,2022-09-08_14h10.39.221,CGTgamblingSpanTasks,2022.2.1,Win32,59.70505702,,,,,,,,,,,,,,,,,,,,,,,,,,,,,,,,,,,,,,,,,,,,,,,,,,,,,,,,,,,,,,,,,,,,,,,,,,,,,,,,,,"[5,8,9,7,1,4,3]",1,0,1,0,1,,,,,,,,,,,,,,,,,,,,,,,,,,,,,,,,,,,,,,,,,,,,,,,,
,,5f3c2648a9ef86a4c10de377,2022-09-08_14h10.39.221,CGTgamblingSpanTasks,2022.2.1,Win32,59.70505702,,,,,,,,,,,,,,,,,,,,,,,,,,,,,,,,,,,,,,,,,,,,,,,,,,,,,,,,,,,,,,,,,,,,,,,,,,,,,,,,,,"[5,8,9,7,1,4,3]",2,0,2,0,1,,,,,,,,,,,,,,,,,,,,,,,,,,,,,,,,,,,,,,,,,,,,,,,,
,,5f3c2648a9ef86a4c10de377,2022-09-08_14h10.39.221,CGTgamblingSpanTasks,2022.2.1,Win32,59.70505702,,,,,,,,,,,,,,,,,,,,,,,,,,,,,,,,,,,,,,,,,,,,,,,,,,,,,,,,,,,,,,,,,,,,,,,,,,,,,,,,,,"[5,8,9,7,1,4,3]",3,0,3,0,1,,,,,,,,,,,,,,,,,,,,,,,,,,,,,,,,,,,,,,,,,,,,,,,,
,,5f3c2648a9ef86a4c10de377,2022-09-08_14h10.39.221,CGTgamblingSpanTasks,2022.2.1,Win32,59.70505702,,,,,,,,,,,,,,,,,,,,,,,,,,,,,,,,,,,,,,,,,,,,,,,,,,,,,,,,,,,,,,,,,,,,,,,,,,,,,,,,,,"[5,8,9,7,1,4,3]",4,0,4,0,1,,,,,,,,,,,,,,,,,,,,,,,,,,,,,,,,,,,,,,,,,,,,,,,,
,,5f3c2648a9ef86a4c10de377,2022-09-08_14h10.39.221,CGTgamblingSpanTasks,2022.2.1,Win32,59.70505702,,,,,,,,,,,,,,,,,,,,,,,,,,,,,,,,,,,,,,,,,,,,,,,,,,,,,,,,,,,,,,,,,,,,,,,,,,,,,,,,,,"[5,8,9,7,1,4,3]",5,0,5,0,1,,,,,,,,,,,,,,,,,,,,,,,,,,,,,,,,,,,,,,,,,,,,,,,,
,,5f3c2648a9ef86a4c10de377,2022-09-08_14h10.39.221,CGTgamblingSpanTasks,2022.2.1,Win32,59.70505702,,,,,,,,,,,,,,,,,,,,,,,,,,,,,,,,,,,,,,,,,,,,,,,,,,,,,,,,,,,,,,,,,,,,,,,,,,,,,,,,,,"[5,8,9,7,1,4,3]",6,0,6,0,1,,,,,,,,,,,,,,,,,,,,,,,,,,,,,,,,,,,,,,,,,,,,,,,,
,,5f3c2648a9ef86a4c10de377,2022-09-08_14h10.39.221,CGTgamblingSpanTasks,2022.2.1,Win32,59.70505702,,,,,,,,,,,,,,,,,,,,,,,,,,,,,,,,,,,,,,,,,,,,,,,,,,,,,,,,,,,,,,,1,,,,,,,,,,,,,,,,,,,,,,,,,5897143,-0.058333333,-0.401851852,1,0,0,cont_button,0,10,10,10,1,11,,,,,,,,,,,,,,,,,,,,,,,,,,,,,,,,,,,
,,5f3c2648a9ef86a4c10de377,2022-09-08_14h10.39.221,CGTgamblingSpanTasks,2022.2.1,Win32,59.70505702,,,,,,,,,,,,,,,,,,,,,,,,,,,,,,,,,,,,,,,,,,,,,,,,,,,,,,,,,,,,,,,,,,,,,,,,,,,,,,,,,,"[7,1,8,3,2,4,9,6]",0,0,0,0,1,,,,,,,,,,,,,,,,,,,,,,,,,,,,,,,,,,,,,,,,,,,,,,,,
,,5f3c2648a9ef86a4c10de377,2022-09-08_14h10.39.221,CGTgamblingSpanTasks,2022.2.1,Win32,59.70505702,,,,,,,,,,,,,,,,,,,,,,,,,,,,,,,,,,,,,,,,,,,,,,,,,,,,,,,,,,,,,,,,,,,,,,,,,,,,,,,,,,"[7,1,8,3,2,4,9,6]",1,0,1,0,1,,,,,,,,,,,,,,,,,,,,,,,,,,,,,,,,,,,,,,,,,,,,,,,,
,,5f3c2648a9ef86a4c10de377,2022-09-08_14h10.39.221,CGTgamblingSpanTasks,2022.2.1,Win32,59.70505702,,,,,,,,,,,,,,,,,,,,,,,,,,,,,,,,,,,,,,,,,,,,,,,,,,,,,,,,,,,,,,,,,,,,,,,,,,,,,,,,,,"[7,1,8,3,2,4,9,6]",2,0,2,0,1,,,,,,,,,,,,,,,,,,,,,,,,,,,,,,,,,,,,,,,,,,,,,,,,
,,5f3c2648a9ef86a4c10de377,2022-09-08_14h10.39.221,CGTgamblingSpanTasks,2022.2.1,Win32,59.70505702,,,,,,,,,,,,,,,,,,,,,,,,,,,,,,,,,,,,,,,,,,,,,,,,,,,,,,,,,,,,,,,,,,,,,,,,,,,,,,,,,,"[7,1,8,3,2,4,9,6]",3,0,3,0,1,,,,,,,,,,,,,,,,,,,,,,,,,,,,,,,,,,,,,,,,,,,,,,,,
,,5f3c2648a9ef86a4c10de377,2022-09-08_14h10.39.221,CGTgamblingSpanTasks,2022.2.1,Win32,59.70505702,,,,,,,,,,,,,,,,,,,,,,,,,,,,,,,,,,,,,,,,,,,,,,,,,,,,,,,,,,,,,,,,,,,,,,,,,,,,,,,,,,"[7,1,8,3,2,4,9,6]",4,0,4,0,1,,,,,,,,,,,,,,,,,,,,,,,,,,,,,,,,,,,,,,,,,,,,,,,,
,,5f3c2648a9ef86a4c10de377,2022-09-08_14h10.39.221,CGTgamblingSpanTasks,2022.2.1,Win32,59.70505702,,,,,,,,,,,,,,,,,,,,,,,,,,,,,,,,,,,,,,,,,,,,,,,,,,,,,,,,,,,,,,,,,,,,,,,,,,,,,,,,,,"[7,1,8,3,2,4,9,6]",5,0,5,0,1,,,,,,,,,,,,,,,,,,,,,,,,,,,,,,,,,,,,,,,,,,,,,,,,
,,5f3c2648a9ef86a4c10de377,2022-09-08_14h10.39.221,CGTgamblingSpanTasks,2022.2.1,Win32,59.70505702,,,,,,,,,,,,,,,,,,,,,,,,,,,,,,,,,,,,,,,,,,,,,,,,,,,,,,,,,,,,,,,,,,,,,,,,,,,,,,,,,,"[7,1,8,3,2,4,9,6]",6,0,6,0,1,,,,,,,,,,,,,,,,,,,,,,,,,,,,,,,,,,,,,,,,,,,,,,,,
,,5f3c2648a9ef86a4c10de377,2022-09-08_14h10.39.221,CGTgamblingSpanTasks,2022.2.1,Win32,59.70505702,,,,,,,,,,,,,,,,,,,,,,,,,,,,,,,,,,,,,,,,,,,,,,,,,,,,,,,,,,,,,,,,,,,,,,,,,,,,,,,,,,"[7,1,8,3,2,4,9,6]",7,0,7,0,1,,,,,,,,,,,,,,,,,,,,,,,,,,,,,,,,,,,,,,,,,,,,,,,,
,,5f3c2648a9ef86a4c10de377,2022-09-08_14h10.39.221,CGTgamblingSpanTasks,2022.2.1,Win32,59.70505702,,,,,,,,,,,,,,,,,,,,,,,,,,,,,,,,,,,,,,,,,,,,,,,,,,,,,,,,,,,,,,,0,,,,,,,,,,,,,,,,,,,,,,,,,71832491,0.033333333,-0.394444444,1,0,0,cont_button,0,11,11,11,1,12,,,,,,,,,,,,,,,,,,,,,,,,,,,,,,,,,,,
,,5f3c2648a9ef86a4c10de377,2022-09-08_14h10.39.221,CGTgamblingSpanTasks,2022.2.1,Win32,59.70505702,,,,,,,,,,,,,,,,,,,,,,,,,,,,,,,,,,,,,,,,,,,,,,,,,,,,,,,,,,,,,,,,,,,,,,,,,,,,,,,,,,"[8,6,4,3,9,2,1,7]",0,0,0,0,1,,,,,,,,,,,,,,,,,,,,,,,,,,,,,,,,,,,,,,,,,,,,,,,,
,,5f3c2648a9ef86a4c10de377,2022-09-08_14h10.39.221,CGTgamblingSpanTasks,2022.2.1,Win32,59.70505702,,,,,,,,,,,,,,,,,,,,,,,,,,,,,,,,,,,,,,,,,,,,,,,,,,,,,,,,,,,,,,,,,,,,,,,,,,,,,,,,,,"[8,6,4,3,9,2,1,7]",1,0,1,0,1,,,,,,,,,,,,,,,,,,,,,,,,,,,,,,,,,,,,,,,,,,,,,,,,
,,5f3c2648a9ef86a4c10de377,2022-09-08_14h10.39.221,CGTgamblingSpanTasks,2022.2.1,Win32,59.70505702,,,,,,,,,,,,,,,,,,,,,,,,,,,,,,,,,,,,,,,,,,,,,,,,,,,,,,,,,,,,,,,,,,,,,,,,,,,,,,,,,,"[8,6,4,3,9,2,1,7]",2,0,2,0,1,,,,,,,,,,,,,,,,,,,,,,,,,,,,,,,,,,,,,,,,,,,,,,,,
,,5f3c2648a9ef86a4c10de377,2022-09-08_14h10.39.221,CGTgamblingSpanTasks,2022.2.1,Win32,59.70505702,,,,,,,,,,,,,,,,,,,,,,,,,,,,,,,,,,,,,,,,,,,,,,,,,,,,,,,,,,,,,,,,,,,,,,,,,,,,,,,,,,"[8,6,4,3,9,2,1,7]",3,0,3,0,1,,,,,,,,,,,,,,,,,,,,,,,,,,,,,,,,,,,,,,,,,,,,,,,,
,,5f3c2648a9ef86a4c10de377,2022-09-08_14h10.39.221,CGTgamblingSpanTasks,2022.2.1,Win32,59.70505702,,,,,,,,,,,,,,,,,,,,,,,,,,,,,,,,,,,,,,,,,,,,,,,,,,,,,,,,,,,,,,,,,,,,,,,,,,,,,,,,,,"[8,6,4,3,9,2,1,7]",4,0,4,0,1,,,,,,,,,,,,,,,,,,,,,,,,,,,,,,,,,,,,,,,,,,,,,,,,
,,5f3c2648a9ef86a4c10de377,2022-09-08_14h10.39.221,CGTgamblingSpanTasks,2022.2.1,Win32,59.70505702,,,,,,,,,,,,,,,,,,,,,,,,,,,,,,,,,,,,,,,,,,,,,,,,,,,,,,,,,,,,,,,,,,,,,,,,,,,,,,,,,,"[8,6,4,3,9,2,1,7]",5,0,5,0,1,,,,,,,,,,,,,,,,,,,,,,,,,,,,,,,,,,,,,,,,,,,,,,,,
,,5f3c2648a9ef86a4c10de377,2022-09-08_14h10.39.221,CGTgamblingSpanTasks,2022.2.1,Win32,59.70505702,,,,,,,,,,,,,,,,,,,,,,,,,,,,,,,,,,,,,,,,,,,,,,,,,,,,,,,,,,,,,,,,,,,,,,,,,,,,,,,,,,"[8,6,4,3,9,2,1,7]",6,0,6,0,1,,,,,,,,,,,,,,,,,,,,,,,,,,,,,,,,,,,,,,,,,,,,,,,,
,,5f3c2648a9ef86a4c10de377,2022-09-08_14h10.39.221,CGTgamblingSpanTasks,2022.2.1,Win32,59.70505702,,,,,,,,,,,,,,,,,,,,,,,,,,,,,,,,,,,,,,,,,,,,,,,,,,,,,,,,,,,,,,,,,,,,,,,,,,,,,,,,,,"[8,6,4,3,9,2,1,7]",7,0,7,0,1,,,,,,,,,,,,,,,,,,,,,,,,,,,,,,,,,,,,,,,,,,,,,,,,
,,5f3c2648a9ef86a4c10de377,2022-09-08_14h10.39.221,CGTgamblingSpanTasks,2022.2.1,Win32,59.70505702,,,,,,,,,,,,,,,,,,,,,,,,,,,,,,,,,,,,,,,,,,,,,,,,,,,,,,,,,,,,,,,0,,,,,,,,,,,,,,,,,,,,,,,,,4783642,-0.046296296,-0.412037037,1,0,0,cont_button,0,12,12,12,1,13,,,,,,,,,,,,,,,,,,,,,,,,,,,,,,,,,,,
,,5f3c2648a9ef86a4c10de377,2022-09-08_14h10.39.221,CGTgamblingSpanTasks,2022.2.1,Win32,59.70505702,,,,,,,,,,,,,,,,,,,,,,,,,,,,,,,,,,,,,,,,,,,,,,,,,,,,,,,,,,,,,,,,,,,,,,,,,,,,,,,,,,"[1,4,5,3,9,6,2]",0,0,0,0,1,,,,,,,,,,,,,,,,,,,,,,,,,,,,,,,,,,,,,,,,,,,,,,,,
,,5f3c2648a9ef86a4c10de377,2022-09-08_14h10.39.221,CGTgamblingSpanTasks,2022.2.1,Win32,59.70505702,,,,,,,,,,,,,,,,,,,,,,,,,,,,,,,,,,,,,,,,,,,,,,,,,,,,,,,,,,,,,,,,,,,,,,,,,,,,,,,,,,"[1,4,5,3,9,6,2]",1,0,1,0,1,,,,,,,,,,,,,,,,,,,,,,,,,,,,,,,,,,,,,,,,,,,,,,,,
,,5f3c2648a9ef86a4c10de377,2022-09-08_14h10.39.221,CGTgamblingSpanTasks,2022.2.1,Win32,59.70505702,,,,,,,,,,,,,,,,,,,,,,,,,,,,,,,,,,,,,,,,,,,,,,,,,,,,,,,,,,,,,,,,,,,,,,,,,,,,,,,,,,"[1,4,5,3,9,6,2]",2,0,2,0,1,,,,,,,,,,,,,,,,,,,,,,,,,,,,,,,,,,,,,,,,,,,,,,,,
,,5f3c2648a9ef86a4c10de377,2022-09-08_14h10.39.221,CGTgamblingSpanTasks,2022.2.1,Win32,59.70505702,,,,,,,,,,,,,,,,,,,,,,,,,,,,,,,,,,,,,,,,,,,,,,,,,,,,,,,,,,,,,,,,,,,,,,,,,,,,,,,,,,"[1,4,5,3,9,6,2]",3,0,3,0,1,,,,,,,,,,,,,,,,,,,,,,,,,,,,,,,,,,,,,,,,,,,,,,,,
,,5f3c2648a9ef86a4c10de377,2022-09-08_14h10.39.221,CGTgamblingSpanTasks,2022.2.1,Win32,59.70505702,,,,,,,,,,,,,,,,,,,,,,,,,,,,,,,,,,,,,,,,,,,,,,,,,,,,,,,,,,,,,,,,,,,,,,,,,,,,,,,,,,"[1,4,5,3,9,6,2]",4,0,4,0,1,,,,,,,,,,,,,,,,,,,,,,,,,,,,,,,,,,,,,,,,,,,,,,,,
,,5f3c2648a9ef86a4c10de377,2022-09-08_14h10.39.221,CGTgamblingSpanTasks,2022.2.1,Win32,59.70505702,,,,,,,,,,,,,,,,,,,,,,,,,,,,,,,,,,,,,,,,,,,,,,,,,,,,,,,,,,,,,,,,,,,,,,,,,,,,,,,,,,"[1,4,5,3,9,6,2]",5,0,5,0,1,,,,,,,,,,,,,,,,,,,,,,,,,,,,,,,,,,,,,,,,,,,,,,,,
,,5f3c2648a9ef86a4c10de377,2022-09-08_14h10.39.221,CGTgamblingSpanTasks,2022.2.1,Win32,59.70505702,,,,,,,,,,,,,,,,,,,,,,,,,,,,,,,,,,,,,,,,,,,,,,,,,,,,,,,,,,,,,,,,,,,,,,,,,,,,,,,,,,"[1,4,5,3,9,6,2]",6,0,6,0,1,,,,,,,,,,,,,,,,,,,,,,,,,,,,,,,,,,,,,,,,,,,,,,,,
,,5f3c2648a9ef86a4c10de377,2022-09-08_14h10.39.221,CGTgamblingSpanTasks,2022.2.1,Win32,59.70505702,,,,,,,,,,,,,,,,,,,,,,,,,,,,,,,,,,,,,,,,,,,,,,,,,,,,,,,,,,,,,,,0,,,,,,,,,,,,,,,,,,,,,,,,,1453961,0.025925926,-0.411111111,1,0,0,cont_button,0,13,13,13,1,14,,,,,,,,,,,,,,,,,,,,,,,,,,,,,,,,,,,
,,5f3c2648a9ef86a4c10de377,2022-09-08_14h10.39.221,CGTgamblingSpanTasks,2022.2.1,Win32,59.70505702,,,,,,,,,,,,,,,,,,,,,,,,,,,,,,,,,,,,,,,,,,,,,,,,,,,,,,,,,,,,,,,,,,,,,,,,,,,,,,,,,,,,,,,,,,,,,,,,,,,,,return,8.9581,,,,,,,,,,,,,,,,,,,,,,,,,,,,,,,,,
,,5f3c2648a9ef86a4c10de377,2022-09-08_14h10.39.221,CGTgamblingSpanTasks,2022.2.1,Win32,59.70505702,,,,,,,,,,,,,,,,,,,,,,,,,,,,,,,,,,,,,,,,,,,,,,,,,,,,,,,,,,,,,,,,,,,,,,,,,,,,,,,,,,,,,,,,,,,,,,,,,,,,,,,return,51.307,,,,,,,,,,,,,,,,,,,,,,,,,,,,,,,
,,5f3c2648a9ef86a4c10de377,2022-09-08_14h10.39.221,CGTgamblingSpanTasks,2022.2.1,Win32,59.70505702,,,,,,,,,,,,,,,,,,,,,,,,,,,,,,,,,,,,,,,,,,,,,,,,,,,,,,,,,,,,,,,0,,,,,,,,,,,,3,342,24,2,42,,,,,,,,,,,,,,,,,,,,,,,,,,24,-0.060185185,-0.426851852,1,0,0,cont_buttonPractice_2,0,0,0,0,1,,,,,,,,,,,,,,,,,,,
,,5f3c2648a9ef86a4c10de377,2022-09-08_14h10.39.221,CGTgamblingSpanTasks,2022.2.1,Win32,59.70505702,,,,,,,,,,,,,,,,,,,,,,,,,,,,,,,,,,,,,,,,,,,,,,,,,,,,,,,,,,,,,,,0,,,,,,,,,,,,3,937,73,2,37,,,,,,,,,,,,,,,,,,,,,,,,,,73,-0.049074074,-0.398148148,1,0,0,cont_buttonPractice_2,0,1,1,1,1,,,,,,,,,,,,,,,,,,,
,,5f3c2648a9ef86a4c10de377,2022-09-08_14h10.39.221,CGTgamblingSpanTasks,2022.2.1,Win32,59.70505702,,,,,,,,,,,,,,,,,,,,,,,,,,,,,,,,,,,,,,,,,,,,,,,,,,,,,,,,,,,,,,,,,,,,,,,,,,,,,,,,,,,,,,,,,,,,,,,,,,,,,,,,,,,,,,,,,,,,,return,6.9868,,,,,,,,,,,,,,,,,
,,5f3c2648a9ef86a4c10de377,2022-09-08_14h10.39.221,CGTgamblingSpanTasks,2022.2.1,Win32,59.70505702,,,,,,,,,,,,,,,,,,,,,,,,,,,,,,,,,,,,,,,,,,,,,,,,,,,,,,,,,,,,,,,,,,,,,,,,,,,,,,,,,,"[5,1]",,,,,,,,,,,,,,,,,,,,,,,,,,,,,,,,,,,,,0,0,0,0,1,,,,,,,,,,,,
,,5f3c2648a9ef86a4c10de377,2022-09-08_14h10.39.221,CGTgamblingSpanTasks,2022.2.1,Win32,59.70505702,,,,,,,,,,,,,,,,,,,,,,,,,,,,,,,,,,,,,,,,,,,,,,,,,,,,,,,,,,,,,,,,,,,,,,,,,,,,,,,,,,"[5,1]",,,,,,,,,,,,,,,,,,,,,,,,,,,,,,,,,,,,,1,0,1,0,1,,,,,,,,,,,,
,,5f3c2648a9ef86a4c10de377,2022-09-08_14h10.39.221,CGTgamblingSpanTasks,2022.2.1,Win32,59.70505702,,,,,,,,,,,,,,,,,,,,,,,,,,,,,,,,,,,,,,,,,,,,,,,,,,,,,,,,,,,,,,,1,,,,,,,,,,,,,,,,,,,,,,,,,,,,,,,,,,,,,1,,,,,,,,,,,,,,,,,,,,,,,,15,-0.110185185,-0.392592593,1,0,0,cont_buttonBS,0,0,0,0,1
,,5f3c2648a9ef86a4c10de377,2022-09-08_14h10.39.221,CGTgamblingSpanTasks,2022.2.1,Win32,59.70505702,,,,,,,,,,,,,,,,,,,,,,,,,,,,,,,,,,,,,,,,,,,,,,,,,,,,,,,,,,,,,,,,,,,,,,,,,,,,,,,,,,"[6,7,1]",,,,,,,,,,,,,,,,,,,,,,,,,,,,,,,,,,,,,0,0,0,0,1,,,,,,,,,,,,
,,5f3c2648a9ef86a4c10de377,2022-09-08_14h10.39.221,CGTgamblingSpanTasks,2022.2.1,Win32,59.70505702,,,,,,,,,,,,,,,,,,,,,,,,,,,,,,,,,,,,,,,,,,,,,,,,,,,,,,,,,,,,,,,,,,,,,,,,,,,,,,,,,,"[6,7,1]",,,,,,,,,,,,,,,,,,,,,,,,,,,,,,,,,,,,,1,0,1,0,1,,,,,,,,,,,,
,,5f3c2648a9ef86a4c10de377,2022-09-08_14h10.39.221,CGTgamblingSpanTasks,2022.2.1,Win32,59.70505702,,,,,,,,,,,,,,,,,,,,,,,,,,,,,,,,,,,,,,,,,,,,,,,,,,,,,,,,,,,,,,,,,,,,,,,,,,,,,,,,,,"[6,7,1]",,,,,,,,,,,,,,,,,,,,,,,,,,,,,,,,,,,,,2,0,2,0,1,,,,,,,,,,,,
,,5f3c2648a9ef86a4c10de377,2022-09-08_14h10.39.221,CGTgamblingSpanTasks,2022.2.1,Win32,59.70505702,,,,,,,,,,,,,,,,,,,,,,,,,,,,,,,,,,,,,,,,,,,,,,,,,,,,,,,,,,,,,,,1,,,,,,,,,,,,,,,,,,,,,,,,,,,,,,,,,,,,,2,,,,,,,,,,,,,,,,,,,,,,,,176,-0.022222222,-0.386111111,1,0,0,cont_buttonBS,0,1,1,1,1
,,5f3c2648a9ef86a4c10de377,2022-09-08_14h10.39.221,CGTgamblingSpanTasks,2022.2.1,Win32,59.70505702,,,,,,,,,,,,,,,,,,,,,,,,,,,,,,,,,,,,,,,,,,,,,,,,,,,,,,,,,,,,,,,,,,,,,,,,,,,,,,,,,,"[5,2,9,6]",,,,,,,,,,,,,,,,,,,,,,,,,,,,,,,,,,,,,0,0,0,0,1,,,,,,,,,,,,
,,5f3c2648a9ef86a4c10de377,2022-09-08_14h10.39.221,CGTgamblingSpanTasks,2022.2.1,Win32,59.70505702,,,,,,,,,,,,,,,,,,,,,,,,,,,,,,,,,,,,,,,,,,,,,,,,,,,,,,,,,,,,,,,,,,,,,,,,,,,,,,,,,,"[5,2,9,6]",,,,,,,,,,,,,,,,,,,,,,,,,,,,,,,,,,,,,1,0,1,0,1,,,,,,,,,,,,
,,5f3c2648a9ef86a4c10de377,2022-09-08_14h10.39.221,CGTgamblingSpanTasks,2022.2.1,Win32,59.70505702,,,,,,,,,,,,,,,,,,,,,,,,,,,,,,,,,,,,,,,,,,,,,,,,,,,,,,,,,,,,,,,,,,,,,,,,,,,,,,,,,,"[5,2,9,6]",,,,,,,,,,,,,,,,,,,,,,,,,,,,,,,,,,,,,2,0,2,0,1,,,,,,,,,,,,
,,5f3c2648a9ef86a4c10de377,2022-09-08_14h10.39.221,CGTgamblingSpanTasks,2022.2.1,Win32,59.70505702,,,,,,,,,,,,,,,,,,,,,,,,,,,,,,,,,,,,,,,,,,,,,,,,,,,,,,,,,,,,,,,,,,,,,,,,,,,,,,,,,,"[5,2,9,6]",,,,,,,,,,,,,,,,,,,,,,,,,,,,,,,,,,,,,3,0,3,0,1,,,,,,,,,,,,
,,5f3c2648a9ef86a4c10de377,2022-09-08_14h10.39.221,CGTgamblingSpanTasks,2022.2.1,Win32,59.70505702,,,,,,,,,,,,,,,,,,,,,,,,,,,,,,,,,,,,,,,,,,,,,,,,,,,,,,,,,,,,,,,1,,,,,,,,,,,,,,,,,,,,,,,,,,,,,,,,,,,,,3,,,,,,,,,,,,,,,,,,,,,,,,6925,-0.111111111,-0.391666667,1,0,0,cont_buttonBS,0,2,2,2,1
,,5f3c2648a9ef86a4c10de377,2022-09-08_14h10.39.221,CGTgamblingSpanTasks,2022.2.1,Win32,59.70505702,,,,,,,,,,,,,,,,,,,,,,,,,,,,,,,,,,,,,,,,,,,,,,,,,,,,,,,,,,,,,,,,,,,,,,,,,,,,,,,,,,"[4,3,6,7,5]",,,,,,,,,,,,,,,,,,,,,,,,,,,,,,,,,,,,,0,0,0,0,1,,,,,,,,,,,,
,,5f3c2648a9ef86a4c10de377,2022-09-08_14h10.39.221,CGTgamblingSpanTasks,2022.2.1,Win32,59.70505702,,,,,,,,,,,,,,,,,,,,,,,,,,,,,,,,,,,,,,,,,,,,,,,,,,,,,,,,,,,,,,,,,,,,,,,,,,,,,,,,,,"[4,3,6,7,5]",,,,,,,,,,,,,,,,,,,,,,,,,,,,,,,,,,,,,1,0,1,0,1,,,,,,,,,,,,
,,5f3c2648a9ef86a4c10de377,2022-09-08_14h10.39.221,CGTgamblingSpanTasks,2022.2.1,Win32,59.70505702,,,,,,,,,,,,,,,,,,,,,,,,,,,,,,,,,,,,,,,,,,,,,,,,,,,,,,,,,,,,,,,,,,,,,,,,,,,,,,,,,,"[4,3,6,7,5]",,,,,,,,,,,,,,,,,,,,,,,,,,,,,,,,,,,,,2,0,2,0,1,,,,,,,,,,,,
,,5f3c2648a9ef86a4c10de377,2022-09-08_14h10.39.221,CGTgamblingSpanTasks,2022.2.1,Win32,59.70505702,,,,,,,,,,,,,,,,,,,,,,,,,,,,,,,,,,,,,,,,,,,,,,,,,,,,,,,,,,,,,,,,,,,,,,,,,,,,,,,,,,"[4,3,6,7,5]",,,,,,,,,,,,,,,,,,,,,,,,,,,,,,,,,,,,,3,0,3,0,1,,,,,,,,,,,,
,,5f3c2648a9ef86a4c10de377,2022-09-08_14h10.39.221,CGTgamblingSpanTasks,2022.2.1,Win32,59.70505702,,,,,,,,,,,,,,,,,,,,,,,,,,,,,,,,,,,,,,,,,,,,,,,,,,,,,,,,,,,,,,,,,,,,,,,,,,,,,,,,,,"[4,3,6,7,5]",,,,,,,,,,,,,,,,,,,,,,,,,,,,,,,,,,,,,4,0,4,0,1,,,,,,,,,,,,
,,5f3c2648a9ef86a4c10de377,2022-09-08_14h10.39.221,CGTgamblingSpanTasks,2022.2.1,Win32,59.70505702,,,,,,,,,,,,,,,,,,,,,,,,,,,,,,,,,,,,,,,,,,,,,,,,,,,,,,,,,,,,,,,1,,,,,,,,,,,,,,,,,,,,,,,,,,,,,,,,,,,,,4,,,,,,,,,,,,,,,,,,,,,,,,57634,0.039814815,-0.380555556,1,0,0,cont_buttonBS,0,3,3,3,1
,,5f3c2648a9ef86a4c10de377,2022-09-08_14h10.39.221,CGTgamblingSpanTasks,2022.2.1,Win32,59.70505702,,,,,,,,,,,,,,,,,,,,,,,,,,,,,,,,,,,,,,,,,,,,,,,,,,,,,,,,,,,,,,,,,,,,,,,,,,,,,,,,,,"[3,1,4,6,2,7]",,,,,,,,,,,,,,,,,,,,,,,,,,,,,,,,,,,,,0,0,0,0,1,,,,,,,,,,,,
,,5f3c2648a9ef86a4c10de377,2022-09-08_14h10.39.221,CGTgamblingSpanTasks,2022.2.1,Win32,59.70505702,,,,,,,,,,,,,,,,,,,,,,,,,,,,,,,,,,,,,,,,,,,,,,,,,,,,,,,,,,,,,,,,,,,,,,,,,,,,,,,,,,"[3,1,4,6,2,7]",,,,,,,,,,,,,,,,,,,,,,,,,,,,,,,,,,,,,1,0,1,0,1,,,,,,,,,,,,
,,5f3c2648a9ef86a4c10de377,2022-09-08_14h10.39.221,CGTgamblingSpanTasks,2022.2.1,Win32,59.70505702,,,,,,,,,,,,,,,,,,,,,,,,,,,,,,,,,,,,,,,,,,,,,,,,,,,,,,,,,,,,,,,,,,,,,,,,,,,,,,,,,,"[3,1,4,6,2,7]",,,,,,,,,,,,,,,,,,,,,,,,,,,,,,,,,,,,,2,0,2,0,1,,,,,,,,,,,,
,,5f3c2648a9ef86a4c10de377,2022-09-08_14h10.39.221,CGTgamblingSpanTasks,2022.2.1,Win32,59.70505702,,,,,,,,,,,,,,,,,,,,,,,,,,,,,,,,,,,,,,,,,,,,,,,,,,,,,,,,,,,,,,,,,,,,,,,,,,,,,,,,,,"[3,1,4,6,2,7]",,,,,,,,,,,,,,,,,,,,,,,,,,,,,,,,,,,,,3,0,3,0,1,,,,,,,,,,,,
,,5f3c2648a9ef86a4c10de377,2022-09-08_14h10.39.221,CGTgamblingSpanTasks,2022.2.1,Win32,59.70505702,,,,,,,,,,,,,,,,,,,,,,,,,,,,,,,,,,,,,,,,,,,,,,,,,,,,,,,,,,,,,,,,,,,,,,,,,,,,,,,,,,"[3,1,4,6,2,7]",,,,,,,,,,,,,,,,,,,,,,,,,,,,,,,,,,,,,4,0,4,0,1,,,,,,,,,,,,
,,5f3c2648a9ef86a4c10de377,2022-09-08_14h10.39.221,CGTgamblingSpanTasks,2022.2.1,Win32,59.70505702,,,,,,,,,,,,,,,,,,,,,,,,,,,,,,,,,,,,,,,,,,,,,,,,,,,,,,,,,,,,,,,,,,,,,,,,,,,,,,,,,,"[3,1,4,6,2,7]",,,,,,,,,,,,,,,,,,,,,,,,,,,,,,,,,,,,,5,0,5,0,1,,,,,,,,,,,,
,,5f3c2648a9ef86a4c10de377,2022-09-08_14h10.39.221,CGTgamblingSpanTasks,2022.2.1,Win32,59.70505702,,,,,,,,,,,,,,,,,,,,,,,,,,,,,,,,,,,,,,,,,,,,,,,,,,,,,,,,,,,,,,,1,,,,,,,,,,,,,,,,,,,,,,,,,,,,,,,,,,,,,5,,,,,,,,,,,,,,,,,,,,,,,,726413,-0.107407407,-0.40462963,1,0,0,cont_buttonBS,0,4,4,4,1
,,5f3c2648a9ef86a4c10de377,2022-09-08_14h10.39.221,CGTgamblingSpanTasks,2022.2.1,Win32,59.70505702,,,,,,,,,,,,,,,,,,,,,,,,,,,,,,,,,,,,,,,,,,,,,,,,,,,,,,,,,,,,,,,,,,,,,,,,,,,,,,,,,,"[2,8,1,3,9,7,5]",,,,,,,,,,,,,,,,,,,,,,,,,,,,,,,,,,,,,0,0,0,0,1,,,,,,,,,,,,
,,5f3c2648a9ef86a4c10de377,2022-09-08_14h10.39.221,CGTgamblingSpanTasks,2022.2.1,Win32,59.70505702,,,,,,,,,,,,,,,,,,,,,,,,,,,,,,,,,,,,,,,,,,,,,,,,,,,,,,,,,,,,,,,,,,,,,,,,,,,,,,,,,,"[2,8,1,3,9,7,5]",,,,,,,,,,,,,,,,,,,,,,,,,,,,,,,,,,,,,1,0,1,0,1,,,,,,,,,,,,
,,5f3c2648a9ef86a4c10de377,2022-09-08_14h10.39.221,CGTgamblingSpanTasks,2022.2.1,Win32,59.70505702,,,,,,,,,,,,,,,,,,,,,,,,,,,,,,,,,,,,,,,,,,,,,,,,,,,,,,,,,,,,,,,,,,,,,,,,,,,,,,,,,,"[2,8,1,3,9,7,5]",,,,,,,,,,,,,,,,,,,,,,,,,,,,,,,,,,,,,2,0,2,0,1,,,,,,,,,,,,
,,5f3c2648a9ef86a4c10de377,2022-09-08_14h10.39.221,CGTgamblingSpanTasks,2022.2.1,Win32,59.70505702,,,,,,,,,,,,,,,,,,,,,,,,,,,,,,,,,,,,,,,,,,,,,,,,,,,,,,,,,,,,,,,,,,,,,,,,,,,,,,,,,,"[2,8,1,3,9,7,5]",,,,,,,,,,,,,,,,,,,,,,,,,,,,,,,,,,,,,3,0,3,0,1,,,,,,,,,,,,
,,5f3c2648a9ef86a4c10de377,2022-09-08_14h10.39.221,CGTgamblingSpanTasks,2022.2.1,Win32,59.70505702,,,,,,,,,,,,,,,,,,,,,,,,,,,,,,,,,,,,,,,,,,,,,,,,,,,,,,,,,,,,,,,,,,,,,,,,,,,,,,,,,,"[2,8,1,3,9,7,5]",,,,,,,,,,,,,,,,,,,,,,,,,,,,,,,,,,,,,4,0,4,0,1,,,,,,,,,,,,
,,5f3c2648a9ef86a4c10de377,2022-09-08_14h10.39.221,CGTgamblingSpanTasks,2022.2.1,Win32,59.70505702,,,,,,,,,,,,,,,,,,,,,,,,,,,,,,,,,,,,,,,,,,,,,,,,,,,,,,,,,,,,,,,,,,,,,,,,,,,,,,,,,,"[2,8,1,3,9,7,5]",,,,,,,,,,,,,,,,,,,,,,,,,,,,,,,,,,,,,5,0,5,0,1,,,,,,,,,,,,
,,5f3c2648a9ef86a4c10de377,2022-09-08_14h10.39.221,CGTgamblingSpanTasks,2022.2.1,Win32,59.70505702,,,,,,,,,,,,,,,,,,,,,,,,,,,,,,,,,,,,,,,,,,,,,,,,,,,,,,,,,,,,,,,,,,,,,,,,,,,,,,,,,,"[2,8,1,3,9,7,5]",,,,,,,,,,,,,,,,,,,,,,,,,,,,,,,,,,,,,6,0,6,0,1,,,,,,,,,,,,
,,5f3c2648a9ef86a4c10de377,2022-09-08_14h10.39.221,CGTgamblingSpanTasks,2022.2.1,Win32,59.70505702,,,,,,,,,,,,,,,,,,,,,,,,,,,,,,,,,,,,,,,,,,,,,,,,,,,,,,,,,,,,,,,1,,,,,,,,,,,,,,,,,,,,,,,,,,,,,,,,,,,,,6,,,,,,,,,,,,,,,,,,,,,,,,5793182,0.013888889,-0.414814815,1,0,0,cont_buttonBS,0,5,5,5,1
,,5f3c2648a9ef86a4c10de377,2022-09-08_14h10.39.221,CGTgamblingSpanTasks,2022.2.1,Win32,59.70505702,,,,,,,,,,,,,,,,,,,,,,,,,,,,,,,,,,,,,,,,,,,,,,,,,,,,,,,,,,,,,,,,,,,,,,,,,,,,,,,,,,"[5,7,6,9,8,1,3,2]",,,,,,,,,,,,,,,,,,,,,,,,,,,,,,,,,,,,,0,0,0,0,1,,,,,,,,,,,,
,,5f3c2648a9ef86a4c10de377,2022-09-08_14h10.39.221,CGTgamblingSpanTasks,2022.2.1,Win32,59.70505702,,,,,,,,,,,,,,,,,,,,,,,,,,,,,,,,,,,,,,,,,,,,,,,,,,,,,,,,,,,,,,,,,,,,,,,,,,,,,,,,,,"[5,7,6,9,8,1,3,2]",,,,,,,,,,,,,,,,,,,,,,,,,,,,,,,,,,,,,1,0,1,0,1,,,,,,,,,,,,
,,5f3c2648a9ef86a4c10de377,2022-09-08_14h10.39.221,CGTgamblingSpanTasks,2022.2.1,Win32,59.70505702,,,,,,,,,,,,,,,,,,,,,,,,,,,,,,,,,,,,,,,,,,,,,,,,,,,,,,,,,,,,,,,,,,,,,,,,,,,,,,,,,,"[5,7,6,9,8,1,3,2]",,,,,,,,,,,,,,,,,,,,,,,,,,,,,,,,,,,,,2,0,2,0,1,,,,,,,,,,,,
,,5f3c2648a9ef86a4c10de377,2022-09-08_14h10.39.221,CGTgamblingSpanTasks,2022.2.1,Win32,59.70505702,,,,,,,,,,,,,,,,,,,,,,,,,,,,,,,,,,,,,,,,,,,,,,,,,,,,,,,,,,,,,,,,,,,,,,,,,,,,,,,,,,"[5,7,6,9,8,1,3,2]",,,,,,,,,,,,,,,,,,,,,,,,,,,,,,,,,,,,,3,0,3,0,1,,,,,,,,,,,,
,,5f3c2648a9ef86a4c10de377,2022-09-08_14h10.39.221,CGTgamblingSpanTasks,2022.2.1,Win32,59.70505702,,,,,,,,,,,,,,,,,,,,,,,,,,,,,,,,,,,,,,,,,,,,,,,,,,,,,,,,,,,,,,,,,,,,,,,,,,,,,,,,,,"[5,7,6,9,8,1,3,2]",,,,,,,,,,,,,,,,,,,,,,,,,,,,,,,,,,,,,4,0,4,0,1,,,,,,,,,,,,
,,5f3c2648a9ef86a4c10de377,2022-09-08_14h10.39.221,CGTgamblingSpanTasks,2022.2.1,Win32,59.70505702,,,,,,,,,,,,,,,,,,,,,,,,,,,,,,,,,,,,,,,,,,,,,,,,,,,,,,,,,,,,,,,,,,,,,,,,,,,,,,,,,,"[5,7,6,9,8,1,3,2]",,,,,,,,,,,,,,,,,,,,,,,,,,,,,,,,,,,,,5,0,5,0,1,,,,,,,,,,,,
,,5f3c2648a9ef86a4c10de377,2022-09-08_14h10.39.221,CGTgamblingSpanTasks,2022.2.1,Win32,59.70505702,,,,,,,,,,,,,,,,,,,,,,,,,,,,,,,,,,,,,,,,,,,,,,,,,,,,,,,,,,,,,,,,,,,,,,,,,,,,,,,,,,"[5,7,6,9,8,1,3,2]",,,,,,,,,,,,,,,,,,,,,,,,,,,,,,,,,,,,,6,0,6,0,1,,,,,,,,,,,,
,,5f3c2648a9ef86a4c10de377,2022-09-08_14h10.39.221,CGTgamblingSpanTasks,2022.2.1,Win32,59.70505702,,,,,,,,,,,,,,,,,,,,,,,,,,,,,,,,,,,,,,,,,,,,,,,,,,,,,,,,,,,,,,,,,,,,,,,,,,,,,,,,,,"[5,7,6,9,8,1,3,2]",,,,,,,,,,,,,,,,,,,,,,,,,,,,,,,,,,,,,7,0,7,0,1,,,,,,,,,,,,
,,5f3c2648a9ef86a4c10de377,2022-09-08_14h10.39.221,CGTgamblingSpanTasks,2022.2.1,Win32,59.70505702,,,,,,,,,,,,,,,,,,,,,,,,,,,,,,,,,,,,,,,,,,,,,,,,,,,,,,,,,,,,,,,0,,,,,,,,,,,,,,,,,,,,,,,,,,,,,,,,,,,,,7,,,,,,,,,,,,,,,,,,,,,,,,23198756,0.050925926,-0.417592593,1,0,0,cont_buttonBS,0,6,6,6,1
,,5f3c2648a9ef86a4c10de377,2022-09-08_14h10.39.221,CGTgamblingSpanTasks,2022.2.1,Win32,59.70505702,,,,,,,,,,,,,,,,,,,,,,,,,,,,,,,,,,,,,,,,,,,,,,,,,,,,,,,,,,,,,,,,,,,,,,,,,,,,,,,,,,"[7,5,6,4,1,8,2,3]",,,,,,,,,,,,,,,,,,,,,,,,,,,,,,,,,,,,,0,0,0,0,1,,,,,,,,,,,,
,,5f3c2648a9ef86a4c10de377,2022-09-08_14h10.39.221,CGTgamblingSpanTasks,2022.2.1,Win32,59.70505702,,,,,,,,,,,,,,,,,,,,,,,,,,,,,,,,,,,,,,,,,,,,,,,,,,,,,,,,,,,,,,,,,,,,,,,,,,,,,,,,,,"[7,5,6,4,1,8,2,3]",,,,,,,,,,,,,,,,,,,,,,,,,,,,,,,,,,,,,1,0,1,0,1,,,,,,,,,,,,
,,5f3c2648a9ef86a4c10de377,2022-09-08_14h10.39.221,CGTgamblingSpanTasks,2022.2.1,Win32,59.70505702,,,,,,,,,,,,,,,,,,,,,,,,,,,,,,,,,,,,,,,,,,,,,,,,,,,,,,,,,,,,,,,,,,,,,,,,,,,,,,,,,,"[7,5,6,4,1,8,2,3]",,,,,,,,,,,,,,,,,,,,,,,,,,,,,,,,,,,,,2,0,2,0,1,,,,,,,,,,,,
,,5f3c2648a9ef86a4c10de377,2022-09-08_14h10.39.221,CGTgamblingSpanTasks,2022.2.1,Win32,59.70505702,,,,,,,,,,,,,,,,,,,,,,,,,,,,,,,,,,,,,,,,,,,,,,,,,,,,,,,,,,,,,,,,,,,,,,,,,,,,,,,,,,"[7,5,6,4,1,8,2,3]",,,,,,,,,,,,,,,,,,,,,,,,,,,,,,,,,,,,,3,0,3,0,1,,,,,,,,,,,,
,,5f3c2648a9ef86a4c10de377,2022-09-08_14h10.39.221,CGTgamblingSpanTasks,2022.2.1,Win32,59.70505702,,,,,,,,,,,,,,,,,,,,,,,,,,,,,,,,,,,,,,,,,,,,,,,,,,,,,,,,,,,,,,,,,,,,,,,,,,,,,,,,,,"[7,5,6,4,1,8,2,3]",,,,,,,,,,,,,,,,,,,,,,,,,,,,,,,,,,,,,4,0,4,0,1,,,,,,,,,,,,
,,5f3c2648a9ef86a4c10de377,2022-09-08_14h10.39.221,CGTgamblingSpanTasks,2022.2.1,Win32,59.70505702,,,,,,,,,,,,,,,,,,,,,,,,,,,,,,,,,,,,,,,,,,,,,,,,,,,,,,,,,,,,,,,,,,,,,,,,,,,,,,,,,,"[7,5,6,4,1,8,2,3]",,,,,,,,,,,,,,,,,,,,,,,,,,,,,,,,,,,,,5,0,5,0,1,,,,,,,,,,,,
