initITIstatic,initITIdynamic,participant,date,expName,psychopyVersion,OS,frameRate,inst1.keys,inst1.rt,startPracResp.keys,startPracResp.rt,choice1.keys,choice1.rt,outcome,extraITI,trials.thisRepN,trials.thisTrialN,trials.thisN,trials.thisIndex,trials.ran,riskyGain,riskyLoss,alternative,isi,iti,loc,postPractResp.keys,postPractResp.rt,realloc,realChoice.keys,realChoice.rt,outcomes,choices,actualITI,init ITI,staticRDM.thisRepN,staticRDM.thisTrialN,staticRDM.thisN,staticRDM.thisIndex,staticRDM.ran,riskyoption1,riskyoption2,safeoption,ischecktrial,dynamicChoiceSetName,dynamicChoiceSetPath,bestRho,bestMu,trials_2.thisRepN,trials_2.thisTrialN,trials_2.thisN,trials_2.thisIndex,trials_2.ran,key_resp.keys,key_resp.rt,dynamicRDM.thisRepN,dynamicRDM.thisTrialN,dynamicRDM.thisN,dynamicRDM.thisIndex,dynamicRDM.ran,choiceP,easy0difficult1,stopBreak.keys,stopBreak.rt,movealong.keys,movealong.rt,startPractice.keys,startPractice.rt,textboxPractice.text,correct,mousePractice.x,mousePractice.y,mousePractice.leftButton,mousePractice.midButton,mousePractice.rightButton,mousePractice.clicked_name,trialFSPractice.thisRepN,trialFSPractice.thisTrialN,trialFSPractice.thisN,trialFSPractice.thisIndex,trialFSPractice.ran,digitSpanForward,digits,digitsReverse,digitSpanReverse,digitsReverseCorrAnswer,startFSreal.keys,startFSreal.rt,digitsForTrial,digitLoop.thisRepN,digitLoop.thisTrialN,digitLoop.thisN,digitLoop.thisIndex,digitLoop.ran,textbox.text,mouse_3.x,mouse_3.y,mouse_3.leftButton,mouse_3.midButton,mouse_3.rightButton,mouse_3.clicked_name,trialsFS.thisRepN,trialsFS.thisTrialN,trialsFS.thisN,trialsFS.thisIndex,trialsFS.ran,trialNumber,moveToBS.keys,moveToBS.rt,startBSprac.keys,startBSprac.rt,textboxPractice_2.text,mousePractice_2.x,mousePractice_2.y,mousePractice_2.leftButton,mousePractice_2.midButton,mousePractice_2.rightButton,mousePractice_2.clicked_name,trialsPracticeBS.thisRepN,trialsPracticeBS.thisTrialN,trialsPracticeBS.thisN,trialsPracticeBS.thisIndex,trialsPracticeBS.ran,startBSreal.keys,startBSreal.rt,digitLoopBS.thisRepN,digitLoopBS.thisTrialN,digitLoopBS.thisN,digitLoopBS.thisIndex,digitLoopBS.ran,textboxBS.text,mouseBS.x,mouseBS.y,mouseBS.leftButton,mouseBS.midButton,mouseBS.rightButton,mouseBS.clicked_name,trialsBS.thisRepN,trialsBS.thisTrialN,trialsBS.thisN,trialsBS.thisIndex,trialsBS.ran
"[1,1.5,1,1,1.5,1,1,1.5,1,1.5,1.5,1,1.5,1.5,1,1,1.5,1.5,1.5,1.5,1.5,1,1,1.5,1,1,1,1.5,1.5,1.5,1,1,1,1,1.5,1.5,1.5,1.5,1,1,1,1,1.5,1,1,1,1.5,1.5,1.5,1.5]","[1.5,1.5,1,1.5,1,1.5,1.5,1.5,1.5,1,1,1,1,1,1.5,1,1,1,1.5,1,1,1.5,1,1.5,1.5,1.5,1,1.5,1,1,1,1,1.5,1,1,1.5,1.5,1.5,1,1,1.5,1,1.5,1.5,1,1,1,1.5,1,1.5,1,1.5,1.5,1.5,1.5,1.5,1,1,1.5,1.5,1,1.5,1.5,1,1.5,1.5,1,1.5,1,1.5,1.5,1,1,1.5,1,1,1.5,1,1,1,1,1.5,1.5,1.5,1.5,1.5,1,1.5,1.5,1.5,1.5,1,1.5,1,1.5,1.5,1.5,1,1.5,1.5,1,1,1,1,1,1.5,1.5,1.5,1,1,1,1.5,1.5,1.5,1,1,1,1,1,1]",5e0e16d70db892559eb23487,2022-08-30_09h34.18.598,CGTgamblingSpanTasks,2022.2.1,MacIntel,59.99520038,,,,,,,,,,,,,,,,,,,,,,,,,,,,,,,,,,,,,,,,,,,,,,,,,,,,,,,,,,,,,,,,,,,,,,,,,,,,,,,,,,,,,,,,,,,,,,,,,,,,,,,,,,,,,,,,,,,,,,,,,,,,,,,,,,,,,,,
,,5e0e16d70db892559eb23487,2022-08-30_09h34.18.598,CGTgamblingSpanTasks,2022.2.1,MacIntel,59.99520038,return,0.7957,,,,,,,,,,,,,,,,,,,,,,,,,,,,,,,,,,,,,,,,,,,,,,,,,,,,,,,,,,,,,,,,,,,,,,,,,,,,,,,,,,,,,,,,,,,,,,,,,,,,,,,,,,,,,,,,,,,,,,,,,,,,,,,,,,,,,
,,5e0e16d70db892559eb23487,2022-08-30_09h34.18.598,CGTgamblingSpanTasks,2022.2.1,MacIntel,59.99520038,,,v,0.3154,,,,,,,,,,,,,,,,,,,,,,,,,,,,,,,,,,,,,,,,,,,,,,,,,,,,,,,,,,,,,,,,,,,,,,,,,,,,,,,,,,,,,,,,,,,,,,,,,,,,,,,,,,,,,,,,,,,,,,,,,,,,,,,,,,,
,,5e0e16d70db892559eb23487,2022-08-30_09h34.18.598,CGTgamblingSpanTasks,2022.2.1,MacIntel,59.99520038,,,,,v,0.7469,18.23,3.2531,0,0,0,0,1,18.23,0,9.45,2,1,1,,,,,,,,,,,,,,,,,,,,,,,,,,,,,,,,,,,,,,,,,,,,,,,,,,,,,,,,,,,,,,,,,,,,,,,,,,,,,,,,,,,,,,,,,,,,,,,,,,,,,,,,,,,,,,,,,,,,
,,5e0e16d70db892559eb23487,2022-08-30_09h34.18.598,CGTgamblingSpanTasks,2022.2.1,MacIntel,59.99520038,,,,,n,0.5498,35.16,3.4502,0,1,1,1,1,53.27,0,35.16,1,1.5,1,,,,,,,,,,,,,,,,,,,,,,,,,,,,,,,,,,,,,,,,,,,,,,,,,,,,,,,,,,,,,,,,,,,,,,,,,,,,,,,,,,,,,,,,,,,,,,,,,,,,,,,,,,,,,,,,,,,,
,,5e0e16d70db892559eb23487,2022-08-30_09h34.18.598,CGTgamblingSpanTasks,2022.2.1,MacIntel,59.99520038,,,,,v,0.4952,1.15,3.5048,0,2,2,2,1,8.27,0,1.15,1,1.5,2,,,,,,,,,,,,,,,,,,,,,,,,,,,,,,,,,,,,,,,,,,,,,,,,,,,,,,,,,,,,,,,,,,,,,,,,,,,,,,,,,,,,,,,,,,,,,,,,,,,,,,,,,,,,,,,,,,,,
,,5e0e16d70db892559eb23487,2022-08-30_09h34.18.598,CGTgamblingSpanTasks,2022.2.1,MacIntel,59.99520038,,,,,n,2.0315,40.41,1.9685,0,3,3,3,1,45.88,0,40.41,3,1,1,,,,,,,,,,,,,,,,,,,,,,,,,,,,,,,,,,,,,,,,,,,,,,,,,,,,,,,,,,,,,,,,,,,,,,,,,,,,,,,,,,,,,,,,,,,,,,,,,,,,,,,,,,,,,,,,,,,,
,,5e0e16d70db892559eb23487,2022-08-30_09h34.18.598,CGTgamblingSpanTasks,2022.2.1,MacIntel,59.99520038,,,,,v,0.95,11.96,3.05,0,4,4,4,1,21.56,0,11.96,1,1.5,2,,,,,,,,,,,,,,,,,,,,,,,,,,,,,,,,,,,,,,,,,,,,,,,,,,,,,,,,,,,,,,,,,,,,,,,,,,,,,,,,,,,,,,,,,,,,,,,,,,,,,,,,,,,,,,,,,,,,
,,5e0e16d70db892559eb23487,2022-08-30_09h34.18.598,CGTgamblingSpanTasks,2022.2.1,MacIntel,59.99520038,,,,,,,,,,,,,,,,,,,,v,1.2397,,,,,,,,,,,,,,,,,,,,,,,,,,,,,,,,,,,,,,,,,,,,,,,,,,,,,,,,,,,,,,,,,,,,,,,,,,,,,,,,,,,,,,,,,,,,,,,,,,,,,,,,,,,,,,,,,,
,,5e0e16d70db892559eb23487,2022-08-30_09h34.18.598,CGTgamblingSpanTasks,2022.2.1,MacIntel,59.99520038,,,,,,,,3.3876,,,,,,,,,,,,,,2,v,0.6124,5.4,0,4.3876,1,0,0,0,3,1,25.2,0,5.4,0,,,,,,,,,,,,,,,,,,,,,,,,,,,,,,,,,,,,,,,,,,,,,,,,,,,,,,,,,,,,,,,,,,,,,,,,,,,,,,,,,,,,,,,,,,,,,,,,,,
,,5e0e16d70db892559eb23487,2022-08-30_09h34.18.598,CGTgamblingSpanTasks,2022.2.1,MacIntel,59.99520038,,,,,,,,3.3332,,,,,,,,,,,,,,2,n,0.6668,20.03,1,4.8332,1.5,0,1,1,0,1,20.03,0,1.99,0,,,,,,,,,,,,,,,,,,,,,,,,,,,,,,,,,,,,,,,,,,,,,,,,,,,,,,,,,,,,,,,,,,,,,,,,,,,,,,,,,,,,,,,,,,,,,,,,,,
,,5e0e16d70db892559eb23487,2022-08-30_09h34.18.598,CGTgamblingSpanTasks,2022.2.1,MacIntel,59.99520038,,,,,,,,3.2987,,,,,,,,,,,,,,1,v,0.7013,28.21,1,4.2987,1,0,2,2,1,1,28.21,0,3.89,0,,,,,,,,,,,,,,,,,,,,,,,,,,,,,,,,,,,,,,,,,,,,,,,,,,,,,,,,,,,,,,,,,,,,,,,,,,,,,,,,,,,,,,,,,,,,,,,,,,
,,5e0e16d70db892559eb23487,2022-08-30_09h34.18.598,CGTgamblingSpanTasks,2022.2.1,MacIntel,59.99520038,,,,,,,,3.1748,,,,,,,,,,,,,,1,n,0.8252,3.13,0,4.1748,1,0,3,3,2,1,17.73,0,3.13,0,,,,,,,,,,,,,,,,,,,,,,,,,,,,,,,,,,,,,,,,,,,,,,,,,,,,,,,,,,,,,,,,,,,,,,,,,,,,,,,,,,,,,,,,,,,,,,,,,,
,,5e0e16d70db892559eb23487,2022-08-30_09h34.18.598,CGTgamblingSpanTasks,2022.2.1,MacIntel,59.99520038,,,,,,,,,,,,,,,,,,,,,,,,,,,,,,,,,,,,,,bespoke_choiceset_rhoInd009_muInd201.csv,bespoke_choicesets/bespoke_choiceset_rhoInd009_muInd201.csv,9,201,0,0,0,0,1,,,,,,,,,,,,,,,,,,,,,,,,,,,,,,,,,,,,,,,,,,,,,,,,,,,,,,,,,,,,,,,,,,,,,,,,,,,,,,,,,,,,,,,,,
,,5e0e16d70db892559eb23487,2022-08-30_09h34.18.598,CGTgamblingSpanTasks,2022.2.1,MacIntel,59.99520038,,,,,,,,,,,,,,,,,,,,,,,,,,,,,,,,,,,,,,,,,,,,,,,,,,,,,,,,,,,,,,,,,,,,,,,,,,,,,,,,,,,,,,,,,,,,,,,,,,,,,,,,,,,,,,,,,,,,,,,,,,,,,,,,,,,,,,,
,,5e0e16d70db892559eb23487,2022-08-30_09h34.18.598,CGTgamblingSpanTasks,2022.2.1,MacIntel,59.99520038,,,,,,,,,,,,,,,,,,,,,,,,,,,,,,,,,,,,,,,,,,,,,,,n,0.6494,,,,,,,,,,,,,,,,,,,,,,,,,,,,,,,,,,,,,,,,,,,,,,,,,,,,,,,,,,,,,,,,,,,,,,,,,,,,,,,,,,,,,,,
,,5e0e16d70db892559eb23487,2022-08-30_09h34.18.598,CGTgamblingSpanTasks,2022.2.1,MacIntel,59.99520038,,,,,,,,2.965,,,,,,,,,,,,,,1,v,1.035,0,1,4.465,1.5,,,,,,19.30622782,0,10.31611309,,,,,,,,,,,,,0,0,0,1,1,0.091105656,0,,,,,,,,,,,,,,,,,,,,,,,,,,,,,,,,,,,,,,,,,,,,,,,,,,,,,,,,,,,,,,,,,,,,,,,,,,,,,,,,
,,5e0e16d70db892559eb23487,2022-08-30_09h34.18.598,CGTgamblingSpanTasks,2022.2.1,MacIntel,59.99520038,,,,,,,,3.0869,,,,,,,,,,,,,,2,n,0.9131,0,1,4.5869,1.5,,,,,,21.03408097,0,2.208275162,,,,,,,,,,,,,0,1,1,0,1,0.485031246,1,,,,,,,,,,,,,,,,,,,,,,,,,,,,,,,,,,,,,,,,,,,,,,,,,,,,,,,,,,,,,,,,,,,,,,,,,,,,,,,,
,,5e0e16d70db892559eb23487,2022-08-30_09h34.18.598,CGTgamblingSpanTasks,2022.2.1,MacIntel,59.99520038,,,,,,,,2.6524,,,,,,,,,,,,,,1,v,1.3476,20.97851654,1,3.6524,1,,,,,,20.97851654,0,11.39288827,,,,,,,,,,,,,0,2,2,2,1,0.088791079,0,,,,,,,,,,,,,,,,,,,,,,,,,,,,,,,,,,,,,,,,,,,,,,,,,,,,,,,,,,,,,,,,,,,,,,,,,,,,,,,,
,,5e0e16d70db892559eb23487,2022-08-30_09h34.18.598,CGTgamblingSpanTasks,2022.2.1,MacIntel,59.99520038,,,,,,,,3.3508,,,,,,,,,,,,,,1,n,0.6492,0.072474078,0,4.8508,1.5,,,,,,21.39646914,0,0.072474078,,,,,,,,,,,,,0,3,3,3,1,0.902848133,0,,,,,,,,,,,,,,,,,,,,,,,,,,,,,,,,,,,,,,,,,,,,,,,,,,,,,,,,,,,,,,,,,,,,,,,,,,,,,,,,
,,5e0e16d70db892559eb23487,2022-08-30_09h34.18.598,CGTgamblingSpanTasks,2022.2.1,MacIntel,59.99520038,,,,,,,,,,,,,,,,,,,,,,,,,,,,,,,,,,,,,,,,,,,,,,,,,,,,,,,,return,2.8055,,,,,,,,,,,,,,,,,,,,,,,,,,,,,,,,,,,,,,,,,,,,,,,,,,,,,,,,,,,,,,,,,,,,,,,,,,,,,,
,,5e0e16d70db892559eb23487,2022-08-30_09h34.18.598,CGTgamblingSpanTasks,2022.2.1,MacIntel,59.99520038,,,,,,,,,,,,,,,,,,,,,,,,,,,,,,,,,,,,,,,,,,,,,,,,,,,,,,,,,,return,0.4174,,,,,,,,,,,,,,,,,,,,,,,,,,,,,,,,,,,,,,,,,,,,,,,,,,,,,,,,,,,,,,,,,,,,,,,,,,,,
,,5e0e16d70db892559eb23487,2022-08-30_09h34.18.598,CGTgamblingSpanTasks,2022.2.1,MacIntel,59.99520038,,,,,,,,,,,,,,,,,,,,,,,,,,,,,,,,,,,,,,,,,,,,,,,,,,,,,,,,,,,,return,0.509,,,,,,,,,,,,,,,,,,,,,,,,,,,,,,,,,,,,,,,,,,,,,,,,,,,,,,,,,,,,,,,,,,,,,,,,,,
,,5e0e16d70db892559eb23487,2022-08-30_09h34.18.598,CGTgamblingSpanTasks,2022.2.1,MacIntel,59.99520038,,,,,,,,,,,,,,,,,,,,,,,,,,,,,,,,,,,,,,,,,,,,,,,,,,,,,,,,,,,,,,342,1,0.071808511,-0.377659574,1,0,0,cont_buttonPractice,0,0,0,0,1,3,342,24,2,42,,,,,,,,,,,,,,,,,,,,,,,,,,,,,,,,,,,,,,,,,,,,,,,,,,,,,,,,
,,5e0e16d70db892559eb23487,2022-08-30_09h34.18.598,CGTgamblingSpanTasks,2022.2.1,MacIntel,59.99520038,,,,,,,,,,,,,,,,,,,,,,,,,,,,,,,,,,,,,,,,,,,,,,,,,,,,,,,,,,,,,,937,1,0.071808511,-0.377659574,1,0,0,cont_buttonPractice,0,1,1,1,1,3,937,73,2,37,,,,,,,,,,,,,,,,,,,,,,,,,,,,,,,,,,,,,,,,,,,,,,,,,,,,,,,,
,,5e0e16d70db892559eb23487,2022-08-30_09h34.18.598,CGTgamblingSpanTasks,2022.2.1,MacIntel,59.99520038,,,,,,,,,,,,,,,,,,,,,,,,,,,,,,,,,,,,,,,,,,,,,,,,,,,,,,,,,,,,,,,,,,,,,,,,,,,,,,,,return,1.3438,,,,,,,,,,,,,,,,,,,,,,,,,,,,,,,,,,,,,,,,,,,,,,,,,,,,,,
,,5e0e16d70db892559eb23487,2022-08-30_09h34.18.598,CGTgamblingSpanTasks,2022.2.1,MacIntel,59.99520038,,,,,,,,,,,,,,,,,,,,,,,,,,,,,,,,,,,,,,,,,,,,,,,,,,,,,,,,,,,,,,,,,,,,,,,,,,,,,,,,,,"[6,9,8]",0,0,0,0,1,,,,,,,,,,,,,,,,,,,,,,,,,,,,,,,,,,,,,,,,,,,,,,,,
,,5e0e16d70db892559eb23487,2022-08-30_09h34.18.598,CGTgamblingSpanTasks,2022.2.1,MacIntel,59.99520038,,,,,,,,,,,,,,,,,,,,,,,,,,,,,,,,,,,,,,,,,,,,,,,,,,,,,,,,,,,,,,,,,,,,,,,,,,,,,,,,,,"[6,9,8]",1,0,1,0,1,,,,,,,,,,,,,,,,,,,,,,,,,,,,,,,,,,,,,,,,,,,,,,,,
,,5e0e16d70db892559eb23487,2022-08-30_09h34.18.598,CGTgamblingSpanTasks,2022.2.1,MacIntel,59.99520038,,,,,,,,,,,,,,,,,,,,,,,,,,,,,,,,,,,,,,,,,,,,,,,,,,,,,,,,,,,,,,,,,,,,,,,,,,,,,,,,,,"[6,9,8]",2,0,2,0,1,,,,,,,,,,,,,,,,,,,,,,,,,,,,,,,,,,,,,,,,,,,,,,,,
,,5e0e16d70db892559eb23487,2022-08-30_09h34.18.598,CGTgamblingSpanTasks,2022.2.1,MacIntel,59.99520038,,,,,,,,,,,,,,,,,,,,,,,,,,,,,,,,,,,,,,,,,,,,,,,,,,,,,,,,,,,,,,,1,,,,,,,,,,,,,,,,,,,,,,,,,698,0.071808511,-0.377659574,1,0,0,cont_button,0,0,0,0,1,1,,,,,,,,,,,,,,,,,,,,,,,,,,,,,,,,,,,
,,5e0e16d70db892559eb23487,2022-08-30_09h34.18.598,CGTgamblingSpanTasks,2022.2.1,MacIntel,59.99520038,,,,,,,,,,,,,,,,,,,,,,,,,,,,,,,,,,,,,,,,,,,,,,,,,,,,,,,,,,,,,,,,,,,,,,,,,,,,,,,,,,"[4,1,7,8]",0,0,0,0,1,,,,,,,,,,,,,,,,,,,,,,,,,,,,,,,,,,,,,,,,,,,,,,,,
,,5e0e16d70db892559eb23487,2022-08-30_09h34.18.598,CGTgamblingSpanTasks,2022.2.1,MacIntel,59.99520038,,,,,,,,,,,,,,,,,,,,,,,,,,,,,,,,,,,,,,,,,,,,,,,,,,,,,,,,,,,,,,,,,,,,,,,,,,,,,,,,,,"[4,1,7,8]",1,0,1,0,1,,,,,,,,,,,,,,,,,,,,,,,,,,,,,,,,,,,,,,,,,,,,,,,,
,,5e0e16d70db892559eb23487,2022-08-30_09h34.18.598,CGTgamblingSpanTasks,2022.2.1,MacIntel,59.99520038,,,,,,,,,,,,,,,,,,,,,,,,,,,,,,,,,,,,,,,,,,,,,,,,,,,,,,,,,,,,,,,,,,,,,,,,,,,,,,,,,,"[4,1,7,8]",2,0,2,0,1,,,,,,,,,,,,,,,,,,,,,,,,,,,,,,,,,,,,,,,,,,,,,,,,
,,5e0e16d70db892559eb23487,2022-08-30_09h34.18.598,CGTgamblingSpanTasks,2022.2.1,MacIntel,59.99520038,,,,,,,,,,,,,,,,,,,,,,,,,,,,,,,,,,,,,,,,,,,,,,,,,,,,,,,,,,,,,,,,,,,,,,,,,,,,,,,,,,"[4,1,7,8]",3,0,3,0,1,,,,,,,,,,,,,,,,,,,,,,,,,,,,,,,,,,,,,,,,,,,,,,,,
,,5e0e16d70db892559eb23487,2022-08-30_09h34.18.598,CGTgamblingSpanTasks,2022.2.1,MacIntel,59.99520038,,,,,,,,,,,,,,,,,,,,,,,,,,,,,,,,,,,,,,,,,,,,,,,,,,,,,,,,,,,,,,,1,,,,,,,,,,,,,,,,,,,,,,,,,4178,0.071808511,-0.377659574,1,0,0,cont_button,0,1,1,1,1,2,,,,,,,,,,,,,,,,,,,,,,,,,,,,,,,,,,,
,,5e0e16d70db892559eb23487,2022-08-30_09h34.18.598,CGTgamblingSpanTasks,2022.2.1,MacIntel,59.99520038,,,,,,,,,,,,,,,,,,,,,,,,,,,,,,,,,,,,,,,,,,,,,,,,,,,,,,,,,,,,,,,,,,,,,,,,,,,,,,,,,,"[8,5,6,4,2]",0,0,0,0,1,,,,,,,,,,,,,,,,,,,,,,,,,,,,,,,,,,,,,,,,,,,,,,,,
,,5e0e16d70db892559eb23487,2022-08-30_09h34.18.598,CGTgamblingSpanTasks,2022.2.1,MacIntel,59.99520038,,,,,,,,,,,,,,,,,,,,,,,,,,,,,,,,,,,,,,,,,,,,,,,,,,,,,,,,,,,,,,,,,,,,,,,,,,,,,,,,,,"[8,5,6,4,2]",1,0,1,0,1,,,,,,,,,,,,,,,,,,,,,,,,,,,,,,,,,,,,,,,,,,,,,,,,
,,5e0e16d70db892559eb23487,2022-08-30_09h34.18.598,CGTgamblingSpanTasks,2022.2.1,MacIntel,59.99520038,,,,,,,,,,,,,,,,,,,,,,,,,,,,,,,,,,,,,,,,,,,,,,,,,,,,,,,,,,,,,,,,,,,,,,,,,,,,,,,,,,"[8,5,6,4,2]",2,0,2,0,1,,,,,,,,,,,,,,,,,,,,,,,,,,,,,,,,,,,,,,,,,,,,,,,,
,,5e0e16d70db892559eb23487,2022-08-30_09h34.18.598,CGTgamblingSpanTasks,2022.2.1,MacIntel,59.99520038,,,,,,,,,,,,,,,,,,,,,,,,,,,,,,,,,,,,,,,,,,,,,,,,,,,,,,,,,,,,,,,,,,,,,,,,,,,,,,,,,,"[8,5,6,4,2]",3,0,3,0,1,,,,,,,,,,,,,,,,,,,,,,,,,,,,,,,,,,,,,,,,,,,,,,,,
,,5e0e16d70db892559eb23487,2022-08-30_09h34.18.598,CGTgamblingSpanTasks,2022.2.1,MacIntel,59.99520038,,,,,,,,,,,,,,,,,,,,,,,,,,,,,,,,,,,,,,,,,,,,,,,,,,,,,,,,,,,,,,,,,,,,,,,,,,,,,,,,,,"[8,5,6,4,2]",4,0,4,0,1,,,,,,,,,,,,,,,,,,,,,,,,,,,,,,,,,,,,,,,,,,,,,,,,
,,5e0e16d70db892559eb23487,2022-08-30_09h34.18.598,CGTgamblingSpanTasks,2022.2.1,MacIntel,59.99520038,,,,,,,,,,,,,,,,,,,,,,,,,,,,,,,,,,,,,,,,,,,,,,,,,,,,,,,,,,,,,,,1,,,,,,,,,,,,,,,,,,,,,,,,,85642,0.071808511,-0.370567376,1,0,0,cont_button,0,2,2,2,1,3,,,,,,,,,,,,,,,,,,,,,,,,,,,,,,,,,,,
,,5e0e16d70db892559eb23487,2022-08-30_09h34.18.598,CGTgamblingSpanTasks,2022.2.1,MacIntel,59.99520038,,,,,,,,,,,,,,,,,,,,,,,,,,,,,,,,,,,,,,,,,,,,,,,,,,,,,,,,,,,,,,,,,,,,,,,,,,,,,,,,,,"[3,5,9,6,8,2]",0,0,0,0,1,,,,,,,,,,,,,,,,,,,,,,,,,,,,,,,,,,,,,,,,,,,,,,,,
,,5e0e16d70db892559eb23487,2022-08-30_09h34.18.598,CGTgamblingSpanTasks,2022.2.1,MacIntel,59.99520038,,,,,,,,,,,,,,,,,,,,,,,,,,,,,,,,,,,,,,,,,,,,,,,,,,,,,,,,,,,,,,,,,,,,,,,,,,,,,,,,,,"[3,5,9,6,8,2]",1,0,1,0,1,,,,,,,,,,,,,,,,,,,,,,,,,,,,,,,,,,,,,,,,,,,,,,,,
,,5e0e16d70db892559eb23487,2022-08-30_09h34.18.598,CGTgamblingSpanTasks,2022.2.1,MacIntel,59.99520038,,,,,,,,,,,,,,,,,,,,,,,,,,,,,,,,,,,,,,,,,,,,,,,,,,,,,,,,,,,,,,,,,,,,,,,,,,,,,,,,,,"[3,5,9,6,8,2]",2,0,2,0,1,,,,,,,,,,,,,,,,,,,,,,,,,,,,,,,,,,,,,,,,,,,,,,,,
,,5e0e16d70db892559eb23487,2022-08-30_09h34.18.598,CGTgamblingSpanTasks,2022.2.1,MacIntel,59.99520038,,,,,,,,,,,,,,,,,,,,,,,,,,,,,,,,,,,,,,,,,,,,,,,,,,,,,,,,,,,,,,,,,,,,,,,,,,,,,,,,,,"[3,5,9,6,8,2]",3,0,3,0,1,,,,,,,,,,,,,,,,,,,,,,,,,,,,,,,,,,,,,,,,,,,,,,,,
,,5e0e16d70db892559eb23487,2022-08-30_09h34.18.598,CGTgamblingSpanTasks,2022.2.1,MacIntel,59.99520038,,,,,,,,,,,,,,,,,,,,,,,,,,,,,,,,,,,,,,,,,,,,,,,,,,,,,,,,,,,,,,,,,,,,,,,,,,,,,,,,,,"[3,5,9,6,8,2]",4,0,4,0,1,,,,,,,,,,,,,,,,,,,,,,,,,,,,,,,,,,,,,,,,,,,,,,,,
,,5e0e16d70db892559eb23487,2022-08-30_09h34.18.598,CGTgamblingSpanTasks,2022.2.1,MacIntel,59.99520038,,,,,,,,,,,,,,,,,,,,,,,,,,,,,,,,,,,,,,,,,,,,,,,,,,,,,,,,,,,,,,,,,,,,,,,,,,,,,,,,,,"[3,5,9,6,8,2]",5,0,5,0,1,,,,,,,,,,,,,,,,,,,,,,,,,,,,,,,,,,,,,,,,,,,,,,,,
,,5e0e16d70db892559eb23487,2022-08-30_09h34.18.598,CGTgamblingSpanTasks,2022.2.1,MacIntel,59.99520038,,,,,,,,,,,,,,,,,,,,,,,,,,,,,,,,,,,,,,,,,,,,,,,,,,,,,,,,,,,,,,,0,,,,,,,,,,,,,,,,,,,,,,,,,35968,0.071808511,-0.370567376,1,0,0,cont_button,0,3,3,3,1,4,,,,,,,,,,,,,,,,,,,,,,,,,,,,,,,,,,,
,,5e0e16d70db892559eb23487,2022-08-30_09h34.18.598,CGTgamblingSpanTasks,2022.2.1,MacIntel,59.99520038,,,,,,,,,,,,,,,,,,,,,,,,,,,,,,,,,,,,,,,,,,,,,,,,,,,,,,,,,,,,,,,,,,,,,,,,,,,,,,,,,,,,,,,,,,,,,,,,,,,,,return,1.2967,,,,,,,,,,,,,,,,,,,,,,,,,,,,,,,,,
,,5e0e16d70db892559eb23487,2022-08-30_09h34.18.598,CGTgamblingSpanTasks,2022.2.1,MacIntel,59.99520038,,,,,,,,,,,,,,,,,,,,,,,,,,,,,,,,,,,,,,,,,,,,,,,,,,,,,,,,,,,,,,,,,,,,,,,,,,,,,,,,,,,,,,,,,,,,,,,,,,,,,,,return,0.8816,,,,,,,,,,,,,,,,,,,,,,,,,,,,,,,
,,5e0e16d70db892559eb23487,2022-08-30_09h34.18.598,CGTgamblingSpanTasks,2022.2.1,MacIntel,59.99520038,,,,,,,,,,,,,,,,,,,,,,,,,,,,,,,,,,,,,,,,,,,,,,,,,,,,,,,,,,,,,,,1,,,,,,,,,,,,3,342,24,2,42,,,,,,,,,,,,,,,,,,,,,,,,,,42,0.071808511,-0.370567376,1,0,0,cont_buttonPractice_2,0,0,0,0,1,,,,,,,,,,,,,,,,,,,
,,5e0e16d70db892559eb23487,2022-08-30_09h34.18.598,CGTgamblingSpanTasks,2022.2.1,MacIntel,59.99520038,,,,,,,,,,,,,,,,,,,,,,,,,,,,,,,,,,,,,,,,,,,,,,,,,,,,,,,,,,,,,,,1,,,,,,,,,,,,3,937,73,2,37,,,,,,,,,,,,,,,,,,,,,,,,,,37,0.071808511,-0.370567376,1,0,0,cont_buttonPractice_2,0,1,1,1,1,,,,,,,,,,,,,,,,,,,
,,5e0e16d70db892559eb23487,2022-08-30_09h34.18.598,CGTgamblingSpanTasks,2022.2.1,MacIntel,59.99520038,,,,,,,,,,,,,,,,,,,,,,,,,,,,,,,,,,,,,,,,,,,,,,,,,,,,,,,,,,,,,,,,,,,,,,,,,,,,,,,,,,,,,,,,,,,,,,,,,,,,,,,,,,,,,,,,,,,,,return,1.0346,,,,,,,,,,,,,,,,,
,,5e0e16d70db892559eb23487,2022-08-30_09h34.18.598,CGTgamblingSpanTasks,2022.2.1,MacIntel,59.99520038,,,,,,,,,,,,,,,,,,,,,,,,,,,,,,,,,,,,,,,,,,,,,,,,,,,,,,,,,,,,,,,,,,,,,,,,,,,,,,,,,,"[1,5]",,,,,,,,,,,,,,,,,,,,,,,,,,,,,,,,,,,,,0,0,0,0,1,,,,,,,,,,,,
,,5e0e16d70db892559eb23487,2022-08-30_09h34.18.598,CGTgamblingSpanTasks,2022.2.1,MacIntel,59.99520038,,,,,,,,,,,,,,,,,,,,,,,,,,,,,,,,,,,,,,,,,,,,,,,,,,,,,,,,,,,,,,,,,,,,,,,,,,,,,,,,,,"[1,5]",,,,,,,,,,,,,,,,,,,,,,,,,,,,,,,,,,,,,1,0,1,0,1,,,,,,,,,,,,
,,5e0e16d70db892559eb23487,2022-08-30_09h34.18.598,CGTgamblingSpanTasks,2022.2.1,MacIntel,59.99520038,,,,,,,,,,,,,,,,,,,,,,,,,,,,,,,,,,,,,,,,,,,,,,,,,,,,,,,,,,,,,,,1,,,,,,,,,,,,,,,,,,,,,,,,,,,,,,,,,,,,,1,,,,,,,,,,,,,,,,,,,,,,,,51,0.071808511,-0.370567376,1,0,0,cont_buttonBS,0,0,0,0,1
,,5e0e16d70db892559eb23487,2022-08-30_09h34.18.598,CGTgamblingSpanTasks,2022.2.1,MacIntel,59.99520038,,,,,,,,,,,,,,,,,,,,,,,,,,,,,,,,,,,,,,,,,,,,,,,,,,,,,,,,,,,,,,,,,,,,,,,,,,,,,,,,,,"[7,6,9]",,,,,,,,,,,,,,,,,,,,,,,,,,,,,,,,,,,,,0,0,0,0,1,,,,,,,,,,,,
,,5e0e16d70db892559eb23487,2022-08-30_09h34.18.598,CGTgamblingSpanTasks,2022.2.1,MacIntel,59.99520038,,,,,,,,,,,,,,,,,,,,,,,,,,,,,,,,,,,,,,,,,,,,,,,,,,,,,,,,,,,,,,,,,,,,,,,,,,,,,,,,,,"[7,6,9]",,,,,,,,,,,,,,,,,,,,,,,,,,,,,,,,,,,,,1,0,1,0,1,,,,,,,,,,,,
,,5e0e16d70db892559eb23487,2022-08-30_09h34.18.598,CGTgamblingSpanTasks,2022.2.1,MacIntel,59.99520038,,,,,,,,,,,,,,,,,,,,,,,,,,,,,,,,,,,,,,,,,,,,,,,,,,,,,,,,,,,,,,,,,,,,,,,,,,,,,,,,,,"[7,6,9]",,,,,,,,,,,,,,,,,,,,,,,,,,,,,,,,,,,,,2,0,2,0,1,,,,,,,,,,,,
,,5e0e16d70db892559eb23487,2022-08-30_09h34.18.598,CGTgamblingSpanTasks,2022.2.1,MacIntel,59.99520038,,,,,,,,,,,,,,,,,,,,,,,,,,,,,,,,,,,,,,,,,,,,,,,,,,,,,,,,,,,,,,,0,,,,,,,,,,,,,,,,,,,,,,,,,,,,,,,,,,,,,2,,,,,,,,,,,,,,,,,,,,,,,,86,0.071808511,-0.370567376,1,0,0,cont_buttonBS,0,1,1,1,1
,,5e0e16d70db892559eb23487,2022-08-30_09h34.18.598,CGTgamblingSpanTasks,2022.2.1,MacIntel,59.99520038,,,,,,,,,,,,,,,,,,,,,,,,,,,,,,,,,,,,,,,,,,,,,,,,,,,,,,,,,,,,,,,,,,,,,,,,,,,,,,,,,,"[7,8,5]",,,,,,,,,,,,,,,,,,,,,,,,,,,,,,,,,,,,,0,0,0,0,1,,,,,,,,,,,,
,,5e0e16d70db892559eb23487,2022-08-30_09h34.18.598,CGTgamblingSpanTasks,2022.2.1,MacIntel,59.99520038,,,,,,,,,,,,,,,,,,,,,,,,,,,,,,,,,,,,,,,,,,,,,,,,,,,,,,,,,,,,,,,,,,,,,,,,,,,,,,,,,,"[7,8,5]",,,,,,,,,,,,,,,,,,,,,,,,,,,,,,,,,,,,,1,0,1,0,1,,,,,,,,,,,,
,,5e0e16d70db892559eb23487,2022-08-30_09h34.18.598,CGTgamblingSpanTasks,2022.2.1,MacIntel,59.99520038,,,,,,,,,,,,,,,,,,,,,,,,,,,,,,,,,,,,,,,,,,,,,,,,,,,,,,,,,,,,,,,,,,,,,,,,,,,,,,,,,,"[7,8,5]",,,,,,,,,,,,,,,,,,,,,,,,,,,,,,,,,,,,,2,0,2,0,1,,,,,,,,,,,,
,,5e0e16d70db892559eb23487,2022-08-30_09h34.18.598,CGTgamblingSpanTasks,2022.2.1,MacIntel,59.99520038,,,,,,,,,,,,,,,,,,,,,,,,,,,,,,,,,,,,,,,,,,,,,,,,,,,,,,,,,,,,,,,0,,,,,,,,,,,,,,,,,,,,,,,,,,,,,,,,,,,,,3,,,,,,,,,,,,,,,,,,,,,,,,785,0.063829787,-0.378546099,1,0,0,cont_buttonBS,0,2,2,2,1
,,5e0e16d70db892559eb23487,2022-08-30_09h34.18.598,CGTgamblingSpanTasks,2022.2.1,MacIntel,59.99520038,,,,,,,,,,,,,,,,,,,,,,,,,,,,,,,,,,,,,,,,,,,,,,,,,,,,,,,,,,,,,,,,,,,,,,,,,,,,,,,,,,"[6,3]",,,,,,,,,,,,,,,,,,,,,,,,,,,,,,,,,,,,,0,0,0,0,1,,,,,,,,,,,,
,,5e0e16d70db892559eb23487,2022-08-30_09h34.18.598,CGTgamblingSpanTasks,2022.2.1,MacIntel,59.99520038,,,,,,,,,,,,,,,,,,,,,,,,,,,,,,,,,,,,,,,,,,,,,,,,,,,,,,,,,,,,,,,,,,,,,,,,,,,,,,,,,,"[6,3]",,,,,,,,,,,,,,,,,,,,,,,,,,,,,,,,,,,,,1,0,1,0,1,,,,,,,,,,,,
,,5e0e16d70db892559eb23487,2022-08-30_09h34.18.598,CGTgamblingSpanTasks,2022.2.1,MacIntel,59.99520038,,,,,,,,,,,,,,,,,,,,,,,,,,,,,,,,,,,,,,,,,,,,,,,,,,,,,,,,,,,,,,,0,,,,,,,,,,,,,,,,,,,,,,,,,,,,,,,,,,,,,4,,,,,,,,,,,,,,,,,,,,,,,,63,0.063829787,-0.378546099,1,0,0,cont_buttonBS,0,3,3,3,1
,,5e0e16d70db892559eb23487,2022-08-30_09h34.18.598,CGTgamblingSpanTasks,2022.2.1,MacIntel,59.99520038,,,,,,,,,,,,,,,,,,,,,,,,,,,,,,,,,,,,,,,,,,,,,,,,,,,,,,,,,,,,,,,,,,,,,,,,,,,,,,,,,,,,,,,,,,,,,,,,,,,,,,,,,,,,,,,,,,,,,,,,,,,,,,,,,,,,,,,
