initITIstatic,initITIdynamic,participant,date,expName,psychopyVersion,OS,frameRate,inst1.keys,inst1.rt,startPracResp.keys,startPracResp.rt,choice1.keys,choice1.rt,outcome,extraITI,trials.thisRepN,trials.thisTrialN,trials.thisN,trials.thisIndex,trials.ran,riskyGain,riskyLoss,alternative,isi,iti,loc,postPractResp.keys,postPractResp.rt,realloc,realChoice.keys,realChoice.rt,outcomes,choices,actualITI,init ITI,staticRDM.thisRepN,staticRDM.thisTrialN,staticRDM.thisN,staticRDM.thisIndex,staticRDM.ran,riskyoption1,riskyoption2,safeoption,ischecktrial,dynamicChoiceSetName,dynamicChoiceSetPath,bestRho,bestMu,trials_2.thisRepN,trials_2.thisTrialN,trials_2.thisN,trials_2.thisIndex,trials_2.ran,key_resp.keys,key_resp.rt,dynamicRDM.thisRepN,dynamicRDM.thisTrialN,dynamicRDM.thisN,dynamicRDM.thisIndex,dynamicRDM.ran,choiceP,easy0difficult1,stopBreak.keys,stopBreak.rt,movealong.keys,movealong.rt,startPractice.keys,startPractice.rt,textboxPractice.text,correct,mousePractice.x,mousePractice.y,mousePractice.leftButton,mousePractice.midButton,mousePractice.rightButton,mousePractice.clicked_name,trialFSPractice.thisRepN,trialFSPractice.thisTrialN,trialFSPractice.thisN,trialFSPractice.thisIndex,trialFSPractice.ran,digitSpanForward,digits,digitsReverse,digitSpanReverse,digitsReverseCorrAnswer,startFSreal.keys,startFSreal.rt,digitsForTrial,digitLoop.thisRepN,digitLoop.thisTrialN,digitLoop.thisN,digitLoop.thisIndex,digitLoop.ran,textbox.text,mouse_3.x,mouse_3.y,mouse_3.leftButton,mouse_3.midButton,mouse_3.rightButton,mouse_3.clicked_name,trialsFS.thisRepN,trialsFS.thisTrialN,trialsFS.thisN,trialsFS.thisIndex,trialsFS.ran,trialNumber,moveToBS.keys,moveToBS.rt,startBSprac.keys,startBSprac.rt,textboxPractice_2.text,mousePractice_2.x,mousePractice_2.y,mousePractice_2.leftButton,mousePractice_2.midButton,mousePractice_2.rightButton,mousePractice_2.clicked_name,trialsPracticeBS.thisRepN,trialsPracticeBS.thisTrialN,trialsPracticeBS.thisN,trialsPracticeBS.thisIndex,trialsPracticeBS.ran,startBSreal.keys,startBSreal.rt,digitLoopBS.thisRepN,digitLoopBS.thisTrialN,digitLoopBS.thisN,digitLoopBS.thisIndex,digitLoopBS.ran,textboxBS.text,mouseBS.x,mouseBS.y,mouseBS.leftButton,mouseBS.midButton,mouseBS.rightButton,mouseBS.clicked_name,trialsBS.thisRepN,trialsBS.thisTrialN,trialsBS.thisN,trialsBS.thisIndex,trialsBS.ran
"[1.5,1,1.5,1.5,1.5,1,1.5,1,1.5,1,1,1.5,1,1.5,1,1,1,1.5,1.5,1.5,1.5,1.5,1,1.5,1.5,1.5,1,1,1,1.5,1,1,1,1,1.5,1.5,1.5,1,1,1,1.5,1.5,1.5,1,1,1,1.5,1,1,1.5]","[1.5,1,1,1.5,1,1,1,1,1,1.5,1,1.5,1.5,1.5,1,1.5,1,1.5,1,1,1.5,1.5,1,1.5,1.5,1.5,1,1.5,1,1.5,1,1.5,1.5,1.5,1.5,1,1,1.5,1.5,1,1.5,1.5,1,1.5,1.5,1,1.5,1.5,1,1.5,1.5,1,1,1.5,1,1,1.5,1.5,1.5,1.5,1.5,1.5,1.5,1.5,1,1.5,1,1,1.5,1.5,1,1,1,1,1,1,1,1.5,1.5,1,1.5,1,1.5,1,1,1.5,1,1,1,1,1.5,1.5,1,1,1,1.5,1,1.5,1,1,1,1.5,1.5,1,1,1.5,1.5,1.5,1,1.5,1,1,1.5,1,1,1.5,1,1.5,1.5,1]",55b508f4fdf99b1c26c21c69,2022-09-08_10h33.43.739,CGTgamblingSpanTasks,2022.2.1,Win32,60.0240096,,,,,,,,,,,,,,,,,,,,,,,,,,,,,,,,,,,,,,,,,,,,,,,,,,,,,,,,,,,,,,,,,,,,,,,,,,,,,,,,,,,,,,,,,,,,,,,,,,,,,,,,,,,,,,,,,,,,,,,,,,,,,,,,,,,,,,,
,,55b508f4fdf99b1c26c21c69,2022-09-08_10h33.43.739,CGTgamblingSpanTasks,2022.2.1,Win32,60.0240096,return,3.01,,,,,,,,,,,,,,,,,,,,,,,,,,,,,,,,,,,,,,,,,,,,,,,,,,,,,,,,,,,,,,,,,,,,,,,,,,,,,,,,,,,,,,,,,,,,,,,,,,,,,,,,,,,,,,,,,,,,,,,,,,,,,,,,,,,,,
,,55b508f4fdf99b1c26c21c69,2022-09-08_10h33.43.739,CGTgamblingSpanTasks,2022.2.1,Win32,60.0240096,,,n,0.497,,,,,,,,,,,,,,,,,,,,,,,,,,,,,,,,,,,,,,,,,,,,,,,,,,,,,,,,,,,,,,,,,,,,,,,,,,,,,,,,,,,,,,,,,,,,,,,,,,,,,,,,,,,,,,,,,,,,,,,,,,,,,,,,,,,
,,55b508f4fdf99b1c26c21c69,2022-09-08_10h33.43.739,CGTgamblingSpanTasks,2022.2.1,Win32,60.0240096,,,,,v,1.096,18.23,2.904,0,0,0,0,1,18.23,0,9.45,2,1,1,,,,,,,,,,,,,,,,,,,,,,,,,,,,,,,,,,,,,,,,,,,,,,,,,,,,,,,,,,,,,,,,,,,,,,,,,,,,,,,,,,,,,,,,,,,,,,,,,,,,,,,,,,,,,,,,,,,,
,,55b508f4fdf99b1c26c21c69,2022-09-08_10h33.43.739,CGTgamblingSpanTasks,2022.2.1,Win32,60.0240096,,,,,n,0.844,35.16,3.156,0,1,1,1,1,53.27,0,35.16,1,1.5,1,,,,,,,,,,,,,,,,,,,,,,,,,,,,,,,,,,,,,,,,,,,,,,,,,,,,,,,,,,,,,,,,,,,,,,,,,,,,,,,,,,,,,,,,,,,,,,,,,,,,,,,,,,,,,,,,,,,,
,,55b508f4fdf99b1c26c21c69,2022-09-08_10h33.43.739,CGTgamblingSpanTasks,2022.2.1,Win32,60.0240096,,,,,v,0.827,1.15,3.173,0,2,2,2,1,8.27,0,1.15,1,1.5,2,,,,,,,,,,,,,,,,,,,,,,,,,,,,,,,,,,,,,,,,,,,,,,,,,,,,,,,,,,,,,,,,,,,,,,,,,,,,,,,,,,,,,,,,,,,,,,,,,,,,,,,,,,,,,,,,,,,,
,,55b508f4fdf99b1c26c21c69,2022-09-08_10h33.43.739,CGTgamblingSpanTasks,2022.2.1,Win32,60.0240096,,,,,n,0.909,40.41,3.091,0,3,3,3,1,45.88,0,40.41,3,1,1,,,,,,,,,,,,,,,,,,,,,,,,,,,,,,,,,,,,,,,,,,,,,,,,,,,,,,,,,,,,,,,,,,,,,,,,,,,,,,,,,,,,,,,,,,,,,,,,,,,,,,,,,,,,,,,,,,,,
,,55b508f4fdf99b1c26c21c69,2022-09-08_10h33.43.739,CGTgamblingSpanTasks,2022.2.1,Win32,60.0240096,,,,,n,0.985,21.56,3.015,0,4,4,4,1,21.56,0,11.96,1,1.5,2,,,,,,,,,,,,,,,,,,,,,,,,,,,,,,,,,,,,,,,,,,,,,,,,,,,,,,,,,,,,,,,,,,,,,,,,,,,,,,,,,,,,,,,,,,,,,,,,,,,,,,,,,,,,,,,,,,,,
,,55b508f4fdf99b1c26c21c69,2022-09-08_10h33.43.739,CGTgamblingSpanTasks,2022.2.1,Win32,60.0240096,,,,,,,,,,,,,,,,,,,,n,1.147,,,,,,,,,,,,,,,,,,,,,,,,,,,,,,,,,,,,,,,,,,,,,,,,,,,,,,,,,,,,,,,,,,,,,,,,,,,,,,,,,,,,,,,,,,,,,,,,,,,,,,,,,,,,,,,,,,
,,55b508f4fdf99b1c26c21c69,2022-09-08_10h33.43.739,CGTgamblingSpanTasks,2022.2.1,Win32,60.0240096,,,,,,,,3.144,,,,,,,,,,,,,,1,n,0.856,3.13,0,4.644,1.5,0,0,0,47,1,0,0,3.13,1,,,,,,,,,,,,,,,,,,,,,,,,,,,,,,,,,,,,,,,,,,,,,,,,,,,,,,,,,,,,,,,,,,,,,,,,,,,,,,,,,,,,,,,,,,,,,,,,,,
,,55b508f4fdf99b1c26c21c69,2022-09-08_10h33.43.739,CGTgamblingSpanTasks,2022.2.1,Win32,60.0240096,,,,,,,,3.164,,,,,,,,,,,,,,2,n,0.836,0,1,4.164,1,0,1,1,21,1,17.59,0,9.2,0,,,,,,,,,,,,,,,,,,,,,,,,,,,,,,,,,,,,,,,,,,,,,,,,,,,,,,,,,,,,,,,,,,,,,,,,,,,,,,,,,,,,,,,,,,,,,,,,,,
,,55b508f4fdf99b1c26c21c69,2022-09-08_10h33.43.739,CGTgamblingSpanTasks,2022.2.1,Win32,60.0240096,,,,,,,,3.202,,,,,,,,,,,,,,2,n,0.798,0,1,4.702,1.5,0,2,2,0,1,20.03,0,1.99,0,,,,,,,,,,,,,,,,,,,,,,,,,,,,,,,,,,,,,,,,,,,,,,,,,,,,,,,,,,,,,,,,,,,,,,,,,,,,,,,,,,,,,,,,,,,,,,,,,,
,,55b508f4fdf99b1c26c21c69,2022-09-08_10h33.43.739,CGTgamblingSpanTasks,2022.2.1,Win32,60.0240096,,,,,,,,3.101,,,,,,,,,,,,,,2,n,0.899,21.32,1,4.601,1.5,0,3,3,7,1,21.32,0,7.34,0,,,,,,,,,,,,,,,,,,,,,,,,,,,,,,,,,,,,,,,,,,,,,,,,,,,,,,,,,,,,,,,,,,,,,,,,,,,,,,,,,,,,,,,,,,,,,,,,,,
,,55b508f4fdf99b1c26c21c69,2022-09-08_10h33.43.739,CGTgamblingSpanTasks,2022.2.1,Win32,60.0240096,,,,,,,,3.041,,,,,,,,,,,,,,2,n,0.959,16.11,1,4.541,1.5,0,4,4,43,1,16.11,6.99,6.99,1,,,,,,,,,,,,,,,,,,,,,,,,,,,,,,,,,,,,,,,,,,,,,,,,,,,,,,,,,,,,,,,,,,,,,,,,,,,,,,,,,,,,,,,,,,,,,,,,,,
,,55b508f4fdf99b1c26c21c69,2022-09-08_10h33.43.739,CGTgamblingSpanTasks,2022.2.1,Win32,60.0240096,,,,,,,,2.703,,,,,,,,,,,,,,1,v,1.297,19.28,1,3.703,1,0,5,5,13,1,19.28,0,8.36,0,,,,,,,,,,,,,,,,,,,,,,,,,,,,,,,,,,,,,,,,,,,,,,,,,,,,,,,,,,,,,,,,,,,,,,,,,,,,,,,,,,,,,,,,,,,,,,,,,,
,,55b508f4fdf99b1c26c21c69,2022-09-08_10h33.43.739,CGTgamblingSpanTasks,2022.2.1,Win32,60.0240096,,,,,,,,3.239,,,,,,,,,,,,,,2,n,0.761,0,1,4.739,1.5,0,6,6,11,1,19.86,0,8.07,0,,,,,,,,,,,,,,,,,,,,,,,,,,,,,,,,,,,,,,,,,,,,,,,,,,,,,,,,,,,,,,,,,,,,,,,,,,,,,,,,,,,,,,,,,,,,,,,,,,
,,55b508f4fdf99b1c26c21c69,2022-09-08_10h33.43.739,CGTgamblingSpanTasks,2022.2.1,Win32,60.0240096,,,,,,,,3.108,,,,,,,,,,,,,,2,n,0.892,10.73,1,4.108,1,0,7,7,30,1,10.73,0,6.63,0,,,,,,,,,,,,,,,,,,,,,,,,,,,,,,,,,,,,,,,,,,,,,,,,,,,,,,,,,,,,,,,,,,,,,,,,,,,,,,,,,,,,,,,,,,,,,,,,,,
,,55b508f4fdf99b1c26c21c69,2022-09-08_10h33.43.739,CGTgamblingSpanTasks,2022.2.1,Win32,60.0240096,,,,,,,,2.99,,,,,,,,,,,,,,2,n,1.01,0,1,4.49,1.5,0,8,8,15,1,18.77,0,8.61,0,,,,,,,,,,,,,,,,,,,,,,,,,,,,,,,,,,,,,,,,,,,,,,,,,,,,,,,,,,,,,,,,,,,,,,,,,,,,,,,,,,,,,,,,,,,,,,,,,,
,,55b508f4fdf99b1c26c21c69,2022-09-08_10h33.43.739,CGTgamblingSpanTasks,2022.2.1,Win32,60.0240096,,,,,,,,3.064,,,,,,,,,,,,,,1,v,0.936,0,1,4.064,1,0,9,9,28,1,10.95,0,6.53,0,,,,,,,,,,,,,,,,,,,,,,,,,,,,,,,,,,,,,,,,,,,,,,,,,,,,,,,,,,,,,,,,,,,,,,,,,,,,,,,,,,,,,,,,,,,,,,,,,,
,,55b508f4fdf99b1c26c21c69,2022-09-08_10h33.43.739,CGTgamblingSpanTasks,2022.2.1,Win32,60.0240096,,,,,,,,2.819,,,,,,,,,,,,,,1,n,1.181,10.15,0,3.819,1,0,10,10,33,1,15.7,0,10.15,0,,,,,,,,,,,,,,,,,,,,,,,,,,,,,,,,,,,,,,,,,,,,,,,,,,,,,,,,,,,,,,,,,,,,,,,,,,,,,,,,,,,,,,,,,,,,,,,,,,
,,55b508f4fdf99b1c26c21c69,2022-09-08_10h33.43.739,CGTgamblingSpanTasks,2022.2.1,Win32,60.0240096,,,,,,,,3.235,,,,,,,,,,,,,,2,n,0.765,14.26,1,4.735,1.5,0,11,11,41,1,14.26,0,0,1,,,,,,,,,,,,,,,,,,,,,,,,,,,,,,,,,,,,,,,,,,,,,,,,,,,,,,,,,,,,,,,,,,,,,,,,,,,,,,,,,,,,,,,,,,,,,,,,,,
,,55b508f4fdf99b1c26c21c69,2022-09-08_10h33.43.739,CGTgamblingSpanTasks,2022.2.1,Win32,60.0240096,,,,,,,,3.09,,,,,,,,,,,,,,1,v,0.91,0,1,4.09,1,0,12,12,29,1,16.26,0,9.87,0,,,,,,,,,,,,,,,,,,,,,,,,,,,,,,,,,,,,,,,,,,,,,,,,,,,,,,,,,,,,,,,,,,,,,,,,,,,,,,,,,,,,,,,,,,,,,,,,,,
,,55b508f4fdf99b1c26c21c69,2022-09-08_10h33.43.739,CGTgamblingSpanTasks,2022.2.1,Win32,60.0240096,,,,,,,,3.112,,,,,,,,,,,,,,2,n,0.888,0,1,4.612,1.5,0,13,13,14,1,12.68,0,5.66,0,,,,,,,,,,,,,,,,,,,,,,,,,,,,,,,,,,,,,,,,,,,,,,,,,,,,,,,,,,,,,,,,,,,,,,,,,,,,,,,,,,,,,,,,,,,,,,,,,,
,,55b508f4fdf99b1c26c21c69,2022-09-08_10h33.43.739,CGTgamblingSpanTasks,2022.2.1,Win32,60.0240096,,,,,,,,3.297,,,,,,,,,,,,,,2,n,0.703,22.97,1,4.297,1,0,14,14,5,1,22.97,0,6.51,0,,,,,,,,,,,,,,,,,,,,,,,,,,,,,,,,,,,,,,,,,,,,,,,,,,,,,,,,,,,,,,,,,,,,,,,,,,,,,,,,,,,,,,,,,,,,,,,,,,
,,55b508f4fdf99b1c26c21c69,2022-09-08_10h33.43.739,CGTgamblingSpanTasks,2022.2.1,Win32,60.0240096,,,,,,,,3.141,,,,,,,,,,,,,,1,v,0.859,15.09,1,4.141,1,0,15,15,39,1,15.09,0,10.46,0,,,,,,,,,,,,,,,,,,,,,,,,,,,,,,,,,,,,,,,,,,,,,,,,,,,,,,,,,,,,,,,,,,,,,,,,,,,,,,,,,,,,,,,,,,,,,,,,,,
,,55b508f4fdf99b1c26c21c69,2022-09-08_10h33.43.739,CGTgamblingSpanTasks,2022.2.1,Win32,60.0240096,,,,,,,,3.23,,,,,,,,,,,,,,2,n,0.77,0,1,4.23,1,0,16,16,4,1,16,0,4,0,,,,,,,,,,,,,,,,,,,,,,,,,,,,,,,,,,,,,,,,,,,,,,,,,,,,,,,,,,,,,,,,,,,,,,,,,,,,,,,,,,,,,,,,,,,,,,,,,,
,,55b508f4fdf99b1c26c21c69,2022-09-08_10h33.43.739,CGTgamblingSpanTasks,2022.2.1,Win32,60.0240096,,,,,,,,3.103,,,,,,,,,,,,,,1,v,0.897,15.47,1,4.603,1.5,0,17,17,35,1,15.47,0,10.27,0,,,,,,,,,,,,,,,,,,,,,,,,,,,,,,,,,,,,,,,,,,,,,,,,,,,,,,,,,,,,,,,,,,,,,,,,,,,,,,,,,,,,,,,,,,,,,,,,,,
,,55b508f4fdf99b1c26c21c69,2022-09-08_10h33.43.739,CGTgamblingSpanTasks,2022.2.1,Win32,60.0240096,,,,,,,,3.165,,,,,,,,,,,,,,2,n,0.835,10.24,1,4.665,1.5,0,18,18,36,1,10.24,0,6.88,0,,,,,,,,,,,,,,,,,,,,,,,,,,,,,,,,,,,,,,,,,,,,,,,,,,,,,,,,,,,,,,,,,,,,,,,,,,,,,,,,,,,,,,,,,,,,,,,,,,
,,55b508f4fdf99b1c26c21c69,2022-09-08_10h33.43.739,CGTgamblingSpanTasks,2022.2.1,Win32,60.0240096,,,,,,,,3.106,,,,,,,,,,,,,,2,n,0.894,12.08,1,4.606,1.5,0,19,19,18,1,12.08,0,5.96,0,,,,,,,,,,,,,,,,,,,,,,,,,,,,,,,,,,,,,,,,,,,,,,,,,,,,,,,,,,,,,,,,,,,,,,,,,,,,,,,,,,,,,,,,,,,,,,,,,,
,,55b508f4fdf99b1c26c21c69,2022-09-08_10h33.43.739,CGTgamblingSpanTasks,2022.2.1,Win32,60.0240096,,,,,,,,3.091,,,,,,,,,,,,,,2,n,0.909,0,1,4.591,1.5,0,20,20,6,1,14.72,0,4.64,0,,,,,,,,,,,,,,,,,,,,,,,,,,,,,,,,,,,,,,,,,,,,,,,,,,,,,,,,,,,,,,,,,,,,,,,,,,,,,,,,,,,,,,,,,,,,,,,,,,
,,55b508f4fdf99b1c26c21c69,2022-09-08_10h33.43.739,CGTgamblingSpanTasks,2022.2.1,Win32,60.0240096,,,,,,,,3.188,,,,,,,,,,,,,,1,v,0.812,0,1,4.688,1.5,0,21,21,49,1,6.79,0,9.92,1,,,,,,,,,,,,,,,,,,,,,,,,,,,,,,,,,,,,,,,,,,,,,,,,,,,,,,,,,,,,,,,,,,,,,,,,,,,,,,,,,,,,,,,,,,,,,,,,,,
,,55b508f4fdf99b1c26c21c69,2022-09-08_10h33.43.739,CGTgamblingSpanTasks,2022.2.1,Win32,60.0240096,,,,,,,,3.211,,,,,,,,,,,,,,1,v,0.789,13.1,1,4.211,1,0,22,22,44,1,13.1,7.73,4.68,1,,,,,,,,,,,,,,,,,,,,,,,,,,,,,,,,,,,,,,,,,,,,,,,,,,,,,,,,,,,,,,,,,,,,,,,,,,,,,,,,,,,,,,,,,,,,,,,,,,
,,55b508f4fdf99b1c26c21c69,2022-09-08_10h33.43.739,CGTgamblingSpanTasks,2022.2.1,Win32,60.0240096,,,,,,,,3.124,,,,,,,,,,,,,,1,v,0.876,18.33,1,4.624,1.5,0,23,23,17,1,18.33,0,8.84,0,,,,,,,,,,,,,,,,,,,,,,,,,,,,,,,,,,,,,,,,,,,,,,,,,,,,,,,,,,,,,,,,,,,,,,,,,,,,,,,,,,,,,,,,,,,,,,,,,,
,,55b508f4fdf99b1c26c21c69,2022-09-08_10h33.43.739,CGTgamblingSpanTasks,2022.2.1,Win32,60.0240096,,,,,,,,3.213,,,,,,,,,,,,,,2,n,0.787,0,1,4.713,1.5,0,24,24,26,1,11.2,0,6.4,0,,,,,,,,,,,,,,,,,,,,,,,,,,,,,,,,,,,,,,,,,,,,,,,,,,,,,,,,,,,,,,,,,,,,,,,,,,,,,,,,,,,,,,,,,,,,,,,,,,
,,55b508f4fdf99b1c26c21c69,2022-09-08_10h33.43.739,CGTgamblingSpanTasks,2022.2.1,Win32,60.0240096,,,,,,,,3.168,,,,,,,,,,,,,,1,n,0.832,10.25,0,4.668,1.5,0,25,25,46,1,0,0,10.25,1,,,,,,,,,,,,,,,,,,,,,,,,,,,,,,,,,,,,,,,,,,,,,,,,,,,,,,,,,,,,,,,,,,,,,,,,,,,,,,,,,,,,,,,,,,,,,,,,,,
,,55b508f4fdf99b1c26c21c69,2022-09-08_10h33.43.739,CGTgamblingSpanTasks,2022.2.1,Win32,60.0240096,,,,,,,,2.938,,,,,,,,,,,,,,1,n,1.062,7.55,0,3.938,1,0,26,26,45,1,0,0,7.55,1,,,,,,,,,,,,,,,,,,,,,,,,,,,,,,,,,,,,,,,,,,,,,,,,,,,,,,,,,,,,,,,,,,,,,,,,,,,,,,,,,,,,,,,,,,,,,,,,,,
,,55b508f4fdf99b1c26c21c69,2022-09-08_10h33.43.739,CGTgamblingSpanTasks,2022.2.1,Win32,60.0240096,,,,,,,,3.149,,,,,,,,,,,,,,2,n,0.851,0,1,4.149,1,0,27,27,8,1,13.94,0,5.03,0,,,,,,,,,,,,,,,,,,,,,,,,,,,,,,,,,,,,,,,,,,,,,,,,,,,,,,,,,,,,,,,,,,,,,,,,,,,,,,,,,,,,,,,,,,,,,,,,,,
,,55b508f4fdf99b1c26c21c69,2022-09-08_10h33.43.739,CGTgamblingSpanTasks,2022.2.1,Win32,60.0240096,,,,,,,,3.22,,,,,,,,,,,,,,1,v,0.78,0,1,4.22,1,0,28,28,10,1,13.45,0,5.27,0,,,,,,,,,,,,,,,,,,,,,,,,,,,,,,,,,,,,,,,,,,,,,,,,,,,,,,,,,,,,,,,,,,,,,,,,,,,,,,,,,,,,,,,,,,,,,,,,,,
,,55b508f4fdf99b1c26c21c69,2022-09-08_10h33.43.739,CGTgamblingSpanTasks,2022.2.1,Win32,60.0240096,,,,,,,,3.09,,,,,,,,,,,,,,1,v,0.91,0,1,4.59,1.5,0,29,29,3,1,25.2,0,5.4,0,,,,,,,,,,,,,,,,,,,,,,,,,,,,,,,,,,,,,,,,,,,,,,,,,,,,,,,,,,,,,,,,,,,,,,,,,,,,,,,,,,,,,,,,,,,,,,,,,,
,,55b508f4fdf99b1c26c21c69,2022-09-08_10h33.43.739,CGTgamblingSpanTasks,2022.2.1,Win32,60.0240096,,,,,,,,3.286,,,,,,,,,,,,,,2,n,0.714,0,1,4.286,1,0,30,30,22,1,11.62,0,6.19,0,,,,,,,,,,,,,,,,,,,,,,,,,,,,,,,,,,,,,,,,,,,,,,,,,,,,,,,,,,,,,,,,,,,,,,,,,,,,,,,,,,,,,,,,,,,,,,,,,,
,,55b508f4fdf99b1c26c21c69,2022-09-08_10h33.43.739,CGTgamblingSpanTasks,2022.2.1,Win32,60.0240096,,,,,,,,3.302,,,,,,,,,,,,,,2,n,0.698,11.43,1,4.302,1,0,31,31,24,1,11.43,0,6.29,0,,,,,,,,,,,,,,,,,,,,,,,,,,,,,,,,,,,,,,,,,,,,,,,,,,,,,,,,,,,,,,,,,,,,,,,,,,,,,,,,,,,,,,,,,,,,,,,,,,
,,55b508f4fdf99b1c26c21c69,2022-09-08_10h33.43.739,CGTgamblingSpanTasks,2022.2.1,Win32,60.0240096,,,,,,,,3.153,,,,,,,,,,,,,,1,v,0.847,0,1,4.153,1,0,32,32,37,1,15.27,0,10.37,0,,,,,,,,,,,,,,,,,,,,,,,,,,,,,,,,,,,,,,,,,,,,,,,,,,,,,,,,,,,,,,,,,,,,,,,,,,,,,,,,,,,,,,,,,,,,,,,,,,
,,55b508f4fdf99b1c26c21c69,2022-09-08_10h33.43.739,CGTgamblingSpanTasks,2022.2.1,Win32,60.0240096,,,,,,,,3.356,,,,,,,,,,,,,,1,v,0.644,0,1,4.356,1,0,33,33,32,1,10.55,0,6.73,0,,,,,,,,,,,,,,,,,,,,,,,,,,,,,,,,,,,,,,,,,,,,,,,,,,,,,,,,,,,,,,,,,,,,,,,,,,,,,,,,,,,,,,,,,,,,,,,,,,
,,55b508f4fdf99b1c26c21c69,2022-09-08_10h33.43.739,CGTgamblingSpanTasks,2022.2.1,Win32,60.0240096,,,,,,,,3.283,,,,,,,,,,,,,,1,v,0.717,12.36,1,4.783,1.5,0,34,34,16,1,12.36,0,5.82,0,,,,,,,,,,,,,,,,,,,,,,,,,,,,,,,,,,,,,,,,,,,,,,,,,,,,,,,,,,,,,,,,,,,,,,,,,,,,,,,,,,,,,,,,,,,,,,,,,,
,,55b508f4fdf99b1c26c21c69,2022-09-08_10h33.43.739,CGTgamblingSpanTasks,2022.2.1,Win32,60.0240096,,,,,,,,3.324,,,,,,,,,,,,,,1,v,0.676,13.04,1,4.824,1.5,0,35,35,12,1,13.04,0,5.48,0,,,,,,,,,,,,,,,,,,,,,,,,,,,,,,,,,,,,,,,,,,,,,,,,,,,,,,,,,,,,,,,,,,,,,,,,,,,,,,,,,,,,,,,,,,,,,,,,,,
,,55b508f4fdf99b1c26c21c69,2022-09-08_10h33.43.739,CGTgamblingSpanTasks,2022.2.1,Win32,60.0240096,,,,,,,,3.26,,,,,,,,,,,,,,1,v,0.74,0,1,4.76,1.5,0,36,36,25,1,17,0,9.5,0,,,,,,,,,,,,,,,,,,,,,,,,,,,,,,,,,,,,,,,,,,,,,,,,,,,,,,,,,,,,,,,,,,,,,,,,,,,,,,,,,,,,,,,,,,,,,,,,,,
,,55b508f4fdf99b1c26c21c69,2022-09-08_10h33.43.739,CGTgamblingSpanTasks,2022.2.1,Win32,60.0240096,,,,,,,,3.363,,,,,,,,,,,,,,2,n,0.637,0,1,4.363,1,0,37,37,23,1,17.28,0,9.36,0,,,,,,,,,,,,,,,,,,,,,,,,,,,,,,,,,,,,,,,,,,,,,,,,,,,,,,,,,,,,,,,,,,,,,,,,,,,,,,,,,,,,,,,,,,,,,,,,,,
,,55b508f4fdf99b1c26c21c69,2022-09-08_10h33.43.739,CGTgamblingSpanTasks,2022.2.1,Win32,60.0240096,,,,,,,,3.146,,,,,,,,,,,,,,1,v,0.854,11.84,1,4.146,1,0,38,38,20,1,11.84,0,6.08,0,,,,,,,,,,,,,,,,,,,,,,,,,,,,,,,,,,,,,,,,,,,,,,,,,,,,,,,,,,,,,,,,,,,,,,,,,,,,,,,,,,,,,,,,,,,,,,,,,,
,,55b508f4fdf99b1c26c21c69,2022-09-08_10h33.43.739,CGTgamblingSpanTasks,2022.2.1,Win32,60.0240096,,,,,,,,3.043,,,,,,,,,,,,,,1,n,0.957,9.03,0,4.043,1,0,39,39,19,1,17.94,0,9.03,0,,,,,,,,,,,,,,,,,,,,,,,,,,,,,,,,,,,,,,,,,,,,,,,,,,,,,,,,,,,,,,,,,,,,,,,,,,,,,,,,,,,,,,,,,,,,,,,,,,
,,55b508f4fdf99b1c26c21c69,2022-09-08_10h33.43.739,CGTgamblingSpanTasks,2022.2.1,Win32,60.0240096,,,,,,,,3.206,,,,,,,,,,,,,,1,v,0.794,0,1,4.706,1.5,0,40,40,38,1,10.12,0,6.94,0,,,,,,,,,,,,,,,,,,,,,,,,,,,,,,,,,,,,,,,,,,,,,,,,,,,,,,,,,,,,,,,,,,,,,,,,,,,,,,,,,,,,,,,,,,,,,,,,,,
,,55b508f4fdf99b1c26c21c69,2022-09-08_10h33.43.739,CGTgamblingSpanTasks,2022.2.1,Win32,60.0240096,,,,,,,,3.299,,,,,,,,,,,,,,1,n,0.701,10.02,0,4.799,1.5,0,41,41,31,1,15.96,0,10.02,0,,,,,,,,,,,,,,,,,,,,,,,,,,,,,,,,,,,,,,,,,,,,,,,,,,,,,,,,,,,,,,,,,,,,,,,,,,,,,,,,,,,,,,,,,,,,,,,,,,
,,55b508f4fdf99b1c26c21c69,2022-09-08_10h33.43.739,CGTgamblingSpanTasks,2022.2.1,Win32,60.0240096,,,,,,,,3.369,,,,,,,,,,,,,,1,v,0.631,0,1,4.869,1.5,0,42,42,42,1,19.86,0,0,1,,,,,,,,,,,,,,,,,,,,,,,,,,,,,,,,,,,,,,,,,,,,,,,,,,,,,,,,,,,,,,,,,,,,,,,,,,,,,,,,,,,,,,,,,,,,,,,,,,
,,55b508f4fdf99b1c26c21c69,2022-09-08_10h33.43.739,CGTgamblingSpanTasks,2022.2.1,Win32,60.0240096,,,,,,,,3.266,,,,,,,,,,,,,,1,v,0.734,28.21,1,4.266,1,0,43,43,1,1,28.21,0,3.89,0,,,,,,,,,,,,,,,,,,,,,,,,,,,,,,,,,,,,,,,,,,,,,,,,,,,,,,,,,,,,,,,,,,,,,,,,,,,,,,,,,,,,,,,,,,,,,,,,,,
,,55b508f4fdf99b1c26c21c69,2022-09-08_10h33.43.739,CGTgamblingSpanTasks,2022.2.1,Win32,60.0240096,,,,,,,,3.068,,,,,,,,,,,,,,1,v,0.932,10.35,1,4.068,1,0,44,44,40,1,10.35,0,0,1,,,,,,,,,,,,,,,,,,,,,,,,,,,,,,,,,,,,,,,,,,,,,,,,,,,,,,,,,,,,,,,,,,,,,,,,,,,,,,,,,,,,,,,,,,,,,,,,,,
,,55b508f4fdf99b1c26c21c69,2022-09-08_10h33.43.739,CGTgamblingSpanTasks,2022.2.1,Win32,60.0240096,,,,,,,,3.04,,,,,,,,,,,,,,2,n,0.96,0,1,4.04,1,0,45,45,48,1,10.68,0,10.68,1,,,,,,,,,,,,,,,,,,,,,,,,,,,,,,,,,,,,,,,,,,,,,,,,,,,,,,,,,,,,,,,,,,,,,,,,,,,,,,,,,,,,,,,,,,,,,,,,,,
,,55b508f4fdf99b1c26c21c69,2022-09-08_10h33.43.739,CGTgamblingSpanTasks,2022.2.1,Win32,60.0240096,,,,,,,,3.069,,,,,,,,,,,,,,1,n,0.931,6.81,0,4.569,1.5,0,46,46,34,1,10.39,0,6.81,0,,,,,,,,,,,,,,,,,,,,,,,,,,,,,,,,,,,,,,,,,,,,,,,,,,,,,,,,,,,,,,,,,,,,,,,,,,,,,,,,,,,,,,,,,,,,,,,,,,
,,55b508f4fdf99b1c26c21c69,2022-09-08_10h33.43.739,CGTgamblingSpanTasks,2022.2.1,Win32,60.0240096,,,,,,,,2.985,,,,,,,,,,,,,,2,n,1.015,17.73,1,3.985,1,0,47,47,2,1,17.73,0,3.13,0,,,,,,,,,,,,,,,,,,,,,,,,,,,,,,,,,,,,,,,,,,,,,,,,,,,,,,,,,,,,,,,,,,,,,,,,,,,,,,,,,,,,,,,,,,,,,,,,,,
,,55b508f4fdf99b1c26c21c69,2022-09-08_10h33.43.739,CGTgamblingSpanTasks,2022.2.1,Win32,60.0240096,,,,,,,,3.027,,,,,,,,,,,,,,2,n,0.973,20.53,1,4.027,1,0,48,48,9,1,20.53,0,7.73,0,,,,,,,,,,,,,,,,,,,,,,,,,,,,,,,,,,,,,,,,,,,,,,,,,,,,,,,,,,,,,,,,,,,,,,,,,,,,,,,,,,,,,,,,,,,,,,,,,,
,,55b508f4fdf99b1c26c21c69,2022-09-08_10h33.43.739,CGTgamblingSpanTasks,2022.2.1,Win32,60.0240096,,,,,,,,3.289,,,,,,,,,,,,,,1,v,0.711,0,1,4.789,1.5,0,49,49,27,1,16.6,0,9.7,0,,,,,,,,,,,,,,,,,,,,,,,,,,,,,,,,,,,,,,,,,,,,,,,,,,,,,,,,,,,,,,,,,,,,,,,,,,,,,,,,,,,,,,,,,,,,,,,,,,
,,55b508f4fdf99b1c26c21c69,2022-09-08_10h33.43.739,CGTgamblingSpanTasks,2022.2.1,Win32,60.0240096,,,,,,,,,,,,,,,,,,,,,,,,,,,,,,,,,,,,,,bespoke_choiceset_rhoInd200_muInd053.csv,bespoke_choicesets/bespoke_choiceset_rhoInd200_muInd053.csv,200,53,0,0,0,0,1,,,,,,,,,,,,,,,,,,,,,,,,,,,,,,,,,,,,,,,,,,,,,,,,,,,,,,,,,,,,,,,,,,,,,,,,,,,,,,,,,,,,,,,,,
,,55b508f4fdf99b1c26c21c69,2022-09-08_10h33.43.739,CGTgamblingSpanTasks,2022.2.1,Win32,60.0240096,,,,,,,,,,,,,,,,,,,,,,,,,,,,,,,,,,,,,,,,,,,,,,,,,,,,,,,,,,,,,,,,,,,,,,,,,,,,,,,,,,,,,,,,,,,,,,,,,,,,,,,,,,,,,,,,,,,,,,,,,,,,,,,,,,,,,,,
,,55b508f4fdf99b1c26c21c69,2022-09-08_10h33.43.739,CGTgamblingSpanTasks,2022.2.1,Win32,60.0240096,,,,,,,,,,,,,,,,,,,,,,,,,,,,,,,,,,,,,,,,,,,,,,,n,1.927,,,,,,,,,,,,,,,,,,,,,,,,,,,,,,,,,,,,,,,,,,,,,,,,,,,,,,,,,,,,,,,,,,,,,,,,,,,,,,,,,,,,,,,
,,55b508f4fdf99b1c26c21c69,2022-09-08_10h33.43.739,CGTgamblingSpanTasks,2022.2.1,Win32,60.0240096,,,,,,,,2.913,,,,,,,,,,,,,,2,n,1.087,27.2532142,1,4.413,1.5,,,,,,27.2532142,0,0.08089327,,,,,,,,,,,,,0,0,0,119,1,0.907091845,0,,,,,,,,,,,,,,,,,,,,,,,,,,,,,,,,,,,,,,,,,,,,,,,,,,,,,,,,,,,,,,,,,,,,,,,,,,,,,,,,
,,55b508f4fdf99b1c26c21c69,2022-09-08_10h33.43.739,CGTgamblingSpanTasks,2022.2.1,Win32,60.0240096,,,,,,,,3.058,,,,,,,,,,,,,,2,n,0.942,7.534278541,1,4.058,1,,,,,,7.534278541,0,0.747140182,,,,,,,,,,,,,0,1,1,37,1,0.50012466,1,,,,,,,,,,,,,,,,,,,,,,,,,,,,,,,,,,,,,,,,,,,,,,,,,,,,,,,,,,,,,,,,,,,,,,,,,,,,,,,,
,,55b508f4fdf99b1c26c21c69,2022-09-08_10h33.43.739,CGTgamblingSpanTasks,2022.2.1,Win32,60.0240096,,,,,,,,3.28,,,,,,,,,,,,,,2,n,0.72,0,1,4.28,1,,,,,,22.72923833,0,0.067170781,,,,,,,,,,,,,0,2,2,86,1,0.907226703,0,,,,,,,,,,,,,,,,,,,,,,,,,,,,,,,,,,,,,,,,,,,,,,,,,,,,,,,,,,,,,,,,,,,,,,,,,,,,,,,,
,,55b508f4fdf99b1c26c21c69,2022-09-08_10h33.43.739,CGTgamblingSpanTasks,2022.2.1,Win32,60.0240096,,,,,,,,3.233,,,,,,,,,,,,,,2,v,0.767,11.42134125,0,4.733,1.5,,,,,,12.9904115,0,11.42134125,,,,,,,,,,,,,0,3,3,118,1,0.037876033,0,,,,,,,,,,,,,,,,,,,,,,,,,,,,,,,,,,,,,,,,,,,,,,,,,,,,,,,,,,,,,,,,,,,,,,,,,,,,,,,,
,,55b508f4fdf99b1c26c21c69,2022-09-08_10h33.43.739,CGTgamblingSpanTasks,2022.2.1,Win32,60.0240096,,,,,,,,3.221,,,,,,,,,,,,,,2,n,0.779,0,1,4.221,1,,,,,,27.4965044,0,2.461467004,,,,,,,,,,,,,0,4,4,36,1,0.526550878,1,,,,,,,,,,,,,,,,,,,,,,,,,,,,,,,,,,,,,,,,,,,,,,,,,,,,,,,,,,,,,,,,,,,,,,,,,,,,,,,,
,,55b508f4fdf99b1c26c21c69,2022-09-08_10h33.43.739,CGTgamblingSpanTasks,2022.2.1,Win32,60.0240096,,,,,,,,3.206,,,,,,,,,,,,,,1,v,0.794,3.471484939,1,4.206,1,,,,,,3.471484939,0,3.877530383,,,,,,,,,,,,,0,5,5,40,1,0.02623078,0,,,,,,,,,,,,,,,,,,,,,,,,,,,,,,,,,,,,,,,,,,,,,,,,,,,,,,,,,,,,,,,,,,,,,,,,,,,,,,,,
,,55b508f4fdf99b1c26c21c69,2022-09-08_10h33.43.739,CGTgamblingSpanTasks,2022.2.1,Win32,60.0240096,,,,,,,,3.177,,,,,,,,,,,,,,2,n,0.823,24.35708027,1,4.177,1,,,,,,24.35708027,0,2.738695417,,,,,,,,,,,,,0,6,6,114,1,0.466573634,1,,,,,,,,,,,,,,,,,,,,,,,,,,,,,,,,,,,,,,,,,,,,,,,,,,,,,,,,,,,,,,,,,,,,,,,,,,,,,,,,
,,55b508f4fdf99b1c26c21c69,2022-09-08_10h33.43.739,CGTgamblingSpanTasks,2022.2.1,Win32,60.0240096,,,,,,,,3.16,,,,,,,,,,,,,,2,n,0.84,0,1,4.16,1,,,,,,11.16819157,0,0.941456753,,,,,,,,,,,,,0,7,7,45,1,0.54163803,1,,,,,,,,,,,,,,,,,,,,,,,,,,,,,,,,,,,,,,,,,,,,,,,,,,,,,,,,,,,,,,,,,,,,,,,,,,,,,,,,
,,55b508f4fdf99b1c26c21c69,2022-09-08_10h33.43.739,CGTgamblingSpanTasks,2022.2.1,Win32,60.0240096,,,,,,,,3.314,,,,,,,,,,,,,,1,v,0.686,21.48443242,1,4.314,1,,,,,,21.48443242,0,2.229247341,,,,,,,,,,,,,0,8,8,63,1,0.488155912,1,,,,,,,,,,,,,,,,,,,,,,,,,,,,,,,,,,,,,,,,,,,,,,,,,,,,,,,,,,,,,,,,,,,,,,,,,,,,,,,,
,,55b508f4fdf99b1c26c21c69,2022-09-08_10h33.43.739,CGTgamblingSpanTasks,2022.2.1,Win32,60.0240096,,,,,,,,3.187,,,,,,,,,,,,,,1,v,0.813,0,1,4.687,1.5,,,,,,20.5726842,0,0.073558523,,,,,,,,,,,,,0,9,9,26,1,0.901008565,0,,,,,,,,,,,,,,,,,,,,,,,,,,,,,,,,,,,,,,,,,,,,,,,,,,,,,,,,,,,,,,,,,,,,,,,,,,,,,,,,
,,55b508f4fdf99b1c26c21c69,2022-09-08_10h33.43.739,CGTgamblingSpanTasks,2022.2.1,Win32,60.0240096,,,,,,,,3.135,,,,,,,,,,,,,,2,v,0.865,10.41201161,0,4.135,1,,,,,,6.307062696,0,10.41201161,,,,,,,,,,,,,0,10,10,23,1,0.018187109,0,,,,,,,,,,,,,,,,,,,,,,,,,,,,,,,,,,,,,,,,,,,,,,,,,,,,,,,,,,,,,,,,,,,,,,,,,,,,,,,,
,,55b508f4fdf99b1c26c21c69,2022-09-08_10h33.43.739,CGTgamblingSpanTasks,2022.2.1,Win32,60.0240096,,,,,,,,3.321,,,,,,,,,,,,,,2,n,0.679,27.12325385,1,4.821,1.5,,,,,,27.12325385,0,0.080932047,,,,,,,,,,,,,0,11,11,14,1,0.906929184,0,,,,,,,,,,,,,,,,,,,,,,,,,,,,,,,,,,,,,,,,,,,,,,,,,,,,,,,,,,,,,,,,,,,,,,,,,,,,,,,,
,,55b508f4fdf99b1c26c21c69,2022-09-08_10h33.43.739,CGTgamblingSpanTasks,2022.2.1,Win32,60.0240096,,,,,,,,3.158,,,,,,,,,,,,,,2,n,0.842,0,1,4.658,1.5,,,,,,9.725876653,0,5.526483034,,,,,,,,,,,,,0,12,12,44,1,0.082550696,0,,,,,,,,,,,,,,,,,,,,,,,,,,,,,,,,,,,,,,,,,,,,,,,,,,,,,,,,,,,,,,,,,,,,,,,,,,,,,,,,
,,55b508f4fdf99b1c26c21c69,2022-09-08_10h33.43.739,CGTgamblingSpanTasks,2022.2.1,Win32,60.0240096,,,,,,,,3.283,,,,,,,,,,,,,,1,v,0.717,28.9381277,1,4.783,1.5,,,,,,28.9381277,0,2.663622024,,,,,,,,,,,,,0,13,13,103,1,0.519453367,1,,,,,,,,,,,,,,,,,,,,,,,,,,,,,,,,,,,,,,,,,,,,,,,,,,,,,,,,,,,,,,,,,,,,,,,,,,,,,,,,
,,55b508f4fdf99b1c26c21c69,2022-09-08_10h33.43.739,CGTgamblingSpanTasks,2022.2.1,Win32,60.0240096,,,,,,,,3.234,,,,,,,,,,,,,,1,v,0.766,26.11188619,1,4.234,1,,,,,,26.11188619,0,0.081942421,,,,,,,,,,,,,0,14,14,105,1,0.905343856,0,,,,,,,,,,,,,,,,,,,,,,,,,,,,,,,,,,,,,,,,,,,,,,,,,,,,,,,,,,,,,,,,,,,,,,,,,,,,,,,,
,,55b508f4fdf99b1c26c21c69,2022-09-08_10h33.43.739,CGTgamblingSpanTasks,2022.2.1,Win32,60.0240096,,,,,,,,3.253,,,,,,,,,,,,,,1,v,0.747,0,1,4.753,1.5,,,,,,15.87668502,0,8.42547829,,,,,,,,,,,,,0,15,15,56,1,0.092099462,0,,,,,,,,,,,,,,,,,,,,,,,,,,,,,,,,,,,,,,,,,,,,,,,,,,,,,,,,,,,,,,,,,,,,,,,,,,,,,,,,
,,55b508f4fdf99b1c26c21c69,2022-09-08_10h33.43.739,CGTgamblingSpanTasks,2022.2.1,Win32,60.0240096,,,,,,,,2.954,,,,,,,,,,,,,,2,v,1.046,4.904872644,0,3.954,1,,,,,,4.698775357,0,4.904872644,,,,,,,,,,,,,0,16,16,75,1,0.028064484,0,,,,,,,,,,,,,,,,,,,,,,,,,,,,,,,,,,,,,,,,,,,,,,,,,,,,,,,,,,,,,,,,,,,,,,,,,,,,,,,,
,,55b508f4fdf99b1c26c21c69,2022-09-08_10h33.43.739,CGTgamblingSpanTasks,2022.2.1,Win32,60.0240096,,,,,,,,3.007,,,,,,,,,,,,,,2,v,0.993,5.683635938,0,4.507,1.5,,,,,,4.941039335,0,5.683635938,,,,,,,,,,,,,0,17,17,9,1,0.025481984,0,,,,,,,,,,,,,,,,,,,,,,,,,,,,,,,,,,,,,,,,,,,,,,,,,,,,,,,,,,,,,,,,,,,,,,,,,,,,,,,,
,,55b508f4fdf99b1c26c21c69,2022-09-08_10h33.43.739,CGTgamblingSpanTasks,2022.2.1,Win32,60.0240096,,,,,,,,3.122,,,,,,,,,,,,,,2,n,0.878,0,1,4.122,1,,,,,,24.479109,0,0.089582697,,,,,,,,,,,,,0,18,18,89,1,0.900200232,0,,,,,,,,,,,,,,,,,,,,,,,,,,,,,,,,,,,,,,,,,,,,,,,,,,,,,,,,,,,,,,,,,,,,,,,,,,,,,,,,
,,55b508f4fdf99b1c26c21c69,2022-09-08_10h33.43.739,CGTgamblingSpanTasks,2022.2.1,Win32,60.0240096,,,,,,,,3.081,,,,,,,,,,,,,,2,n,0.919,11.08143071,1,4.081,1,,,,,,11.08143071,0,1.207538756,,,,,,,,,,,,,0,19,19,84,1,0.475047453,1,,,,,,,,,,,,,,,,,,,,,,,,,,,,,,,,,,,,,,,,,,,,,,,,,,,,,,,,,,,,,,,,,,,,,,,,,,,,,,,,
,,55b508f4fdf99b1c26c21c69,2022-09-08_10h33.43.739,CGTgamblingSpanTasks,2022.2.1,Win32,60.0240096,,,,,,,,3.234,,,,,,,,,,,,,,1,v,0.766,0,1,4.734,1.5,,,,,,28.33977875,0,2.768313633,,,,,,,,,,,,,0,20,20,116,1,0.50406901,1,,,,,,,,,,,,,,,,,,,,,,,,,,,,,,,,,,,,,,,,,,,,,,,,,,,,,,,,,,,,,,,,,,,,,,,,,,,,,,,,
,,55b508f4fdf99b1c26c21c69,2022-09-08_10h33.43.739,CGTgamblingSpanTasks,2022.2.1,Win32,60.0240096,,,,,,,,3.303,,,,,,,,,,,,,,2,n,0.697,0,1,4.803,1.5,,,,,,19.68065872,0,1.843597162,,,,,,,,,,,,,0,21,21,80,1,0.514941058,1,,,,,,,,,,,,,,,,,,,,,,,,,,,,,,,,,,,,,,,,,,,,,,,,,,,,,,,,,,,,,,,,,,,,,,,,,,,,,,,,
,,55b508f4fdf99b1c26c21c69,2022-09-08_10h33.43.739,CGTgamblingSpanTasks,2022.2.1,Win32,60.0240096,,,,,,,,2.997,,,,,,,,,,,,,,1,n,1.003,1.002188111,0,3.997,1,,,,,,9.012590634,0,1.002188111,,,,,,,,,,,,,0,22,22,12,1,0.46958041,1,,,,,,,,,,,,,,,,,,,,,,,,,,,,,,,,,,,,,,,,,,,,,,,,,,,,,,,,,,,,,,,,,,,,,,,,,,,,,,,,
,,55b508f4fdf99b1c26c21c69,2022-09-08_10h33.43.739,CGTgamblingSpanTasks,2022.2.1,Win32,60.0240096,,,,,,,,3.167,,,,,,,,,,,,,,1,v,0.833,0,1,4.667,1.5,,,,,,25.76582409,0,2.393193076,,,,,,,,,,,,,0,23,23,46,1,0.517129855,1,,,,,,,,,,,,,,,,,,,,,,,,,,,,,,,,,,,,,,,,,,,,,,,,,,,,,,,,,,,,,,,,,,,,,,,,,,,,,,,,
,,55b508f4fdf99b1c26c21c69,2022-09-08_10h33.43.739,CGTgamblingSpanTasks,2022.2.1,Win32,60.0240096,,,,,,,,2.874,,,,,,,,,,,,,,2,v,1.126,10.3417501,0,4.374,1.5,,,,,,15.21435748,0,10.3417501,,,,,,,,,,,,,0,24,24,72,1,0.060969226,0,,,,,,,,,,,,,,,,,,,,,,,,,,,,,,,,,,,,,,,,,,,,,,,,,,,,,,,,,,,,,,,,,,,,,,,,,,,,,,,,
,,55b508f4fdf99b1c26c21c69,2022-09-08_10h33.43.739,CGTgamblingSpanTasks,2022.2.1,Win32,60.0240096,,,,,,,,3.027,,,,,,,,,,,,,,2,n,0.973,0,1,4.527,1.5,,,,,,29.77342428,0,2.838865588,,,,,,,,,,,,,0,25,25,57,1,0.510363415,1,,,,,,,,,,,,,,,,,,,,,,,,,,,,,,,,,,,,,,,,,,,,,,,,,,,,,,,,,,,,,,,,,,,,,,,,,,,,,,,,
,,55b508f4fdf99b1c26c21c69,2022-09-08_10h33.43.739,CGTgamblingSpanTasks,2022.2.1,Win32,60.0240096,,,,,,,,3.297,,,,,,,,,,,,,,2,n,0.703,27.7711693,1,4.297,1,,,,,,27.7711693,0,2.320849632,,,,,,,,,,,,,0,26,26,94,1,0.543786368,1,,,,,,,,,,,,,,,,,,,,,,,,,,,,,,,,,,,,,,,,,,,,,,,,,,,,,,,,,,,,,,,,,,,,,,,,,,,,,,,,
,,55b508f4fdf99b1c26c21c69,2022-09-08_10h33.43.739,CGTgamblingSpanTasks,2022.2.1,Win32,60.0240096,,,,,,,,3.08,,,,,,,,,,,,,,1,v,0.92,6.325091157,1,4.58,1.5,,,,,,6.325091157,0,6.833409611,,,,,,,,,,,,,0,27,27,58,1,0.027113638,0,,,,,,,,,,,,,,,,,,,,,,,,,,,,,,,,,,,,,,,,,,,,,,,,,,,,,,,,,,,,,,,,,,,,,,,,,,,,,,,,
,,55b508f4fdf99b1c26c21c69,2022-09-08_10h33.43.739,CGTgamblingSpanTasks,2022.2.1,Win32,60.0240096,,,,,,,,3.123,,,,,,,,,,,,,,1,v,0.877,28.68598705,1,4.123,1,,,,,,28.68598705,0,0.050674956,,,,,,,,,,,,,0,28,28,62,1,0.920905497,0,,,,,,,,,,,,,,,,,,,,,,,,,,,,,,,,,,,,,,,,,,,,,,,,,,,,,,,,,,,,,,,,,,,,,,,,,,,,,,,,
,,55b508f4fdf99b1c26c21c69,2022-09-08_10h33.43.739,CGTgamblingSpanTasks,2022.2.1,Win32,60.0240096,,,,,,,,3.007,,,,,,,,,,,,,,1,n,0.993,8.512335864,0,4.507,1.5,,,,,,10.05300841,0,8.512335864,,,,,,,,,,,,,0,29,29,74,1,0.040729225,0,,,,,,,,,,,,,,,,,,,,,,,,,,,,,,,,,,,,,,,,,,,,,,,,,,,,,,,,,,,,,,,,,,,,,,,,,,,,,,,,
,,55b508f4fdf99b1c26c21c69,2022-09-08_10h33.43.739,CGTgamblingSpanTasks,2022.2.1,Win32,60.0240096,,,,,,,,3.014,,,,,,,,,,,,,,2,n,0.986,27.93093084,1,4.014,1,,,,,,27.93093084,0,0.050207531,,,,,,,,,,,,,0,30,30,83,1,0.920505936,0,,,,,,,,,,,,,,,,,,,,,,,,,,,,,,,,,,,,,,,,,,,,,,,,,,,,,,,,,,,,,,,,,,,,,,,,,,,,,,,,
,,55b508f4fdf99b1c26c21c69,2022-09-08_10h33.43.739,CGTgamblingSpanTasks,2022.2.1,Win32,60.0240096,,,,,,,,3.252,,,,,,,,,,,,,,2,n,0.748,0,1,4.752,1.5,,,,,,25.54604005,0,0.088845411,,,,,,,,,,,,,0,31,31,79,1,0.901957831,0,,,,,,,,,,,,,,,,,,,,,,,,,,,,,,,,,,,,,,,,,,,,,,,,,,,,,,,,,,,,,,,,,,,,,,,,,,,,,,,,
,,55b508f4fdf99b1c26c21c69,2022-09-08_10h33.43.739,CGTgamblingSpanTasks,2022.2.1,Win32,60.0240096,,,,,,,,3.167,,,,,,,,,,,,,,2,n,0.833,0,1,4.667,1.5,,,,,,19.36415485,0,1.966229494,,,,,,,,,,,,,0,32,32,96,1,0.493893111,1,,,,,,,,,,,,,,,,,,,,,,,,,,,,,,,,,,,,,,,,,,,,,,,,,,,,,,,,,,,,,,,,,,,,,,,,,,,,,,,,
,,55b508f4fdf99b1c26c21c69,2022-09-08_10h33.43.739,CGTgamblingSpanTasks,2022.2.1,Win32,60.0240096,,,,,,,,3.045,,,,,,,,,,,,,,1,v,0.955,0,1,4.545,1.5,,,,,,19.30622782,0,10.31611309,,,,,,,,,,,,,0,33,33,1,1,0.091105656,0,,,,,,,,,,,,,,,,,,,,,,,,,,,,,,,,,,,,,,,,,,,,,,,,,,,,,,,,,,,,,,,,,,,,,,,,,,,,,,,,
,,55b508f4fdf99b1c26c21c69,2022-09-08_10h33.43.739,CGTgamblingSpanTasks,2022.2.1,Win32,60.0240096,,,,,,,,3.385,,,,,,,,,,,,,,1,v,0.615,25.26994993,1,4.885,1.5,,,,,,25.26994993,0,2.78925142,,,,,,,,,,,,,0,34,34,108,1,0.471582922,1,,,,,,,,,,,,,,,,,,,,,,,,,,,,,,,,,,,,,,,,,,,,,,,,,,,,,,,,,,,,,,,,,,,,,,,,,,,,,,,,
,,55b508f4fdf99b1c26c21c69,2022-09-08_10h33.43.739,CGTgamblingSpanTasks,2022.2.1,Win32,60.0240096,,,,,,,,3.262,,,,,,,,,,,,,,2,n,0.738,22.25959835,1,4.262,1,,,,,,22.25959835,0,0.065383587,,,,,,,,,,,,,0,35,35,97,1,0.907413875,0,,,,,,,,,,,,,,,,,,,,,,,,,,,,,,,,,,,,,,,,,,,,,,,,,,,,,,,,,,,,,,,,,,,,,,,,,,,,,,,,
,,55b508f4fdf99b1c26c21c69,2022-09-08_10h33.43.739,CGTgamblingSpanTasks,2022.2.1,Win32,60.0240096,,,,,,,,3.152,,,,,,,,,,,,,,2,n,0.848,0,1,4.152,1,,,,,,2.231316635,0,7.50753835,,,,,,,,,,,,,0,36,36,29,1,0.010273427,0,,,,,,,,,,,,,,,,,,,,,,,,,,,,,,,,,,,,,,,,,,,,,,,,,,,,,,,,,,,,,,,,,,,,,,,,,,,,,,,,
,,55b508f4fdf99b1c26c21c69,2022-09-08_10h33.43.739,CGTgamblingSpanTasks,2022.2.1,Win32,60.0240096,,,,,,,,3.003,,,,,,,,,,,,,,1,n,0.997,11.19311486,0,4.503,1.5,,,,,,8.17598802,0,11.19311486,,,,,,,,,,,,,0,37,37,110,1,0.021568003,0,,,,,,,,,,,,,,,,,,,,,,,,,,,,,,,,,,,,,,,,,,,,,,,,,,,,,,,,,,,,,,,,,,,,,,,,,,,,,,,,
,,55b508f4fdf99b1c26c21c69,2022-09-08_10h33.43.739,CGTgamblingSpanTasks,2022.2.1,Win32,60.0240096,,,,,,,,3.061,,,,,,,,,,,,,,1,v,0.939,0,1,4.561,1.5,,,,,,29.75778644,0,2.810531415,,,,,,,,,,,,,0,38,38,113,1,0.512824233,1,,,,,,,,,,,,,,,,,,,,,,,,,,,,,,,,,,,,,,,,,,,,,,,,,,,,,,,,,,,,,,,,,,,,,,,,,,,,,,,,
,,55b508f4fdf99b1c26c21c69,2022-09-08_10h33.43.739,CGTgamblingSpanTasks,2022.2.1,Win32,60.0240096,,,,,,,,3.073,,,,,,,,,,,,,,2,v,0.927,7.850775577,0,4.073,1,,,,,,4.622707531,0,7.850775577,,,,,,,,,,,,,0,39,39,6,1,0.017737407,0,,,,,,,,,,,,,,,,,,,,,,,,,,,,,,,,,,,,,,,,,,,,,,,,,,,,,,,,,,,,,,,,,,,,,,,,,,,,,,,,
,,55b508f4fdf99b1c26c21c69,2022-09-08_10h33.43.739,CGTgamblingSpanTasks,2022.2.1,Win32,60.0240096,,,,,,,,3.056,,,,,,,,,,,,,,2,n,0.944,17.4320197,1,4.556,1.5,,,,,,17.4320197,0,1.448620949,,,,,,,,,,,,,0,40,40,30,1,0.545178213,1,,,,,,,,,,,,,,,,,,,,,,,,,,,,,,,,,,,,,,,,,,,,,,,,,,,,,,,,,,,,,,,,,,,,,,,,,,,,,,,,
,,55b508f4fdf99b1c26c21c69,2022-09-08_10h33.43.739,CGTgamblingSpanTasks,2022.2.1,Win32,60.0240096,,,,,,,,3.04,,,,,,,,,,,,,,2,n,0.96,0,1,4.54,1.5,,,,,,27.39221343,0,2.743407746,,,,,,,,,,,,,0,41,41,47,1,0.49752044,1,,,,,,,,,,,,,,,,,,,,,,,,,,,,,,,,,,,,,,,,,,,,,,,,,,,,,,,,,,,,,,,,,,,,,,,,,,,,,,,,
,,55b508f4fdf99b1c26c21c69,2022-09-08_10h33.43.739,CGTgamblingSpanTasks,2022.2.1,Win32,60.0240096,,,,,,,,3.194,,,,,,,,,,,,,,1,v,0.806,0,1,4.194,1,,,,,,17.67865084,0,11.35147481,,,,,,,,,,,,,0,42,42,91,1,0.067304606,0,,,,,,,,,,,,,,,,,,,,,,,,,,,,,,,,,,,,,,,,,,,,,,,,,,,,,,,,,,,,,,,,,,,,,,,,,,,,,,,,
,,55b508f4fdf99b1c26c21c69,2022-09-08_10h33.43.739,CGTgamblingSpanTasks,2022.2.1,Win32,60.0240096,,,,,,,,3.19,,,,,,,,,,,,,,1,v,0.81,22.62475578,1,4.69,1.5,,,,,,22.62475578,0,2.397643354,,,,,,,,,,,,,0,43,43,93,1,0.482527609,1,,,,,,,,,,,,,,,,,,,,,,,,,,,,,,,,,,,,,,,,,,,,,,,,,,,,,,,,,,,,,,,,,,,,,,,,,,,,,,,,
,,55b508f4fdf99b1c26c21c69,2022-09-08_10h33.43.739,CGTgamblingSpanTasks,2022.2.1,Win32,60.0240096,,,,,,,,3.202,,,,,,,,,,,,,,2,n,0.798,28.14876717,1,4.702,1.5,,,,,,28.14876717,0,3.117906378,,,,,,,,,,,,,0,44,44,76,1,0.470636736,1,,,,,,,,,,,,,,,,,,,,,,,,,,,,,,,,,,,,,,,,,,,,,,,,,,,,,,,,,,,,,,,,,,,,,,,,,,,,,,,,
,,55b508f4fdf99b1c26c21c69,2022-09-08_10h33.43.739,CGTgamblingSpanTasks,2022.2.1,Win32,60.0240096,,,,,,,,2.995,,,,,,,,,,,,,,2,n,1.005,15.13999312,1,3.995,1,,,,,,15.13999312,0,8.653432553,,,,,,,,,,,,,0,45,45,54,1,0.081767484,0,,,,,,,,,,,,,,,,,,,,,,,,,,,,,,,,,,,,,,,,,,,,,,,,,,,,,,,,,,,,,,,,,,,,,,,,,,,,,,,,
,,55b508f4fdf99b1c26c21c69,2022-09-08_10h33.43.739,CGTgamblingSpanTasks,2022.2.1,Win32,60.0240096,,,,,,,,3.202,,,,,,,,,,,,,,2,n,0.798,0,1,4.702,1.5,,,,,,18.51345298,0,1.932334278,,,,,,,,,,,,,0,46,46,31,1,0.48658696,1,,,,,,,,,,,,,,,,,,,,,,,,,,,,,,,,,,,,,,,,,,,,,,,,,,,,,,,,,,,,,,,,,,,,,,,,,,,,,,,,
,,55b508f4fdf99b1c26c21c69,2022-09-08_10h33.43.739,CGTgamblingSpanTasks,2022.2.1,Win32,60.0240096,,,,,,,,3.024,,,,,,,,,,,,,,2,v,0.976,10.68505773,0,4.524,1.5,,,,,,17.64114152,0,10.68505773,,,,,,,,,,,,,0,47,47,98,1,0.074299362,0,,,,,,,,,,,,,,,,,,,,,,,,,,,,,,,,,,,,,,,,,,,,,,,,,,,,,,,,,,,,,,,,,,,,,,,,,,,,,,,,
,,55b508f4fdf99b1c26c21c69,2022-09-08_10h33.43.739,CGTgamblingSpanTasks,2022.2.1,Win32,60.0240096,,,,,,,,3.189,,,,,,,,,,,,,,2,n,0.811,0,1,4.189,1,,,,,,17.30137174,0,1.716380842,,,,,,,,,,,,,0,48,48,20,1,0.500020285,1,,,,,,,,,,,,,,,,,,,,,,,,,,,,,,,,,,,,,,,,,,,,,,,,,,,,,,,,,,,,,,,,,,,,,,,,,,,,,,,,
,,55b508f4fdf99b1c26c21c69,2022-09-08_10h33.43.739,CGTgamblingSpanTasks,2022.2.1,Win32,60.0240096,,,,,,,,3.234,,,,,,,,,,,,,,1,v,0.766,0,1,4.734,1.5,,,,,,27.53810185,0,0.097022401,,,,,,,,,,,,,0,49,49,50,1,0.901515865,0,,,,,,,,,,,,,,,,,,,,,,,,,,,,,,,,,,,,,,,,,,,,,,,,,,,,,,,,,,,,,,,,,,,,,,,,,,,,,,,,
,,55b508f4fdf99b1c26c21c69,2022-09-08_10h33.43.739,CGTgamblingSpanTasks,2022.2.1,Win32,60.0240096,,,,,,,,3.184,,,,,,,,,,,,,,2,n,0.816,14.3363647,1,4.684,1.5,,,,,,14.3363647,0,1.396635362,,,,,,,,,,,,,0,50,50,78,1,0.504775474,1,,,,,,,,,,,,,,,,,,,,,,,,,,,,,,,,,,,,,,,,,,,,,,,,,,,,,,,,,,,,,,,,,,,,,,,,,,,,,,,,
,,55b508f4fdf99b1c26c21c69,2022-09-08_10h33.43.739,CGTgamblingSpanTasks,2022.2.1,Win32,60.0240096,,,,,,,,3.244,,,,,,,,,,,,,,1,v,0.756,28.18900855,1,4.244,1,,,,,,28.18900855,0,0.05384276,,,,,,,,,,,,,0,51,51,55,1,0.919081308,0,,,,,,,,,,,,,,,,,,,,,,,,,,,,,,,,,,,,,,,,,,,,,,,,,,,,,,,,,,,,,,,,,,,,,,,,,,,,,,,,
,,55b508f4fdf99b1c26c21c69,2022-09-08_10h33.43.739,CGTgamblingSpanTasks,2022.2.1,Win32,60.0240096,,,,,,,,3.252,,,,,,,,,,,,,,1,v,0.748,0,1,4.252,1,,,,,,13.84410806,0,1.535873964,,,,,,,,,,,,,0,52,52,88,1,0.470209002,1,,,,,,,,,,,,,,,,,,,,,,,,,,,,,,,,,,,,,,,,,,,,,,,,,,,,,,,,,,,,,,,,,,,,,,,,,,,,,,,,
,,55b508f4fdf99b1c26c21c69,2022-09-08_10h33.43.739,CGTgamblingSpanTasks,2022.2.1,Win32,60.0240096,,,,,,,,3.214,,,,,,,,,,,,,,1,v,0.786,18.11029021,1,4.714,1.5,,,,,,18.11029021,0,11.41737518,,,,,,,,,,,,,0,53,53,48,1,0.069445859,0,,,,,,,,,,,,,,,,,,,,,,,,,,,,,,,,,,,,,,,,,,,,,,,,,,,,,,,,,,,,,,,,,,,,,,,,,,,,,,,,
,,55b508f4fdf99b1c26c21c69,2022-09-08_10h33.43.739,CGTgamblingSpanTasks,2022.2.1,Win32,60.0240096,,,,,,,,3.171,,,,,,,,,,,,,,2,n,0.829,22.0050376,1,4.171,1,,,,,,22.0050376,0,2.257683666,,,,,,,,,,,,,0,54,54,4,1,0.491147312,1,,,,,,,,,,,,,,,,,,,,,,,,,,,,,,,,,,,,,,,,,,,,,,,,,,,,,,,,,,,,,,,,,,,,,,,,,,,,,,,,
,,55b508f4fdf99b1c26c21c69,2022-09-08_10h33.43.739,CGTgamblingSpanTasks,2022.2.1,Win32,60.0240096,,,,,,,,3.249,,,,,,,,,,,,,,1,v,0.751,0,1,4.249,1,,,,,,21.00799273,0,0.067969053,,,,,,,,,,,,,0,55,55,92,1,0.904360262,0,,,,,,,,,,,,,,,,,,,,,,,,,,,,,,,,,,,,,,,,,,,,,,,,,,,,,,,,,,,,,,,,,,,,,,,,,,,,,,,,
,,55b508f4fdf99b1c26c21c69,2022-09-08_10h33.43.739,CGTgamblingSpanTasks,2022.2.1,Win32,60.0240096,,,,,,,,3.203,,,,,,,,,,,,,,2,n,0.797,0,1,4.703,1.5,,,,,,23.0613391,0,2.387726776,,,,,,,,,,,,,0,56,56,69,1,0.488727763,1,,,,,,,,,,,,,,,,,,,,,,,,,,,,,,,,,,,,,,,,,,,,,,,,,,,,,,,,,,,,,,,,,,,,,,,,,,,,,,,,
,,55b508f4fdf99b1c26c21c69,2022-09-08_10h33.43.739,CGTgamblingSpanTasks,2022.2.1,Win32,60.0240096,,,,,,,,3.284,,,,,,,,,,,,,,2,n,0.716,28.13634754,1,4.784,1.5,,,,,,28.13634754,0,2.532806323,,,,,,,,,,,,,0,57,57,28,1,0.525136524,1,,,,,,,,,,,,,,,,,,,,,,,,,,,,,,,,,,,,,,,,,,,,,,,,,,,,,,,,,,,,,,,,,,,,,,,,,,,,,,,,
,,55b508f4fdf99b1c26c21c69,2022-09-08_10h33.43.739,CGTgamblingSpanTasks,2022.2.1,Win32,60.0240096,,,,,,,,3.315,,,,,,,,,,,,,,1,v,0.685,24.57684014,1,4.815,1.5,,,,,,24.57684014,0,0.061756244,,,,,,,,,,,,,0,58,58,68,1,0.911988903,0,,,,,,,,,,,,,,,,,,,,,,,,,,,,,,,,,,,,,,,,,,,,,,,,,,,,,,,,,,,,,,,,,,,,,,,,,,,,,,,,
,,55b508f4fdf99b1c26c21c69,2022-09-08_10h33.43.739,CGTgamblingSpanTasks,2022.2.1,Win32,60.0240096,,,,,,,,3.24,,,,,,,,,,,,,,2,n,0.76,0,1,4.74,1.5,,,,,,19.3050342,0,2.030232342,,,,,,,,,,,,,0,59,59,73,1,0.484573227,1,,,,,,,,,,,,,,,,,,,,,,,,,,,,,,,,,,,,,,,,,,,,,,,,,,,,,,,,,,,,,,,,,,,,,,,,,,,,,,,,
,,55b508f4fdf99b1c26c21c69,2022-09-08_10h33.43.739,CGTgamblingSpanTasks,2022.2.1,Win32,60.0240096,,,,,,,,3.298,,,,,,,,,,,,,,2,n,0.702,18.16238569,1,4.798,1.5,,,,,,18.16238569,0,1.540604093,,,,,,,,,,,,,0,60,60,34,1,0.540092491,1,,,,,,,,,,,,,,,,,,,,,,,,,,,,,,,,,,,,,,,,,,,,,,,,,,,,,,,,,,,,,,,,,,,,,,,,,,,,,,,,
,,55b508f4fdf99b1c26c21c69,2022-09-08_10h33.43.739,CGTgamblingSpanTasks,2022.2.1,Win32,60.0240096,,,,,,,,3.332,,,,,,,,,,,,,,1,v,0.668,0,1,4.832,1.5,,,,,,28.9323758,0,2.893007023,,,,,,,,,,,,,0,61,61,11,1,0.497943321,1,,,,,,,,,,,,,,,,,,,,,,,,,,,,,,,,,,,,,,,,,,,,,,,,,,,,,,,,,,,,,,,,,,,,,,,,,,,,,,,,
,,55b508f4fdf99b1c26c21c69,2022-09-08_10h33.43.739,CGTgamblingSpanTasks,2022.2.1,Win32,60.0240096,,,,,,,,3.31,,,,,,,,,,,,,,2,n,0.69,23.24777057,1,4.81,1.5,,,,,,23.24777057,0,2.003482335,,,,,,,,,,,,,0,62,62,59,1,0.536135174,1,,,,,,,,,,,,,,,,,,,,,,,,,,,,,,,,,,,,,,,,,,,,,,,,,,,,,,,,,,,,,,,,,,,,,,,,,,,,,,,,
,,55b508f4fdf99b1c26c21c69,2022-09-08_10h33.43.739,CGTgamblingSpanTasks,2022.2.1,Win32,60.0240096,,,,,,,,3.297,,,,,,,,,,,,,,2,n,0.703,21.46599803,1,4.797,1.5,,,,,,21.46599803,0,0.059789256,,,,,,,,,,,,,0,63,63,8,1,0.909019081,0,,,,,,,,,,,,,,,,,,,,,,,,,,,,,,,,,,,,,,,,,,,,,,,,,,,,,,,,,,,,,,,,,,,,,,,,,,,,,,,,
,,55b508f4fdf99b1c26c21c69,2022-09-08_10h33.43.739,CGTgamblingSpanTasks,2022.2.1,Win32,60.0240096,,,,,,,,3.328,,,,,,,,,,,,,,2,n,0.672,0,1,4.328,1,,,,,,24.8002852,0,0.071848086,,,,,,,,,,,,,0,64,64,16,1,0.90783559,0,,,,,,,,,,,,,,,,,,,,,,,,,,,,,,,,,,,,,,,,,,,,,,,,,,,,,,,,,,,,,,,,,,,,,,,,,,,,,,,,
,,55b508f4fdf99b1c26c21c69,2022-09-08_10h33.43.739,CGTgamblingSpanTasks,2022.2.1,Win32,60.0240096,,,,,,,,3.362,,,,,,,,,,,,,,2,n,0.638,0,1,4.862,1.5,,,,,,25.21882231,0,0.085746782,,,,,,,,,,,,,0,65,65,64,1,0.90272076,0,,,,,,,,,,,,,,,,,,,,,,,,,,,,,,,,,,,,,,,,,,,,,,,,,,,,,,,,,,,,,,,,,,,,,,,,,,,,,,,,
,,55b508f4fdf99b1c26c21c69,2022-09-08_10h33.43.739,CGTgamblingSpanTasks,2022.2.1,Win32,60.0240096,,,,,,,,3.215,,,,,,,,,,,,,,1,v,0.785,0,1,4.215,1,,,,,,15.73000491,0,8.830252162,,,,,,,,,,,,,0,66,66,95,1,0.084193143,0,,,,,,,,,,,,,,,,,,,,,,,,,,,,,,,,,,,,,,,,,,,,,,,,,,,,,,,,,,,,,,,,,,,,,,,,,,,,,,,,
,,55b508f4fdf99b1c26c21c69,2022-09-08_10h33.43.739,CGTgamblingSpanTasks,2022.2.1,Win32,60.0240096,,,,,,,,3.352,,,,,,,,,,,,,,2,n,0.648,8.217594828,1,4.352,1,,,,,,8.217594828,0,0.951019374,,,,,,,,,,,,,0,67,67,87,1,0.458722936,1,,,,,,,,,,,,,,,,,,,,,,,,,,,,,,,,,,,,,,,,,,,,,,,,,,,,,,,,,,,,,,,,,,,,,,,,,,,,,,,,
,,55b508f4fdf99b1c26c21c69,2022-09-08_10h33.43.739,CGTgamblingSpanTasks,2022.2.1,Win32,60.0240096,,,,,,,,3.326,,,,,,,,,,,,,,2,n,0.674,0,1,4.826,1.5,,,,,,25.56803059,0,2.543951743,,,,,,,,,,,,,0,68,68,41,1,0.499247217,1,,,,,,,,,,,,,,,,,,,,,,,,,,,,,,,,,,,,,,,,,,,,,,,,,,,,,,,,,,,,,,,,,,,,,,,,,,,,,,,,
,,55b508f4fdf99b1c26c21c69,2022-09-08_10h33.43.739,CGTgamblingSpanTasks,2022.2.1,Win32,60.0240096,,,,,,,,3.112,,,,,,,,,,,,,,2,v,0.888,11.39288827,0,4.612,1.5,,,,,,20.97851654,0,11.39288827,,,,,,,,,,,,,0,69,69,2,1,0.088791079,0,,,,,,,,,,,,,,,,,,,,,,,,,,,,,,,,,,,,,,,,,,,,,,,,,,,,,,,,,,,,,,,,,,,,,,,,,,,,,,,,
,,55b508f4fdf99b1c26c21c69,2022-09-08_10h33.43.739,CGTgamblingSpanTasks,2022.2.1,Win32,60.0240096,,,,,,,,3.273,,,,,,,,,,,,,,1,n,0.727,0.585581699,0,4.273,1,,,,,,7.066129113,0,0.585581699,,,,,,,,,,,,,0,70,70,19,1,0.545860632,1,,,,,,,,,,,,,,,,,,,,,,,,,,,,,,,,,,,,,,,,,,,,,,,,,,,,,,,,,,,,,,,,,,,,,,,,,,,,,,,,
,,55b508f4fdf99b1c26c21c69,2022-09-08_10h33.43.739,CGTgamblingSpanTasks,2022.2.1,Win32,60.0240096,,,,,,,,3.188,,,,,,,,,,,,,,2,n,0.812,0,1,4.188,1,,,,,,27.76752685,0,0.083968035,,,,,,,,,,,,,0,71,71,13,1,0.906513967,0,,,,,,,,,,,,,,,,,,,,,,,,,,,,,,,,,,,,,,,,,,,,,,,,,,,,,,,,,,,,,,,,,,,,,,,,,,,,,,,,
,,55b508f4fdf99b1c26c21c69,2022-09-08_10h33.43.739,CGTgamblingSpanTasks,2022.2.1,Win32,60.0240096,,,,,,,,3.258,,,,,,,,,,,,,,1,v,0.742,0,1,4.258,1,,,,,,22.86604061,0,2.293289792,,,,,,,,,,,,,0,72,72,51,1,0.49715382,1,,,,,,,,,,,,,,,,,,,,,,,,,,,,,,,,,,,,,,,,,,,,,,,,,,,,,,,,,,,,,,,,,,,,,,,,,,,,,,,,
,,55b508f4fdf99b1c26c21c69,2022-09-08_10h33.43.739,CGTgamblingSpanTasks,2022.2.1,Win32,60.0240096,,,,,,,,3.199,,,,,,,,,,,,,,2,n,0.801,25.65316415,1,4.199,1,,,,,,25.65316415,0,0.079652925,,,,,,,,,,,,,0,73,73,109,1,0.90568168,0,,,,,,,,,,,,,,,,,,,,,,,,,,,,,,,,,,,,,,,,,,,,,,,,,,,,,,,,,,,,,,,,,,,,,,,,,,,,,,,,
,,55b508f4fdf99b1c26c21c69,2022-09-08_10h33.43.739,CGTgamblingSpanTasks,2022.2.1,Win32,60.0240096,,,,,,,,2.791,,,,,,,,,,,,,,2,v,1.209,6.091504705,0,3.791,1,,,,,,6.662965216,0,6.091504705,,,,,,,,,,,,,0,74,74,102,1,0.035087099,0,,,,,,,,,,,,,,,,,,,,,,,,,,,,,,,,,,,,,,,,,,,,,,,,,,,,,,,,,,,,,,,,,,,,,,,,,,,,,,,,
,,55b508f4fdf99b1c26c21c69,2022-09-08_10h33.43.739,CGTgamblingSpanTasks,2022.2.1,Win32,60.0240096,,,,,,,,3.215,,,,,,,,,,,,,,1,v,0.785,26.16821818,1,4.215,1,,,,,,26.16821818,0,0.093528069,,,,,,,,,,,,,0,75,75,42,1,0.901022427,0,,,,,,,,,,,,,,,,,,,,,,,,,,,,,,,,,,,,,,,,,,,,,,,,,,,,,,,,,,,,,,,,,,,,,,,,,,,,,,,,
,,55b508f4fdf99b1c26c21c69,2022-09-08_10h33.43.739,CGTgamblingSpanTasks,2022.2.1,Win32,60.0240096,,,,,,,,3.19,,,,,,,,,,,,,,1,v,0.81,0,1,4.19,1,,,,,,21.17800335,0,0.059830985,,,,,,,,,,,,,0,76,76,67,1,0.908594974,0,,,,,,,,,,,,,,,,,,,,,,,,,,,,,,,,,,,,,,,,,,,,,,,,,,,,,,,,,,,,,,,,,,,,,,,,,,,,,,,,
,,55b508f4fdf99b1c26c21c69,2022-09-08_10h33.43.739,CGTgamblingSpanTasks,2022.2.1,Win32,60.0240096,,,,,,,,3.241,,,,,,,,,,,,,,2,n,0.759,0,1,4.741,1.5,,,,,,27.38828234,0,0.0639233,,,,,,,,,,,,,0,77,77,43,1,0.914010176,0,,,,,,,,,,,,,,,,,,,,,,,,,,,,,,,,,,,,,,,,,,,,,,,,,,,,,,,,,,,,,,,,,,,,,,,,,,,,,,,,
,,55b508f4fdf99b1c26c21c69,2022-09-08_10h33.43.739,CGTgamblingSpanTasks,2022.2.1,Win32,60.0240096,,,,,,,,3.058,,,,,,,,,,,,,,1,n,0.942,11.6744431,0,4.558,1.5,,,,,,10.43004651,0,11.6744431,,,,,,,,,,,,,0,78,78,15,1,0.026176489,0,,,,,,,,,,,,,,,,,,,,,,,,,,,,,,,,,,,,,,,,,,,,,,,,,,,,,,,,,,,,,,,,,,,,,,,,,,,,,,,,
,,55b508f4fdf99b1c26c21c69,2022-09-08_10h33.43.739,CGTgamblingSpanTasks,2022.2.1,Win32,60.0240096,,,,,,,,3.001,,,,,,,,,,,,,,1,v,0.999,23.59556381,1,4.001,1,,,,,,23.59556381,0,2.464662219,,,,,,,,,,,,,0,79,79,22,1,0.486383205,1,,,,,,,,,,,,,,,,,,,,,,,,,,,,,,,,,,,,,,,,,,,,,,,,,,,,,,,,,,,,,,,,,,,,,,,,,,,,,,,,
,,55b508f4fdf99b1c26c21c69,2022-09-08_10h33.43.739,CGTgamblingSpanTasks,2022.2.1,Win32,60.0240096,,,,,,,,3.296,,,,,,,,,,,,,,1,v,0.704,0,1,4.796,1.5,,,,,,25.0707644,0,0.067651625,,,,,,,,,,,,,0,80,80,70,1,0.909952349,0,,,,,,,,,,,,,,,,,,,,,,,,,,,,,,,,,,,,,,,,,,,,,,,,,,,,,,,,,,,,,,,,,,,,,,,,,,,,,,,,
,,55b508f4fdf99b1c26c21c69,2022-09-08_10h33.43.739,CGTgamblingSpanTasks,2022.2.1,Win32,60.0240096,,,,,,,,3.111,,,,,,,,,,,,,,2,v,0.889,4.462262453,0,4.111,1,,,,,,0.192759042,0,4.462262453,,,,,,,,,,,,,0,81,81,52,1,0.003553223,0,,,,,,,,,,,,,,,,,,,,,,,,,,,,,,,,,,,,,,,,,,,,,,,,,,,,,,,,,,,,,,,,,,,,,,,,,,,,,,,,
,,55b508f4fdf99b1c26c21c69,2022-09-08_10h33.43.739,CGTgamblingSpanTasks,2022.2.1,Win32,60.0240096,,,,,,,,3.2,,,,,,,,,,,,,,2,n,0.8,0,1,4.7,1.5,,,,,,21.39646914,0,0.072474078,,,,,,,,,,,,,0,82,82,3,1,0.902848133,0,,,,,,,,,,,,,,,,,,,,,,,,,,,,,,,,,,,,,,,,,,,,,,,,,,,,,,,,,,,,,,,,,,,,,,,,,,,,,,,,
,,55b508f4fdf99b1c26c21c69,2022-09-08_10h33.43.739,CGTgamblingSpanTasks,2022.2.1,Win32,60.0240096,,,,,,,,3.264,,,,,,,,,,,,,,1,v,0.736,0,1,4.264,1,,,,,,19.5450126,0,2.123581464,,,,,,,,,,,,,0,83,83,65,1,0.475836144,1,,,,,,,,,,,,,,,,,,,,,,,,,,,,,,,,,,,,,,,,,,,,,,,,,,,,,,,,,,,,,,,,,,,,,,,,,,,,,,,,
,,55b508f4fdf99b1c26c21c69,2022-09-08_10h33.43.739,CGTgamblingSpanTasks,2022.2.1,Win32,60.0240096,,,,,,,,3.303,,,,,,,,,,,,,,2,n,0.697,0,1,4.303,1,,,,,,14.11762686,0,8.579385201,,,,,,,,,,,,,0,84,84,60,1,0.073886959,0,,,,,,,,,,,,,,,,,,,,,,,,,,,,,,,,,,,,,,,,,,,,,,,,,,,,,,,,,,,,,,,,,,,,,,,,,,,,,,,,
,,55b508f4fdf99b1c26c21c69,2022-09-08_10h33.43.739,CGTgamblingSpanTasks,2022.2.1,Win32,60.0240096,,,,,,,,3.228,,,,,,,,,,,,,,2,n,0.772,0,1,4.728,1.5,,,,,,29.30724159,0,3.247012935,,,,,,,,,,,,,0,85,85,71,1,0.470571125,1,,,,,,,,,,,,,,,,,,,,,,,,,,,,,,,,,,,,,,,,,,,,,,,,,,,,,,,,,,,,,,,,,,,,,,,,,,,,,,,,
,,55b508f4fdf99b1c26c21c69,2022-09-08_10h33.43.739,CGTgamblingSpanTasks,2022.2.1,Win32,60.0240096,,,,,,,,3.249,,,,,,,,,,,,,,2,v,0.751,11.61882862,0,4.249,1,,,,,,4.022743614,0,11.61882862,,,,,,,,,,,,,0,86,86,38,1,0.011499376,0,,,,,,,,,,,,,,,,,,,,,,,,,,,,,,,,,,,,,,,,,,,,,,,,,,,,,,,,,,,,,,,,,,,,,,,,,,,,,,,,
,,55b508f4fdf99b1c26c21c69,2022-09-08_10h33.43.739,CGTgamblingSpanTasks,2022.2.1,Win32,60.0240096,,,,,,,,3.214,,,,,,,,,,,,,,2,n,0.786,0,1,4.214,1,,,,,,27.60724521,0,0.088432325,,,,,,,,,,,,,0,87,87,17,1,0.904684186,0,,,,,,,,,,,,,,,,,,,,,,,,,,,,,,,,,,,,,,,,,,,,,,,,,,,,,,,,,,,,,,,,,,,,,,,,,,,,,,,,
,,55b508f4fdf99b1c26c21c69,2022-09-08_10h33.43.739,CGTgamblingSpanTasks,2022.2.1,Win32,60.0240096,,,,,,,,3.322,,,,,,,,,,,,,,1,v,0.678,0,1,4.322,1,,,,,,27.77179191,0,0.074524436,,,,,,,,,,,,,0,88,88,99,1,0.910114387,0,,,,,,,,,,,,,,,,,,,,,,,,,,,,,,,,,,,,,,,,,,,,,,,,,,,,,,,,,,,,,,,,,,,,,,,,,,,,,,,,
,,55b508f4fdf99b1c26c21c69,2022-09-08_10h33.43.739,CGTgamblingSpanTasks,2022.2.1,Win32,60.0240096,,,,,,,,3.29,,,,,,,,,,,,,,1,v,0.71,24.66627941,1,4.29,1,,,,,,24.66627941,0,2.765426402,,,,,,,,,,,,,0,89,89,24,1,0.467360588,1,,,,,,,,,,,,,,,,,,,,,,,,,,,,,,,,,,,,,,,,,,,,,,,,,,,,,,,,,,,,,,,,,,,,,,,,,,,,,,,,
,,55b508f4fdf99b1c26c21c69,2022-09-08_10h33.43.739,CGTgamblingSpanTasks,2022.2.1,Win32,60.0240096,,,,,,,,3.305,,,,,,,,,,,,,,1,v,0.695,0,1,4.805,1.5,,,,,,26.4985979,0,0.051324376,,,,,,,,,,,,,0,90,90,106,1,0.918747215,0,,,,,,,,,,,,,,,,,,,,,,,,,,,,,,,,,,,,,,,,,,,,,,,,,,,,,,,,,,,,,,,,,,,,,,,,,,,,,,,,
,,55b508f4fdf99b1c26c21c69,2022-09-08_10h33.43.739,CGTgamblingSpanTasks,2022.2.1,Win32,60.0240096,,,,,,,,2.782,,,,,,,,,,,,,,2,v,1.218,6.781500919,0,4.282,1.5,,,,,,8.363821911,0,6.781500919,,,,,,,,,,,,,0,91,91,61,1,0.044227959,0,,,,,,,,,,,,,,,,,,,,,,,,,,,,,,,,,,,,,,,,,,,,,,,,,,,,,,,,,,,,,,,,,,,,,,,,,,,,,,,,
,,55b508f4fdf99b1c26c21c69,2022-09-08_10h33.43.739,CGTgamblingSpanTasks,2022.2.1,Win32,60.0240096,,,,,,,,2.921,,,,,,,,,,,,,,2,n,1.079,19.58698544,1,3.921,1,,,,,,19.58698544,0,9.936178001,,,,,,,,,,,,,0,92,92,77,1,0.098812204,0,,,,,,,,,,,,,,,,,,,,,,,,,,,,,,,,,,,,,,,,,,,,,,,,,,,,,,,,,,,,,,,,,,,,,,,,,,,,,,,,
,,55b508f4fdf99b1c26c21c69,2022-09-08_10h33.43.739,CGTgamblingSpanTasks,2022.2.1,Win32,60.0240096,,,,,,,,3.122,,,,,,,,,,,,,,1,v,0.878,0,1,4.122,1,,,,,,17.92584289,0,1.878232496,,,,,,,,,,,,,0,93,93,5,1,0.485559263,1,,,,,,,,,,,,,,,,,,,,,,,,,,,,,,,,,,,,,,,,,,,,,,,,,,,,,,,,,,,,,,,,,,,,,,,,,,,,,,,,
,,55b508f4fdf99b1c26c21c69,2022-09-08_10h33.43.739,CGTgamblingSpanTasks,2022.2.1,Win32,60.0240096,,,,,,,,3.082,,,,,,,,,,,,,,2,v,0.918,7.646213173,0,4.082,1,,,,,,2.042350179,0,7.646213173,,,,,,,,,,,,,0,94,94,53,1,0.009522273,0,,,,,,,,,,,,,,,,,,,,,,,,,,,,,,,,,,,,,,,,,,,,,,,,,,,,,,,,,,,,,,,,,,,,,,,,,,,,,,,,
,,55b508f4fdf99b1c26c21c69,2022-09-08_10h33.43.739,CGTgamblingSpanTasks,2022.2.1,Win32,60.0240096,,,,,,,,3.097,,,,,,,,,,,,,,2,n,0.903,8.670591867,1,4.597,1.5,,,,,,8.670591867,0,1.025847652,,,,,,,,,,,,,0,95,95,18,1,0.452680459,1,,,,,,,,,,,,,,,,,,,,,,,,,,,,,,,,,,,,,,,,,,,,,,,,,,,,,,,,,,,,,,,,,,,,,,,,,,,,,,,,
,,55b508f4fdf99b1c26c21c69,2022-09-08_10h33.43.739,CGTgamblingSpanTasks,2022.2.1,Win32,60.0240096,,,,,,,,3.336,,,,,,,,,,,,,,1,v,0.664,22.87092517,1,4.336,1,,,,,,22.87092517,0,0.059276504,,,,,,,,,,,,,0,96,96,27,1,0.911114935,0,,,,,,,,,,,,,,,,,,,,,,,,,,,,,,,,,,,,,,,,,,,,,,,,,,,,,,,,,,,,,,,,,,,,,,,,,,,,,,,,
,,55b508f4fdf99b1c26c21c69,2022-09-08_10h33.43.739,CGTgamblingSpanTasks,2022.2.1,Win32,60.0240096,,,,,,,,3.208,,,,,,,,,,,,,,2,n,0.792,0,1,4.708,1.5,,,,,,18.20422443,0,1.635040165,,,,,,,,,,,,,0,97,97,82,1,0.525708991,1,,,,,,,,,,,,,,,,,,,,,,,,,,,,,,,,,,,,,,,,,,,,,,,,,,,,,,,,,,,,,,,,,,,,,,,,,,,,,,,,
,,55b508f4fdf99b1c26c21c69,2022-09-08_10h33.43.739,CGTgamblingSpanTasks,2022.2.1,Win32,60.0240096,,,,,,,,3.316,,,,,,,,,,,,,,2,n,0.684,0,1,4.316,1,,,,,,17.23907308,0,2.055848574,,,,,,,,,,,,,0,98,98,66,1,0.450504458,1,,,,,,,,,,,,,,,,,,,,,,,,,,,,,,,,,,,,,,,,,,,,,,,,,,,,,,,,,,,,,,,,,,,,,,,,,,,,,,,,
,,55b508f4fdf99b1c26c21c69,2022-09-08_10h33.43.739,CGTgamblingSpanTasks,2022.2.1,Win32,60.0240096,,,,,,,,3.291,,,,,,,,,,,,,,1,v,0.709,0,1,4.291,1,,,,,,23.4214135,0,2.485985001,,,,,,,,,,,,,0,99,99,81,1,0.482105905,1,,,,,,,,,,,,,,,,,,,,,,,,,,,,,,,,,,,,,,,,,,,,,,,,,,,,,,,,,,,,,,,,,,,,,,,,,,,,,,,,
,,55b508f4fdf99b1c26c21c69,2022-09-08_10h33.43.739,CGTgamblingSpanTasks,2022.2.1,Win32,60.0240096,,,,,,,,3.375,,,,,,,,,,,,,,1,v,0.625,21.2188881,1,4.375,1,,,,,,21.2188881,0,2.067660742,,,,,,,,,,,,,0,100,100,107,1,0.50470775,1,,,,,,,,,,,,,,,,,,,,,,,,,,,,,,,,,,,,,,,,,,,,,,,,,,,,,,,,,,,,,,,,,,,,,,,,,,,,,,,,
,,55b508f4fdf99b1c26c21c69,2022-09-08_10h33.43.739,CGTgamblingSpanTasks,2022.2.1,Win32,60.0240096,,,,,,,,3.295,,,,,,,,,,,,,,2,n,0.705,0,1,4.795,1.5,,,,,,26.36733703,0,2.201057101,,,,,,,,,,,,,0,101,101,90,1,0.544064207,1,,,,,,,,,,,,,,,,,,,,,,,,,,,,,,,,,,,,,,,,,,,,,,,,,,,,,,,,,,,,,,,,,,,,,,,,,,,,,,,,
,,55b508f4fdf99b1c26c21c69,2022-09-08_10h33.43.739,CGTgamblingSpanTasks,2022.2.1,Win32,60.0240096,,,,,,,,3.371,,,,,,,,,,,,,,1,v,0.629,20.31034258,1,4.871,1.5,,,,,,20.31034258,0,1.870404296,,,,,,,,,,,,,0,102,102,85,1,0.519325853,1,,,,,,,,,,,,,,,,,,,,,,,,,,,,,,,,,,,,,,,,,,,,,,,,,,,,,,,,,,,,,,,,,,,,,,,,,,,,,,,,
,,55b508f4fdf99b1c26c21c69,2022-09-08_10h33.43.739,CGTgamblingSpanTasks,2022.2.1,Win32,60.0240096,,,,,,,,3.36,,,,,,,,,,,,,,2,n,0.64,27.37527992,1,4.36,1,,,,,,27.37527992,0,2.860319095,,,,,,,,,,,,,0,103,103,39,1,0.486304156,1,,,,,,,,,,,,,,,,,,,,,,,,,,,,,,,,,,,,,,,,,,,,,,,,,,,,,,,,,,,,,,,,,,,,,,,,,,,,,,,,
,,55b508f4fdf99b1c26c21c69,2022-09-08_10h33.43.739,CGTgamblingSpanTasks,2022.2.1,Win32,60.0240096,,,,,,,,3.387,,,,,,,,,,,,,,1,v,0.613,17.85020524,1,4.387,1,,,,,,17.85020524,0,2.058701084,,,,,,,,,,,,,0,104,104,25,1,0.459662216,1,,,,,,,,,,,,,,,,,,,,,,,,,,,,,,,,,,,,,,,,,,,,,,,,,,,,,,,,,,,,,,,,,,,,,,,,,,,,,,,,
,,55b508f4fdf99b1c26c21c69,2022-09-08_10h33.43.739,CGTgamblingSpanTasks,2022.2.1,Win32,60.0240096,,,,,,,,3.388,,,,,,,,,,,,,,2,n,0.612,0,1,4.888,1.5,,,,,,17.5608285,0,1.825111303,,,,,,,,,,,,,0,105,105,104,1,0.487721116,1,,,,,,,,,,,,,,,,,,,,,,,,,,,,,,,,,,,,,,,,,,,,,,,,,,,,,,,,,,,,,,,,,,,,,,,,,,,,,,,,
,,55b508f4fdf99b1c26c21c69,2022-09-08_10h33.43.739,CGTgamblingSpanTasks,2022.2.1,Win32,60.0240096,,,,,,,,3.349,,,,,,,,,,,,,,2,n,0.651,13.96521039,1,4.849,1.5,,,,,,13.96521039,0,1.591282699,,,,,,,,,,,,,0,106,106,49,1,0.462956344,1,,,,,,,,,,,,,,,,,,,,,,,,,,,,,,,,,,,,,,,,,,,,,,,,,,,,,,,,,,,,,,,,,,,,,,,,,,,,,,,,
,,55b508f4fdf99b1c26c21c69,2022-09-08_10h33.43.739,CGTgamblingSpanTasks,2022.2.1,Win32,60.0240096,,,,,,,,3.14,,,,,,,,,,,,,,2,v,0.86,11.93550497,0,4.64,1.5,,,,,,14.20587264,0,11.93550497,,,,,,,,,,,,,0,107,107,21,1,0.041340301,0,,,,,,,,,,,,,,,,,,,,,,,,,,,,,,,,,,,,,,,,,,,,,,,,,,,,,,,,,,,,,,,,,,,,,,,,,,,,,,,,
,,55b508f4fdf99b1c26c21c69,2022-09-08_10h33.43.739,CGTgamblingSpanTasks,2022.2.1,Win32,60.0240096,,,,,,,,3.213,,,,,,,,,,,,,,1,v,0.787,0,1,4.213,1,,,,,,15.43649625,0,1.65459324,,,,,,,,,,,,,0,108,108,33,1,0.479480163,1,,,,,,,,,,,,,,,,,,,,,,,,,,,,,,,,,,,,,,,,,,,,,,,,,,,,,,,,,,,,,,,,,,,,,,,,,,,,,,,,
,,55b508f4fdf99b1c26c21c69,2022-09-08_10h33.43.739,CGTgamblingSpanTasks,2022.2.1,Win32,60.0240096,,,,,,,,3.383,,,,,,,,,,,,,,1,v,0.617,27.94544945,1,4.883,1.5,,,,,,27.94544945,0,2.32030209,,,,,,,,,,,,,0,109,109,115,1,0.545390564,1,,,,,,,,,,,,,,,,,,,,,,,,,,,,,,,,,,,,,,,,,,,,,,,,,,,,,,,,,,,,,,,,,,,,,,,,,,,,,,,,
,,55b508f4fdf99b1c26c21c69,2022-09-08_10h33.43.739,CGTgamblingSpanTasks,2022.2.1,Win32,60.0240096,,,,,,,,3.296,,,,,,,,,,,,,,2,n,0.704,27.88092897,1,4.296,1,,,,,,27.88092897,0,2.771762788,,,,,,,,,,,,,0,110,110,117,1,0.499466648,1,,,,,,,,,,,,,,,,,,,,,,,,,,,,,,,,,,,,,,,,,,,,,,,,,,,,,,,,,,,,,,,,,,,,,,,,,,,,,,,,
,,55b508f4fdf99b1c26c21c69,2022-09-08_10h33.43.739,CGTgamblingSpanTasks,2022.2.1,Win32,60.0240096,,,,,,,,3.354,,,,,,,,,,,,,,1,v,0.646,0,1,4.354,1,,,,,,27.57491653,0,2.99133314,,,,,,,,,,,,,0,111,111,10,1,0.47625893,1,,,,,,,,,,,,,,,,,,,,,,,,,,,,,,,,,,,,,,,,,,,,,,,,,,,,,,,,,,,,,,,,,,,,,,,,,,,,,,,,
,,55b508f4fdf99b1c26c21c69,2022-09-08_10h33.43.739,CGTgamblingSpanTasks,2022.2.1,Win32,60.0240096,,,,,,,,3.353,,,,,,,,,,,,,,1,v,0.647,21.03408097,1,4.853,1.5,,,,,,21.03408097,0,2.208275162,,,,,,,,,,,,,0,112,112,0,1,0.485031246,1,,,,,,,,,,,,,,,,,,,,,,,,,,,,,,,,,,,,,,,,,,,,,,,,,,,,,,,,,,,,,,,,,,,,,,,,,,,,,,,,
,,55b508f4fdf99b1c26c21c69,2022-09-08_10h33.43.739,CGTgamblingSpanTasks,2022.2.1,Win32,60.0240096,,,,,,,,3.318,,,,,,,,,,,,,,2,n,0.682,18.50662664,1,4.318,1,,,,,,18.50662664,0,0.052546026,,,,,,,,,,,,,0,113,113,112,1,0.908444837,0,,,,,,,,,,,,,,,,,,,,,,,,,,,,,,,,,,,,,,,,,,,,,,,,,,,,,,,,,,,,,,,,,,,,,,,,,,,,,,,,
,,55b508f4fdf99b1c26c21c69,2022-09-08_10h33.43.739,CGTgamblingSpanTasks,2022.2.1,Win32,60.0240096,,,,,,,,3.209,,,,,,,,,,,,,,2,n,0.791,0,1,4.209,1,,,,,,21.7711579,0,2.502728921,,,,,,,,,,,,,0,114,114,101,1,0.460552621,1,,,,,,,,,,,,,,,,,,,,,,,,,,,,,,,,,,,,,,,,,,,,,,,,,,,,,,,,,,,,,,,,,,,,,,,,,,,,,,,,
,,55b508f4fdf99b1c26c21c69,2022-09-08_10h33.43.739,CGTgamblingSpanTasks,2022.2.1,Win32,60.0240096,,,,,,,,3.425,,,,,,,,,,,,,,2,n,0.575,28.94627214,1,4.925,1.5,,,,,,28.94627214,0,2.701896413,,,,,,,,,,,,,0,115,115,111,1,0.515860759,1,,,,,,,,,,,,,,,,,,,,,,,,,,,,,,,,,,,,,,,,,,,,,,,,,,,,,,,,,,,,,,,,,,,,,,,,,,,,,,,,
,,55b508f4fdf99b1c26c21c69,2022-09-08_10h33.43.739,CGTgamblingSpanTasks,2022.2.1,Win32,60.0240096,,,,,,,,3.206,,,,,,,,,,,,,,1,n,0.794,4.251676631,0,4.206,1,,,,,,3.395192929,0,4.251676631,,,,,,,,,,,,,0,116,116,7,1,0.023467153,0,,,,,,,,,,,,,,,,,,,,,,,,,,,,,,,,,,,,,,,,,,,,,,,,,,,,,,,,,,,,,,,,,,,,,,,,,,,,,,,,
,,55b508f4fdf99b1c26c21c69,2022-09-08_10h33.43.739,CGTgamblingSpanTasks,2022.2.1,Win32,60.0240096,,,,,,,,3.344,,,,,,,,,,,,,,1,v,0.656,0,1,4.844,1.5,,,,,,29.76099779,0,0.095763086,,,,,,,,,,,,,0,117,117,35,1,0.904537896,0,,,,,,,,,,,,,,,,,,,,,,,,,,,,,,,,,,,,,,,,,,,,,,,,,,,,,,,,,,,,,,,,,,,,,,,,,,,,,,,,
,,55b508f4fdf99b1c26c21c69,2022-09-08_10h33.43.739,CGTgamblingSpanTasks,2022.2.1,Win32,60.0240096,,,,,,,,3.261,,,,,,,,,,,,,,1,v,0.739,0,1,4.761,1.5,,,,,,13.4287264,0,1.317368801,,,,,,,,,,,,,0,118,118,100,1,0.502953125,1,,,,,,,,,,,,,,,,,,,,,,,,,,,,,,,,,,,,,,,,,,,,,,,,,,,,,,,,,,,,,,,,,,,,,,,,,,,,,,,,
,,55b508f4fdf99b1c26c21c69,2022-09-08_10h33.43.739,CGTgamblingSpanTasks,2022.2.1,Win32,60.0240096,,,,,,,,3.315,,,,,,,,,,,,,,1,v,0.685,0,1,4.315,1,,,,,,21.16780451,0,2.469465385,,,,,,,,,,,,,0,119,119,32,1,0.456531699,1,,,,,,,,,,,,,,,,,,,,,,,,,,,,,,,,,,,,,,,,,,,,,,,,,,,,,,,,,,,,,,,,,,,,,,,,,,,,,,,,
,,55b508f4fdf99b1c26c21c69,2022-09-08_10h33.43.739,CGTgamblingSpanTasks,2022.2.1,Win32,60.0240096,,,,,,,,,,,,,,,,,,,,,,,,,,,,,,,,,,,,,,,,,,,,,,,,,,,,,,,,return,9.196,,,,,,,,,,,,,,,,,,,,,,,,,,,,,,,,,,,,,,,,,,,,,,,,,,,,,,,,,,,,,,,,,,,,,,,,,,,,,,
,,55b508f4fdf99b1c26c21c69,2022-09-08_10h33.43.739,CGTgamblingSpanTasks,2022.2.1,Win32,60.0240096,,,,,,,,,,,,,,,,,,,,,,,,,,,,,,,,,,,,,,,,,,,,,,,,,,,,,,,,,,return,19.555,,,,,,,,,,,,,,,,,,,,,,,,,,,,,,,,,,,,,,,,,,,,,,,,,,,,,,,,,,,,,,,,,,,,,,,,,,,,
,,55b508f4fdf99b1c26c21c69,2022-09-08_10h33.43.739,CGTgamblingSpanTasks,2022.2.1,Win32,60.0240096,,,,,,,,,,,,,,,,,,,,,,,,,,,,,,,,,,,,,,,,,,,,,,,,,,,,,,,,,,,,return,21.32,,,,,,,,,,,,,,,,,,,,,,,,,,,,,,,,,,,,,,,,,,,,,,,,,,,,,,,,,,,,,,,,,,,,,,,,,,
,,55b508f4fdf99b1c26c21c69,2022-09-08_10h33.43.739,CGTgamblingSpanTasks,2022.2.1,Win32,60.0240096,,,,,,,,,,,,,,,,,,,,,,,,,,,,,,,,,,,,,,,,,,,,,,,,,,,,,,,,,,,,,,342,1,0.072916667,-0.408854167,1,0,0,cont_buttonPractice,0,0,0,0,1,3,342,24,2,42,,,,,,,,,,,,,,,,,,,,,,,,,,,,,,,,,,,,,,,,,,,,,,,,,,,,,,,,
,,55b508f4fdf99b1c26c21c69,2022-09-08_10h33.43.739,CGTgamblingSpanTasks,2022.2.1,Win32,60.0240096,,,,,,,,,,,,,,,,,,,,,,,,,,,,,,,,,,,,,,,,,,,,,,,,,,,,,,,,,,,,,,937,1,0.022135417,-0.380208333,1,0,0,cont_buttonPractice,0,1,1,1,1,3,937,73,2,37,,,,,,,,,,,,,,,,,,,,,,,,,,,,,,,,,,,,,,,,,,,,,,,,,,,,,,,,
,,55b508f4fdf99b1c26c21c69,2022-09-08_10h33.43.739,CGTgamblingSpanTasks,2022.2.1,Win32,60.0240096,,,,,,,,,,,,,,,,,,,,,,,,,,,,,,,,,,,,,,,,,,,,,,,,,,,,,,,,,,,,,,,,,,,,,,,,,,,,,,,,return,8.464,,,,,,,,,,,,,,,,,,,,,,,,,,,,,,,,,,,,,,,,,,,,,,,,,,,,,,
,,55b508f4fdf99b1c26c21c69,2022-09-08_10h33.43.739,CGTgamblingSpanTasks,2022.2.1,Win32,60.0240096,,,,,,,,,,,,,,,,,,,,,,,,,,,,,,,,,,,,,,,,,,,,,,,,,,,,,,,,,,,,,,,,,,,,,,,,,,,,,,,,,,"[9,3,6]",0,0,0,0,1,,,,,,,,,,,,,,,,,,,,,,,,,,,,,,,,,,,,,,,,,,,,,,,,
,,55b508f4fdf99b1c26c21c69,2022-09-08_10h33.43.739,CGTgamblingSpanTasks,2022.2.1,Win32,60.0240096,,,,,,,,,,,,,,,,,,,,,,,,,,,,,,,,,,,,,,,,,,,,,,,,,,,,,,,,,,,,,,,,,,,,,,,,,,,,,,,,,,"[9,3,6]",1,0,1,0,1,,,,,,,,,,,,,,,,,,,,,,,,,,,,,,,,,,,,,,,,,,,,,,,,
,,55b508f4fdf99b1c26c21c69,2022-09-08_10h33.43.739,CGTgamblingSpanTasks,2022.2.1,Win32,60.0240096,,,,,,,,,,,,,,,,,,,,,,,,,,,,,,,,,,,,,,,,,,,,,,,,,,,,,,,,,,,,,,,,,,,,,,,,,,,,,,,,,,"[9,3,6]",2,0,2,0,1,,,,,,,,,,,,,,,,,,,,,,,,,,,,,,,,,,,,,,,,,,,,,,,,
,,55b508f4fdf99b1c26c21c69,2022-09-08_10h33.43.739,CGTgamblingSpanTasks,2022.2.1,Win32,60.0240096,,,,,,,,,,,,,,,,,,,,,,,,,,,,,,,,,,,,,,,,,,,,,,,,,,,,,,,,,,,,,,,1,,,,,,,,,,,,,,,,,,,,,,,,,936,0.022135417,-0.380208333,1,0,0,cont_button,0,0,0,0,1,1,,,,,,,,,,,,,,,,,,,,,,,,,,,,,,,,,,,
,,55b508f4fdf99b1c26c21c69,2022-09-08_10h33.43.739,CGTgamblingSpanTasks,2022.2.1,Win32,60.0240096,,,,,,,,,,,,,,,,,,,,,,,,,,,,,,,,,,,,,,,,,,,,,,,,,,,,,,,,,,,,,,,,,,,,,,,,,,,,,,,,,,"[3,7,6,8]",0,0,0,0,1,,,,,,,,,,,,,,,,,,,,,,,,,,,,,,,,,,,,,,,,,,,,,,,,
,,55b508f4fdf99b1c26c21c69,2022-09-08_10h33.43.739,CGTgamblingSpanTasks,2022.2.1,Win32,60.0240096,,,,,,,,,,,,,,,,,,,,,,,,,,,,,,,,,,,,,,,,,,,,,,,,,,,,,,,,,,,,,,,,,,,,,,,,,,,,,,,,,,"[3,7,6,8]",1,0,1,0,1,,,,,,,,,,,,,,,,,,,,,,,,,,,,,,,,,,,,,,,,,,,,,,,,
,,55b508f4fdf99b1c26c21c69,2022-09-08_10h33.43.739,CGTgamblingSpanTasks,2022.2.1,Win32,60.0240096,,,,,,,,,,,,,,,,,,,,,,,,,,,,,,,,,,,,,,,,,,,,,,,,,,,,,,,,,,,,,,,,,,,,,,,,,,,,,,,,,,"[3,7,6,8]",2,0,2,0,1,,,,,,,,,,,,,,,,,,,,,,,,,,,,,,,,,,,,,,,,,,,,,,,,
,,55b508f4fdf99b1c26c21c69,2022-09-08_10h33.43.739,CGTgamblingSpanTasks,2022.2.1,Win32,60.0240096,,,,,,,,,,,,,,,,,,,,,,,,,,,,,,,,,,,,,,,,,,,,,,,,,,,,,,,,,,,,,,,,,,,,,,,,,,,,,,,,,,"[3,7,6,8]",3,0,3,0,1,,,,,,,,,,,,,,,,,,,,,,,,,,,,,,,,,,,,,,,,,,,,,,,,
,,55b508f4fdf99b1c26c21c69,2022-09-08_10h33.43.739,CGTgamblingSpanTasks,2022.2.1,Win32,60.0240096,,,,,,,,,,,,,,,,,,,,,,,,,,,,,,,,,,,,,,,,,,,,,,,,,,,,,,,,,,,,,,,1,,,,,,,,,,,,,,,,,,,,,,,,,3768,0.022135417,-0.380208333,1,0,0,cont_button,0,1,1,1,1,2,,,,,,,,,,,,,,,,,,,,,,,,,,,,,,,,,,,
,,55b508f4fdf99b1c26c21c69,2022-09-08_10h33.43.739,CGTgamblingSpanTasks,2022.2.1,Win32,60.0240096,,,,,,,,,,,,,,,,,,,,,,,,,,,,,,,,,,,,,,,,,,,,,,,,,,,,,,,,,,,,,,,,,,,,,,,,,,,,,,,,,,"[5,3,7,2,9]",0,0,0,0,1,,,,,,,,,,,,,,,,,,,,,,,,,,,,,,,,,,,,,,,,,,,,,,,,
,,55b508f4fdf99b1c26c21c69,2022-09-08_10h33.43.739,CGTgamblingSpanTasks,2022.2.1,Win32,60.0240096,,,,,,,,,,,,,,,,,,,,,,,,,,,,,,,,,,,,,,,,,,,,,,,,,,,,,,,,,,,,,,,,,,,,,,,,,,,,,,,,,,"[5,3,7,2,9]",1,0,1,0,1,,,,,,,,,,,,,,,,,,,,,,,,,,,,,,,,,,,,,,,,,,,,,,,,
,,55b508f4fdf99b1c26c21c69,2022-09-08_10h33.43.739,CGTgamblingSpanTasks,2022.2.1,Win32,60.0240096,,,,,,,,,,,,,,,,,,,,,,,,,,,,,,,,,,,,,,,,,,,,,,,,,,,,,,,,,,,,,,,,,,,,,,,,,,,,,,,,,,"[5,3,7,2,9]",2,0,2,0,1,,,,,,,,,,,,,,,,,,,,,,,,,,,,,,,,,,,,,,,,,,,,,,,,
,,55b508f4fdf99b1c26c21c69,2022-09-08_10h33.43.739,CGTgamblingSpanTasks,2022.2.1,Win32,60.0240096,,,,,,,,,,,,,,,,,,,,,,,,,,,,,,,,,,,,,,,,,,,,,,,,,,,,,,,,,,,,,,,,,,,,,,,,,,,,,,,,,,"[5,3,7,2,9]",3,0,3,0,1,,,,,,,,,,,,,,,,,,,,,,,,,,,,,,,,,,,,,,,,,,,,,,,,
,,55b508f4fdf99b1c26c21c69,2022-09-08_10h33.43.739,CGTgamblingSpanTasks,2022.2.1,Win32,60.0240096,,,,,,,,,,,,,,,,,,,,,,,,,,,,,,,,,,,,,,,,,,,,,,,,,,,,,,,,,,,,,,,,,,,,,,,,,,,,,,,,,,"[5,3,7,2,9]",4,0,4,0,1,,,,,,,,,,,,,,,,,,,,,,,,,,,,,,,,,,,,,,,,,,,,,,,,
,,55b508f4fdf99b1c26c21c69,2022-09-08_10h33.43.739,CGTgamblingSpanTasks,2022.2.1,Win32,60.0240096,,,,,,,,,,,,,,,,,,,,,,,,,,,,,,,,,,,,,,,,,,,,,,,,,,,,,,,,,,,,,,,1,,,,,,,,,,,,,,,,,,,,,,,,,53729,0.013020833,-0.38671875,1,0,0,cont_button,0,2,2,2,1,3,,,,,,,,,,,,,,,,,,,,,,,,,,,,,,,,,,,
,,55b508f4fdf99b1c26c21c69,2022-09-08_10h33.43.739,CGTgamblingSpanTasks,2022.2.1,Win32,60.0240096,,,,,,,,,,,,,,,,,,,,,,,,,,,,,,,,,,,,,,,,,,,,,,,,,,,,,,,,,,,,,,,,,,,,,,,,,,,,,,,,,,"[7,9,2,5,1,8]",0,0,0,0,1,,,,,,,,,,,,,,,,,,,,,,,,,,,,,,,,,,,,,,,,,,,,,,,,
,,55b508f4fdf99b1c26c21c69,2022-09-08_10h33.43.739,CGTgamblingSpanTasks,2022.2.1,Win32,60.0240096,,,,,,,,,,,,,,,,,,,,,,,,,,,,,,,,,,,,,,,,,,,,,,,,,,,,,,,,,,,,,,,,,,,,,,,,,,,,,,,,,,"[7,9,2,5,1,8]",1,0,1,0,1,,,,,,,,,,,,,,,,,,,,,,,,,,,,,,,,,,,,,,,,,,,,,,,,
,,55b508f4fdf99b1c26c21c69,2022-09-08_10h33.43.739,CGTgamblingSpanTasks,2022.2.1,Win32,60.0240096,,,,,,,,,,,,,,,,,,,,,,,,,,,,,,,,,,,,,,,,,,,,,,,,,,,,,,,,,,,,,,,,,,,,,,,,,,,,,,,,,,"[7,9,2,5,1,8]",2,0,2,0,1,,,,,,,,,,,,,,,,,,,,,,,,,,,,,,,,,,,,,,,,,,,,,,,,
,,55b508f4fdf99b1c26c21c69,2022-09-08_10h33.43.739,CGTgamblingSpanTasks,2022.2.1,Win32,60.0240096,,,,,,,,,,,,,,,,,,,,,,,,,,,,,,,,,,,,,,,,,,,,,,,,,,,,,,,,,,,,,,,,,,,,,,,,,,,,,,,,,,"[7,9,2,5,1,8]",3,0,3,0,1,,,,,,,,,,,,,,,,,,,,,,,,,,,,,,,,,,,,,,,,,,,,,,,,
,,55b508f4fdf99b1c26c21c69,2022-09-08_10h33.43.739,CGTgamblingSpanTasks,2022.2.1,Win32,60.0240096,,,,,,,,,,,,,,,,,,,,,,,,,,,,,,,,,,,,,,,,,,,,,,,,,,,,,,,,,,,,,,,,,,,,,,,,,,,,,,,,,,"[7,9,2,5,1,8]",4,0,4,0,1,,,,,,,,,,,,,,,,,,,,,,,,,,,,,,,,,,,,,,,,,,,,,,,,
,,55b508f4fdf99b1c26c21c69,2022-09-08_10h33.43.739,CGTgamblingSpanTasks,2022.2.1,Win32,60.0240096,,,,,,,,,,,,,,,,,,,,,,,,,,,,,,,,,,,,,,,,,,,,,,,,,,,,,,,,,,,,,,,,,,,,,,,,,,,,,,,,,,"[7,9,2,5,1,8]",5,0,5,0,1,,,,,,,,,,,,,,,,,,,,,,,,,,,,,,,,,,,,,,,,,,,,,,,,
,,55b508f4fdf99b1c26c21c69,2022-09-08_10h33.43.739,CGTgamblingSpanTasks,2022.2.1,Win32,60.0240096,,,,,,,,,,,,,,,,,,,,,,,,,,,,,,,,,,,,,,,,,,,,,,,,,,,,,,,,,,,,,,,0,,,,,,,,,,,,,,,,,,,,,,,,,75921,0.013020833,-0.38671875,1,0,0,cont_button,0,3,3,3,1,4,,,,,,,,,,,,,,,,,,,,,,,,,,,,,,,,,,,
,,55b508f4fdf99b1c26c21c69,2022-09-08_10h33.43.739,CGTgamblingSpanTasks,2022.2.1,Win32,60.0240096,,,,,,,,,,,,,,,,,,,,,,,,,,,,,,,,,,,,,,,,,,,,,,,,,,,,,,,,,,,,,,,,,,,,,,,,,,,,,,,,,,"[8,4,9,6,7,5]",0,0,0,0,1,,,,,,,,,,,,,,,,,,,,,,,,,,,,,,,,,,,,,,,,,,,,,,,,
,,55b508f4fdf99b1c26c21c69,2022-09-08_10h33.43.739,CGTgamblingSpanTasks,2022.2.1,Win32,60.0240096,,,,,,,,,,,,,,,,,,,,,,,,,,,,,,,,,,,,,,,,,,,,,,,,,,,,,,,,,,,,,,,,,,,,,,,,,,,,,,,,,,"[8,4,9,6,7,5]",1,0,1,0,1,,,,,,,,,,,,,,,,,,,,,,,,,,,,,,,,,,,,,,,,,,,,,,,,
,,55b508f4fdf99b1c26c21c69,2022-09-08_10h33.43.739,CGTgamblingSpanTasks,2022.2.1,Win32,60.0240096,,,,,,,,,,,,,,,,,,,,,,,,,,,,,,,,,,,,,,,,,,,,,,,,,,,,,,,,,,,,,,,,,,,,,,,,,,,,,,,,,,"[8,4,9,6,7,5]",2,0,2,0,1,,,,,,,,,,,,,,,,,,,,,,,,,,,,,,,,,,,,,,,,,,,,,,,,
,,55b508f4fdf99b1c26c21c69,2022-09-08_10h33.43.739,CGTgamblingSpanTasks,2022.2.1,Win32,60.0240096,,,,,,,,,,,,,,,,,,,,,,,,,,,,,,,,,,,,,,,,,,,,,,,,,,,,,,,,,,,,,,,,,,,,,,,,,,,,,,,,,,"[8,4,9,6,7,5]",3,0,3,0,1,,,,,,,,,,,,,,,,,,,,,,,,,,,,,,,,,,,,,,,,,,,,,,,,
,,55b508f4fdf99b1c26c21c69,2022-09-08_10h33.43.739,CGTgamblingSpanTasks,2022.2.1,Win32,60.0240096,,,,,,,,,,,,,,,,,,,,,,,,,,,,,,,,,,,,,,,,,,,,,,,,,,,,,,,,,,,,,,,,,,,,,,,,,,,,,,,,,,"[8,4,9,6,7,5]",4,0,4,0,1,,,,,,,,,,,,,,,,,,,,,,,,,,,,,,,,,,,,,,,,,,,,,,,,
,,55b508f4fdf99b1c26c21c69,2022-09-08_10h33.43.739,CGTgamblingSpanTasks,2022.2.1,Win32,60.0240096,,,,,,,,,,,,,,,,,,,,,,,,,,,,,,,,,,,,,,,,,,,,,,,,,,,,,,,,,,,,,,,,,,,,,,,,,,,,,,,,,,"[8,4,9,6,7,5]",5,0,5,0,1,,,,,,,,,,,,,,,,,,,,,,,,,,,,,,,,,,,,,,,,,,,,,,,,
,,55b508f4fdf99b1c26c21c69,2022-09-08_10h33.43.739,CGTgamblingSpanTasks,2022.2.1,Win32,60.0240096,,,,,,,,,,,,,,,,,,,,,,,,,,,,,,,,,,,,,,,,,,,,,,,,,,,,,,,,,,,,,,,1,,,,,,,,,,,,,,,,,,,,,,,,,849675,0.013020833,-0.38671875,1,0,0,cont_button,0,4,4,4,1,5,,,,,,,,,,,,,,,,,,,,,,,,,,,,,,,,,,,
,,55b508f4fdf99b1c26c21c69,2022-09-08_10h33.43.739,CGTgamblingSpanTasks,2022.2.1,Win32,60.0240096,,,,,,,,,,,,,,,,,,,,,,,,,,,,,,,,,,,,,,,,,,,,,,,,,,,,,,,,,,,,,,,,,,,,,,,,,,,,,,,,,,"[1,3,9,7,4,6,8]",0,0,0,0,1,,,,,,,,,,,,,,,,,,,,,,,,,,,,,,,,,,,,,,,,,,,,,,,,
,,55b508f4fdf99b1c26c21c69,2022-09-08_10h33.43.739,CGTgamblingSpanTasks,2022.2.1,Win32,60.0240096,,,,,,,,,,,,,,,,,,,,,,,,,,,,,,,,,,,,,,,,,,,,,,,,,,,,,,,,,,,,,,,,,,,,,,,,,,,,,,,,,,"[1,3,9,7,4,6,8]",1,0,1,0,1,,,,,,,,,,,,,,,,,,,,,,,,,,,,,,,,,,,,,,,,,,,,,,,,
,,55b508f4fdf99b1c26c21c69,2022-09-08_10h33.43.739,CGTgamblingSpanTasks,2022.2.1,Win32,60.0240096,,,,,,,,,,,,,,,,,,,,,,,,,,,,,,,,,,,,,,,,,,,,,,,,,,,,,,,,,,,,,,,,,,,,,,,,,,,,,,,,,,"[1,3,9,7,4,6,8]",2,0,2,0,1,,,,,,,,,,,,,,,,,,,,,,,,,,,,,,,,,,,,,,,,,,,,,,,,
,,55b508f4fdf99b1c26c21c69,2022-09-08_10h33.43.739,CGTgamblingSpanTasks,2022.2.1,Win32,60.0240096,,,,,,,,,,,,,,,,,,,,,,,,,,,,,,,,,,,,,,,,,,,,,,,,,,,,,,,,,,,,,,,,,,,,,,,,,,,,,,,,,,"[1,3,9,7,4,6,8]",3,0,3,0,1,,,,,,,,,,,,,,,,,,,,,,,,,,,,,,,,,,,,,,,,,,,,,,,,
,,55b508f4fdf99b1c26c21c69,2022-09-08_10h33.43.739,CGTgamblingSpanTasks,2022.2.1,Win32,60.0240096,,,,,,,,,,,,,,,,,,,,,,,,,,,,,,,,,,,,,,,,,,,,,,,,,,,,,,,,,,,,,,,,,,,,,,,,,,,,,,,,,,"[1,3,9,7,4,6,8]",4,0,4,0,1,,,,,,,,,,,,,,,,,,,,,,,,,,,,,,,,,,,,,,,,,,,,,,,,
,,55b508f4fdf99b1c26c21c69,2022-09-08_10h33.43.739,CGTgamblingSpanTasks,2022.2.1,Win32,60.0240096,,,,,,,,,,,,,,,,,,,,,,,,,,,,,,,,,,,,,,,,,,,,,,,,,,,,,,,,,,,,,,,,,,,,,,,,,,,,,,,,,,"[1,3,9,7,4,6,8]",5,0,5,0,1,,,,,,,,,,,,,,,,,,,,,,,,,,,,,,,,,,,,,,,,,,,,,,,,
,,55b508f4fdf99b1c26c21c69,2022-09-08_10h33.43.739,CGTgamblingSpanTasks,2022.2.1,Win32,60.0240096,,,,,,,,,,,,,,,,,,,,,,,,,,,,,,,,,,,,,,,,,,,,,,,,,,,,,,,,,,,,,,,,,,,,,,,,,,,,,,,,,,"[1,3,9,7,4,6,8]",6,0,6,0,1,,,,,,,,,,,,,,,,,,,,,,,,,,,,,,,,,,,,,,,,,,,,,,,,
,,55b508f4fdf99b1c26c21c69,2022-09-08_10h33.43.739,CGTgamblingSpanTasks,2022.2.1,Win32,60.0240096,,,,,,,,,,,,,,,,,,,,,,,,,,,,,,,,,,,,,,,,,,,,,,,,,,,,,,,,,,,,,,,0,,,,,,,,,,,,,,,,,,,,,,,,,139746,0.013020833,-0.38671875,1,0,0,cont_button,0,5,5,5,1,6,,,,,,,,,,,,,,,,,,,,,,,,,,,,,,,,,,,
,,55b508f4fdf99b1c26c21c69,2022-09-08_10h33.43.739,CGTgamblingSpanTasks,2022.2.1,Win32,60.0240096,,,,,,,,,,,,,,,,,,,,,,,,,,,,,,,,,,,,,,,,,,,,,,,,,,,,,,,,,,,,,,,,,,,,,,,,,,,,,,,,,,"[5,2,6,9,3,4,7]",0,0,0,0,1,,,,,,,,,,,,,,,,,,,,,,,,,,,,,,,,,,,,,,,,,,,,,,,,
,,55b508f4fdf99b1c26c21c69,2022-09-08_10h33.43.739,CGTgamblingSpanTasks,2022.2.1,Win32,60.0240096,,,,,,,,,,,,,,,,,,,,,,,,,,,,,,,,,,,,,,,,,,,,,,,,,,,,,,,,,,,,,,,,,,,,,,,,,,,,,,,,,,"[5,2,6,9,3,4,7]",1,0,1,0,1,,,,,,,,,,,,,,,,,,,,,,,,,,,,,,,,,,,,,,,,,,,,,,,,
,,55b508f4fdf99b1c26c21c69,2022-09-08_10h33.43.739,CGTgamblingSpanTasks,2022.2.1,Win32,60.0240096,,,,,,,,,,,,,,,,,,,,,,,,,,,,,,,,,,,,,,,,,,,,,,,,,,,,,,,,,,,,,,,,,,,,,,,,,,,,,,,,,,"[5,2,6,9,3,4,7]",2,0,2,0,1,,,,,,,,,,,,,,,,,,,,,,,,,,,,,,,,,,,,,,,,,,,,,,,,
,,55b508f4fdf99b1c26c21c69,2022-09-08_10h33.43.739,CGTgamblingSpanTasks,2022.2.1,Win32,60.0240096,,,,,,,,,,,,,,,,,,,,,,,,,,,,,,,,,,,,,,,,,,,,,,,,,,,,,,,,,,,,,,,,,,,,,,,,,,,,,,,,,,"[5,2,6,9,3,4,7]",3,0,3,0,1,,,,,,,,,,,,,,,,,,,,,,,,,,,,,,,,,,,,,,,,,,,,,,,,
,,55b508f4fdf99b1c26c21c69,2022-09-08_10h33.43.739,CGTgamblingSpanTasks,2022.2.1,Win32,60.0240096,,,,,,,,,,,,,,,,,,,,,,,,,,,,,,,,,,,,,,,,,,,,,,,,,,,,,,,,,,,,,,,,,,,,,,,,,,,,,,,,,,"[5,2,6,9,3,4,7]",4,0,4,0,1,,,,,,,,,,,,,,,,,,,,,,,,,,,,,,,,,,,,,,,,,,,,,,,,
,,55b508f4fdf99b1c26c21c69,2022-09-08_10h33.43.739,CGTgamblingSpanTasks,2022.2.1,Win32,60.0240096,,,,,,,,,,,,,,,,,,,,,,,,,,,,,,,,,,,,,,,,,,,,,,,,,,,,,,,,,,,,,,,,,,,,,,,,,,,,,,,,,,"[5,2,6,9,3,4,7]",5,0,5,0,1,,,,,,,,,,,,,,,,,,,,,,,,,,,,,,,,,,,,,,,,,,,,,,,,
,,55b508f4fdf99b1c26c21c69,2022-09-08_10h33.43.739,CGTgamblingSpanTasks,2022.2.1,Win32,60.0240096,,,,,,,,,,,,,,,,,,,,,,,,,,,,,,,,,,,,,,,,,,,,,,,,,,,,,,,,,,,,,,,,,,,,,,,,,,,,,,,,,,"[5,2,6,9,3,4,7]",6,0,6,0,1,,,,,,,,,,,,,,,,,,,,,,,,,,,,,,,,,,,,,,,,,,,,,,,,
,,55b508f4fdf99b1c26c21c69,2022-09-08_10h33.43.739,CGTgamblingSpanTasks,2022.2.1,Win32,60.0240096,,,,,,,,,,,,,,,,,,,,,,,,,,,,,,,,,,,,,,,,,,,,,,,,,,,,,,,,,,,,,,,0,,,,,,,,,,,,,,,,,,,,,,,,,529647,0.013020833,-0.38671875,1,0,0,cont_button,0,6,6,6,1,7,,,,,,,,,,,,,,,,,,,,,,,,,,,,,,,,,,,
,,55b508f4fdf99b1c26c21c69,2022-09-08_10h33.43.739,CGTgamblingSpanTasks,2022.2.1,Win32,60.0240096,,,,,,,,,,,,,,,,,,,,,,,,,,,,,,,,,,,,,,,,,,,,,,,,,,,,,,,,,,,,,,,,,,,,,,,,,,,,,,,,,,"[3,2,7,6,9,4]",0,0,0,0,1,,,,,,,,,,,,,,,,,,,,,,,,,,,,,,,,,,,,,,,,,,,,,,,,
,,55b508f4fdf99b1c26c21c69,2022-09-08_10h33.43.739,CGTgamblingSpanTasks,2022.2.1,Win32,60.0240096,,,,,,,,,,,,,,,,,,,,,,,,,,,,,,,,,,,,,,,,,,,,,,,,,,,,,,,,,,,,,,,,,,,,,,,,,,,,,,,,,,"[3,2,7,6,9,4]",1,0,1,0,1,,,,,,,,,,,,,,,,,,,,,,,,,,,,,,,,,,,,,,,,,,,,,,,,
,,55b508f4fdf99b1c26c21c69,2022-09-08_10h33.43.739,CGTgamblingSpanTasks,2022.2.1,Win32,60.0240096,,,,,,,,,,,,,,,,,,,,,,,,,,,,,,,,,,,,,,,,,,,,,,,,,,,,,,,,,,,,,,,,,,,,,,,,,,,,,,,,,,"[3,2,7,6,9,4]",2,0,2,0,1,,,,,,,,,,,,,,,,,,,,,,,,,,,,,,,,,,,,,,,,,,,,,,,,
,,55b508f4fdf99b1c26c21c69,2022-09-08_10h33.43.739,CGTgamblingSpanTasks,2022.2.1,Win32,60.0240096,,,,,,,,,,,,,,,,,,,,,,,,,,,,,,,,,,,,,,,,,,,,,,,,,,,,,,,,,,,,,,,,,,,,,,,,,,,,,,,,,,"[3,2,7,6,9,4]",3,0,3,0,1,,,,,,,,,,,,,,,,,,,,,,,,,,,,,,,,,,,,,,,,,,,,,,,,
,,55b508f4fdf99b1c26c21c69,2022-09-08_10h33.43.739,CGTgamblingSpanTasks,2022.2.1,Win32,60.0240096,,,,,,,,,,,,,,,,,,,,,,,,,,,,,,,,,,,,,,,,,,,,,,,,,,,,,,,,,,,,,,,,,,,,,,,,,,,,,,,,,,"[3,2,7,6,9,4]",4,0,4,0,1,,,,,,,,,,,,,,,,,,,,,,,,,,,,,,,,,,,,,,,,,,,,,,,,
,,55b508f4fdf99b1c26c21c69,2022-09-08_10h33.43.739,CGTgamblingSpanTasks,2022.2.1,Win32,60.0240096,,,,,,,,,,,,,,,,,,,,,,,,,,,,,,,,,,,,,,,,,,,,,,,,,,,,,,,,,,,,,,,,,,,,,,,,,,,,,,,,,,"[3,2,7,6,9,4]",5,0,5,0,1,,,,,,,,,,,,,,,,,,,,,,,,,,,,,,,,,,,,,,,,,,,,,,,,
,,55b508f4fdf99b1c26c21c69,2022-09-08_10h33.43.739,CGTgamblingSpanTasks,2022.2.1,Win32,60.0240096,,,,,,,,,,,,,,,,,,,,,,,,,,,,,,,,,,,,,,,,,,,,,,,,,,,,,,,,,,,,,,,1,,,,,,,,,,,,,,,,,,,,,,,,,327694,0.013020833,-0.38671875,1,0,0,cont_button,0,7,7,7,1,8,,,,,,,,,,,,,,,,,,,,,,,,,,,,,,,,,,,
,,55b508f4fdf99b1c26c21c69,2022-09-08_10h33.43.739,CGTgamblingSpanTasks,2022.2.1,Win32,60.0240096,,,,,,,,,,,,,,,,,,,,,,,,,,,,,,,,,,,,,,,,,,,,,,,,,,,,,,,,,,,,,,,,,,,,,,,,,,,,,,,,,,"[5,9,2,1,8,6,4]",0,0,0,0,1,,,,,,,,,,,,,,,,,,,,,,,,,,,,,,,,,,,,,,,,,,,,,,,,
,,55b508f4fdf99b1c26c21c69,2022-09-08_10h33.43.739,CGTgamblingSpanTasks,2022.2.1,Win32,60.0240096,,,,,,,,,,,,,,,,,,,,,,,,,,,,,,,,,,,,,,,,,,,,,,,,,,,,,,,,,,,,,,,,,,,,,,,,,,,,,,,,,,"[5,9,2,1,8,6,4]",1,0,1,0,1,,,,,,,,,,,,,,,,,,,,,,,,,,,,,,,,,,,,,,,,,,,,,,,,
,,55b508f4fdf99b1c26c21c69,2022-09-08_10h33.43.739,CGTgamblingSpanTasks,2022.2.1,Win32,60.0240096,,,,,,,,,,,,,,,,,,,,,,,,,,,,,,,,,,,,,,,,,,,,,,,,,,,,,,,,,,,,,,,,,,,,,,,,,,,,,,,,,,"[5,9,2,1,8,6,4]",2,0,2,0,1,,,,,,,,,,,,,,,,,,,,,,,,,,,,,,,,,,,,,,,,,,,,,,,,
,,55b508f4fdf99b1c26c21c69,2022-09-08_10h33.43.739,CGTgamblingSpanTasks,2022.2.1,Win32,60.0240096,,,,,,,,,,,,,,,,,,,,,,,,,,,,,,,,,,,,,,,,,,,,,,,,,,,,,,,,,,,,,,,,,,,,,,,,,,,,,,,,,,"[5,9,2,1,8,6,4]",3,0,3,0,1,,,,,,,,,,,,,,,,,,,,,,,,,,,,,,,,,,,,,,,,,,,,,,,,
,,55b508f4fdf99b1c26c21c69,2022-09-08_10h33.43.739,CGTgamblingSpanTasks,2022.2.1,Win32,60.0240096,,,,,,,,,,,,,,,,,,,,,,,,,,,,,,,,,,,,,,,,,,,,,,,,,,,,,,,,,,,,,,,,,,,,,,,,,,,,,,,,,,"[5,9,2,1,8,6,4]",4,0,4,0,1,,,,,,,,,,,,,,,,,,,,,,,,,,,,,,,,,,,,,,,,,,,,,,,,
,,55b508f4fdf99b1c26c21c69,2022-09-08_10h33.43.739,CGTgamblingSpanTasks,2022.2.1,Win32,60.0240096,,,,,,,,,,,,,,,,,,,,,,,,,,,,,,,,,,,,,,,,,,,,,,,,,,,,,,,,,,,,,,,,,,,,,,,,,,,,,,,,,,"[5,9,2,1,8,6,4]",5,0,5,0,1,,,,,,,,,,,,,,,,,,,,,,,,,,,,,,,,,,,,,,,,,,,,,,,,
,,55b508f4fdf99b1c26c21c69,2022-09-08_10h33.43.739,CGTgamblingSpanTasks,2022.2.1,Win32,60.0240096,,,,,,,,,,,,,,,,,,,,,,,,,,,,,,,,,,,,,,,,,,,,,,,,,,,,,,,,,,,,,,,,,,,,,,,,,,,,,,,,,,"[5,9,2,1,8,6,4]",6,0,6,0,1,,,,,,,,,,,,,,,,,,,,,,,,,,,,,,,,,,,,,,,,,,,,,,,,
,,55b508f4fdf99b1c26c21c69,2022-09-08_10h33.43.739,CGTgamblingSpanTasks,2022.2.1,Win32,60.0240096,,,,,,,,,,,,,,,,,,,,,,,,,,,,,,,,,,,,,,,,,,,,,,,,,,,,,,,,,,,,,,,0,,,,,,,,,,,,,,,,,,,,,,,,,592184,0.013020833,-0.38671875,1,0,0,cont_button,0,8,8,8,1,9,,,,,,,,,,,,,,,,,,,,,,,,,,,,,,,,,,,
,,55b508f4fdf99b1c26c21c69,2022-09-08_10h33.43.739,CGTgamblingSpanTasks,2022.2.1,Win32,60.0240096,,,,,,,,,,,,,,,,,,,,,,,,,,,,,,,,,,,,,,,,,,,,,,,,,,,,,,,,,,,,,,,,,,,,,,,,,,,,,,,,,,"[4,5,1,3,7,6,8]",0,0,0,0,1,,,,,,,,,,,,,,,,,,,,,,,,,,,,,,,,,,,,,,,,,,,,,,,,
,,55b508f4fdf99b1c26c21c69,2022-09-08_10h33.43.739,CGTgamblingSpanTasks,2022.2.1,Win32,60.0240096,,,,,,,,,,,,,,,,,,,,,,,,,,,,,,,,,,,,,,,,,,,,,,,,,,,,,,,,,,,,,,,,,,,,,,,,,,,,,,,,,,"[4,5,1,3,7,6,8]",1,0,1,0,1,,,,,,,,,,,,,,,,,,,,,,,,,,,,,,,,,,,,,,,,,,,,,,,,
,,55b508f4fdf99b1c26c21c69,2022-09-08_10h33.43.739,CGTgamblingSpanTasks,2022.2.1,Win32,60.0240096,,,,,,,,,,,,,,,,,,,,,,,,,,,,,,,,,,,,,,,,,,,,,,,,,,,,,,,,,,,,,,,,,,,,,,,,,,,,,,,,,,"[4,5,1,3,7,6,8]",2,0,2,0,1,,,,,,,,,,,,,,,,,,,,,,,,,,,,,,,,,,,,,,,,,,,,,,,,
,,55b508f4fdf99b1c26c21c69,2022-09-08_10h33.43.739,CGTgamblingSpanTasks,2022.2.1,Win32,60.0240096,,,,,,,,,,,,,,,,,,,,,,,,,,,,,,,,,,,,,,,,,,,,,,,,,,,,,,,,,,,,,,,,,,,,,,,,,,,,,,,,,,"[4,5,1,3,7,6,8]",3,0,3,0,1,,,,,,,,,,,,,,,,,,,,,,,,,,,,,,,,,,,,,,,,,,,,,,,,
,,55b508f4fdf99b1c26c21c69,2022-09-08_10h33.43.739,CGTgamblingSpanTasks,2022.2.1,Win32,60.0240096,,,,,,,,,,,,,,,,,,,,,,,,,,,,,,,,,,,,,,,,,,,,,,,,,,,,,,,,,,,,,,,,,,,,,,,,,,,,,,,,,,"[4,5,1,3,7,6,8]",4,0,4,0,1,,,,,,,,,,,,,,,,,,,,,,,,,,,,,,,,,,,,,,,,,,,,,,,,
,,55b508f4fdf99b1c26c21c69,2022-09-08_10h33.43.739,CGTgamblingSpanTasks,2022.2.1,Win32,60.0240096,,,,,,,,,,,,,,,,,,,,,,,,,,,,,,,,,,,,,,,,,,,,,,,,,,,,,,,,,,,,,,,,,,,,,,,,,,,,,,,,,,"[4,5,1,3,7,6,8]",5,0,5,0,1,,,,,,,,,,,,,,,,,,,,,,,,,,,,,,,,,,,,,,,,,,,,,,,,
,,55b508f4fdf99b1c26c21c69,2022-09-08_10h33.43.739,CGTgamblingSpanTasks,2022.2.1,Win32,60.0240096,,,,,,,,,,,,,,,,,,,,,,,,,,,,,,,,,,,,,,,,,,,,,,,,,,,,,,,,,,,,,,,,,,,,,,,,,,,,,,,,,,"[4,5,1,3,7,6,8]",6,0,6,0,1,,,,,,,,,,,,,,,,,,,,,,,,,,,,,,,,,,,,,,,,,,,,,,,,
,,55b508f4fdf99b1c26c21c69,2022-09-08_10h33.43.739,CGTgamblingSpanTasks,2022.2.1,Win32,60.0240096,,,,,,,,,,,,,,,,,,,,,,,,,,,,,,,,,,,,,,,,,,,,,,,,,,,,,,,,,,,,,,,0,,,,,,,,,,,,,,,,,,,,,,,,,453768,0.013020833,-0.38671875,1,0,0,cont_button,0,9,9,9,1,10,,,,,,,,,,,,,,,,,,,,,,,,,,,,,,,,,,,
,,55b508f4fdf99b1c26c21c69,2022-09-08_10h33.43.739,CGTgamblingSpanTasks,2022.2.1,Win32,60.0240096,,,,,,,,,,,,,,,,,,,,,,,,,,,,,,,,,,,,,,,,,,,,,,,,,,,,,,,,,,,,,,,,,,,,,,,,,,,,,,,,,,"[2,5,6,4,1,8]",0,0,0,0,1,,,,,,,,,,,,,,,,,,,,,,,,,,,,,,,,,,,,,,,,,,,,,,,,
,,55b508f4fdf99b1c26c21c69,2022-09-08_10h33.43.739,CGTgamblingSpanTasks,2022.2.1,Win32,60.0240096,,,,,,,,,,,,,,,,,,,,,,,,,,,,,,,,,,,,,,,,,,,,,,,,,,,,,,,,,,,,,,,,,,,,,,,,,,,,,,,,,,"[2,5,6,4,1,8]",1,0,1,0,1,,,,,,,,,,,,,,,,,,,,,,,,,,,,,,,,,,,,,,,,,,,,,,,,
,,55b508f4fdf99b1c26c21c69,2022-09-08_10h33.43.739,CGTgamblingSpanTasks,2022.2.1,Win32,60.0240096,,,,,,,,,,,,,,,,,,,,,,,,,,,,,,,,,,,,,,,,,,,,,,,,,,,,,,,,,,,,,,,,,,,,,,,,,,,,,,,,,,"[2,5,6,4,1,8]",2,0,2,0,1,,,,,,,,,,,,,,,,,,,,,,,,,,,,,,,,,,,,,,,,,,,,,,,,
,,55b508f4fdf99b1c26c21c69,2022-09-08_10h33.43.739,CGTgamblingSpanTasks,2022.2.1,Win32,60.0240096,,,,,,,,,,,,,,,,,,,,,,,,,,,,,,,,,,,,,,,,,,,,,,,,,,,,,,,,,,,,,,,,,,,,,,,,,,,,,,,,,,"[2,5,6,4,1,8]",3,0,3,0,1,,,,,,,,,,,,,,,,,,,,,,,,,,,,,,,,,,,,,,,,,,,,,,,,
,,55b508f4fdf99b1c26c21c69,2022-09-08_10h33.43.739,CGTgamblingSpanTasks,2022.2.1,Win32,60.0240096,,,,,,,,,,,,,,,,,,,,,,,,,,,,,,,,,,,,,,,,,,,,,,,,,,,,,,,,,,,,,,,,,,,,,,,,,,,,,,,,,,"[2,5,6,4,1,8]",4,0,4,0,1,,,,,,,,,,,,,,,,,,,,,,,,,,,,,,,,,,,,,,,,,,,,,,,,
,,55b508f4fdf99b1c26c21c69,2022-09-08_10h33.43.739,CGTgamblingSpanTasks,2022.2.1,Win32,60.0240096,,,,,,,,,,,,,,,,,,,,,,,,,,,,,,,,,,,,,,,,,,,,,,,,,,,,,,,,,,,,,,,,,,,,,,,,,,,,,,,,,,"[2,5,6,4,1,8]",5,0,5,0,1,,,,,,,,,,,,,,,,,,,,,,,,,,,,,,,,,,,,,,,,,,,,,,,,
,,55b508f4fdf99b1c26c21c69,2022-09-08_10h33.43.739,CGTgamblingSpanTasks,2022.2.1,Win32,60.0240096,,,,,,,,,,,,,,,,,,,,,,,,,,,,,,,,,,,,,,,,,,,,,,,,,,,,,,,,,,,,,,,1,,,,,,,,,,,,,,,,,,,,,,,,,256418,0.013020833,-0.38671875,1,0,0,cont_button,0,10,10,10,1,11,,,,,,,,,,,,,,,,,,,,,,,,,,,,,,,,,,,
,,55b508f4fdf99b1c26c21c69,2022-09-08_10h33.43.739,CGTgamblingSpanTasks,2022.2.1,Win32,60.0240096,,,,,,,,,,,,,,,,,,,,,,,,,,,,,,,,,,,,,,,,,,,,,,,,,,,,,,,,,,,,,,,,,,,,,,,,,,,,,,,,,,"[9,5,2,7,6,8,4]",0,0,0,0,1,,,,,,,,,,,,,,,,,,,,,,,,,,,,,,,,,,,,,,,,,,,,,,,,
,,55b508f4fdf99b1c26c21c69,2022-09-08_10h33.43.739,CGTgamblingSpanTasks,2022.2.1,Win32,60.0240096,,,,,,,,,,,,,,,,,,,,,,,,,,,,,,,,,,,,,,,,,,,,,,,,,,,,,,,,,,,,,,,,,,,,,,,,,,,,,,,,,,"[9,5,2,7,6,8,4]",1,0,1,0,1,,,,,,,,,,,,,,,,,,,,,,,,,,,,,,,,,,,,,,,,,,,,,,,,
,,55b508f4fdf99b1c26c21c69,2022-09-08_10h33.43.739,CGTgamblingSpanTasks,2022.2.1,Win32,60.0240096,,,,,,,,,,,,,,,,,,,,,,,,,,,,,,,,,,,,,,,,,,,,,,,,,,,,,,,,,,,,,,,,,,,,,,,,,,,,,,,,,,"[9,5,2,7,6,8,4]",2,0,2,0,1,,,,,,,,,,,,,,,,,,,,,,,,,,,,,,,,,,,,,,,,,,,,,,,,
,,55b508f4fdf99b1c26c21c69,2022-09-08_10h33.43.739,CGTgamblingSpanTasks,2022.2.1,Win32,60.0240096,,,,,,,,,,,,,,,,,,,,,,,,,,,,,,,,,,,,,,,,,,,,,,,,,,,,,,,,,,,,,,,,,,,,,,,,,,,,,,,,,,"[9,5,2,7,6,8,4]",3,0,3,0,1,,,,,,,,,,,,,,,,,,,,,,,,,,,,,,,,,,,,,,,,,,,,,,,,
,,55b508f4fdf99b1c26c21c69,2022-09-08_10h33.43.739,CGTgamblingSpanTasks,2022.2.1,Win32,60.0240096,,,,,,,,,,,,,,,,,,,,,,,,,,,,,,,,,,,,,,,,,,,,,,,,,,,,,,,,,,,,,,,,,,,,,,,,,,,,,,,,,,"[9,5,2,7,6,8,4]",4,0,4,0,1,,,,,,,,,,,,,,,,,,,,,,,,,,,,,,,,,,,,,,,,,,,,,,,,
,,55b508f4fdf99b1c26c21c69,2022-09-08_10h33.43.739,CGTgamblingSpanTasks,2022.2.1,Win32,60.0240096,,,,,,,,,,,,,,,,,,,,,,,,,,,,,,,,,,,,,,,,,,,,,,,,,,,,,,,,,,,,,,,,,,,,,,,,,,,,,,,,,,"[9,5,2,7,6,8,4]",5,0,5,0,1,,,,,,,,,,,,,,,,,,,,,,,,,,,,,,,,,,,,,,,,,,,,,,,,
,,55b508f4fdf99b1c26c21c69,2022-09-08_10h33.43.739,CGTgamblingSpanTasks,2022.2.1,Win32,60.0240096,,,,,,,,,,,,,,,,,,,,,,,,,,,,,,,,,,,,,,,,,,,,,,,,,,,,,,,,,,,,,,,,,,,,,,,,,,,,,,,,,,"[9,5,2,7,6,8,4]",6,0,6,0,1,,,,,,,,,,,,,,,,,,,,,,,,,,,,,,,,,,,,,,,,,,,,,,,,
,,55b508f4fdf99b1c26c21c69,2022-09-08_10h33.43.739,CGTgamblingSpanTasks,2022.2.1,Win32,60.0240096,,,,,,,,,,,,,,,,,,,,,,,,,,,,,,,,,,,,,,,,,,,,,,,,,,,,,,,,,,,,,,,0,,,,,,,,,,,,,,,,,,,,,,,,,9527682,0.013020833,-0.38671875,1,0,0,cont_button,0,11,11,11,1,12,,,,,,,,,,,,,,,,,,,,,,,,,,,,,,,,,,,
,,55b508f4fdf99b1c26c21c69,2022-09-08_10h33.43.739,CGTgamblingSpanTasks,2022.2.1,Win32,60.0240096,,,,,,,,,,,,,,,,,,,,,,,,,,,,,,,,,,,,,,,,,,,,,,,,,,,,,,,,,,,,,,,,,,,,,,,,,,,,,,,,,,"[8,9,5,6,4,2,7]",0,0,0,0,1,,,,,,,,,,,,,,,,,,,,,,,,,,,,,,,,,,,,,,,,,,,,,,,,
,,55b508f4fdf99b1c26c21c69,2022-09-08_10h33.43.739,CGTgamblingSpanTasks,2022.2.1,Win32,60.0240096,,,,,,,,,,,,,,,,,,,,,,,,,,,,,,,,,,,,,,,,,,,,,,,,,,,,,,,,,,,,,,,,,,,,,,,,,,,,,,,,,,"[8,9,5,6,4,2,7]",1,0,1,0,1,,,,,,,,,,,,,,,,,,,,,,,,,,,,,,,,,,,,,,,,,,,,,,,,
,,55b508f4fdf99b1c26c21c69,2022-09-08_10h33.43.739,CGTgamblingSpanTasks,2022.2.1,Win32,60.0240096,,,,,,,,,,,,,,,,,,,,,,,,,,,,,,,,,,,,,,,,,,,,,,,,,,,,,,,,,,,,,,,,,,,,,,,,,,,,,,,,,,"[8,9,5,6,4,2,7]",2,0,2,0,1,,,,,,,,,,,,,,,,,,,,,,,,,,,,,,,,,,,,,,,,,,,,,,,,
,,55b508f4fdf99b1c26c21c69,2022-09-08_10h33.43.739,CGTgamblingSpanTasks,2022.2.1,Win32,60.0240096,,,,,,,,,,,,,,,,,,,,,,,,,,,,,,,,,,,,,,,,,,,,,,,,,,,,,,,,,,,,,,,,,,,,,,,,,,,,,,,,,,"[8,9,5,6,4,2,7]",3,0,3,0,1,,,,,,,,,,,,,,,,,,,,,,,,,,,,,,,,,,,,,,,,,,,,,,,,
,,55b508f4fdf99b1c26c21c69,2022-09-08_10h33.43.739,CGTgamblingSpanTasks,2022.2.1,Win32,60.0240096,,,,,,,,,,,,,,,,,,,,,,,,,,,,,,,,,,,,,,,,,,,,,,,,,,,,,,,,,,,,,,,,,,,,,,,,,,,,,,,,,,"[8,9,5,6,4,2,7]",4,0,4,0,1,,,,,,,,,,,,,,,,,,,,,,,,,,,,,,,,,,,,,,,,,,,,,,,,
,,55b508f4fdf99b1c26c21c69,2022-09-08_10h33.43.739,CGTgamblingSpanTasks,2022.2.1,Win32,60.0240096,,,,,,,,,,,,,,,,,,,,,,,,,,,,,,,,,,,,,,,,,,,,,,,,,,,,,,,,,,,,,,,,,,,,,,,,,,,,,,,,,,"[8,9,5,6,4,2,7]",5,0,5,0,1,,,,,,,,,,,,,,,,,,,,,,,,,,,,,,,,,,,,,,,,,,,,,,,,
,,55b508f4fdf99b1c26c21c69,2022-09-08_10h33.43.739,CGTgamblingSpanTasks,2022.2.1,Win32,60.0240096,,,,,,,,,,,,,,,,,,,,,,,,,,,,,,,,,,,,,,,,,,,,,,,,,,,,,,,,,,,,,,,,,,,,,,,,,,,,,,,,,,"[8,9,5,6,4,2,7]",6,0,6,0,1,,,,,,,,,,,,,,,,,,,,,,,,,,,,,,,,,,,,,,,,,,,,,,,,
,,55b508f4fdf99b1c26c21c69,2022-09-08_10h33.43.739,CGTgamblingSpanTasks,2022.2.1,Win32,60.0240096,,,,,,,,,,,,,,,,,,,,,,,,,,,,,,,,,,,,,,,,,,,,,,,,,,,,,,,,,,,,,,,0,,,,,,,,,,,,,,,,,,,,,,,,,89576427,0.013020833,-0.38671875,1,0,0,cont_button,0,12,12,12,1,13,,,,,,,,,,,,,,,,,,,,,,,,,,,,,,,,,,,
,,55b508f4fdf99b1c26c21c69,2022-09-08_10h33.43.739,CGTgamblingSpanTasks,2022.2.1,Win32,60.0240096,,,,,,,,,,,,,,,,,,,,,,,,,,,,,,,,,,,,,,,,,,,,,,,,,,,,,,,,,,,,,,,,,,,,,,,,,,,,,,,,,,"[4,8,5,2,6,1]",0,0,0,0,1,,,,,,,,,,,,,,,,,,,,,,,,,,,,,,,,,,,,,,,,,,,,,,,,
,,55b508f4fdf99b1c26c21c69,2022-09-08_10h33.43.739,CGTgamblingSpanTasks,2022.2.1,Win32,60.0240096,,,,,,,,,,,,,,,,,,,,,,,,,,,,,,,,,,,,,,,,,,,,,,,,,,,,,,,,,,,,,,,,,,,,,,,,,,,,,,,,,,"[4,8,5,2,6,1]",1,0,1,0,1,,,,,,,,,,,,,,,,,,,,,,,,,,,,,,,,,,,,,,,,,,,,,,,,
,,55b508f4fdf99b1c26c21c69,2022-09-08_10h33.43.739,CGTgamblingSpanTasks,2022.2.1,Win32,60.0240096,,,,,,,,,,,,,,,,,,,,,,,,,,,,,,,,,,,,,,,,,,,,,,,,,,,,,,,,,,,,,,,,,,,,,,,,,,,,,,,,,,"[4,8,5,2,6,1]",2,0,2,0,1,,,,,,,,,,,,,,,,,,,,,,,,,,,,,,,,,,,,,,,,,,,,,,,,
,,55b508f4fdf99b1c26c21c69,2022-09-08_10h33.43.739,CGTgamblingSpanTasks,2022.2.1,Win32,60.0240096,,,,,,,,,,,,,,,,,,,,,,,,,,,,,,,,,,,,,,,,,,,,,,,,,,,,,,,,,,,,,,,,,,,,,,,,,,,,,,,,,,"[4,8,5,2,6,1]",3,0,3,0,1,,,,,,,,,,,,,,,,,,,,,,,,,,,,,,,,,,,,,,,,,,,,,,,,
,,55b508f4fdf99b1c26c21c69,2022-09-08_10h33.43.739,CGTgamblingSpanTasks,2022.2.1,Win32,60.0240096,,,,,,,,,,,,,,,,,,,,,,,,,,,,,,,,,,,,,,,,,,,,,,,,,,,,,,,,,,,,,,,,,,,,,,,,,,,,,,,,,,"[4,8,5,2,6,1]",4,0,4,0,1,,,,,,,,,,,,,,,,,,,,,,,,,,,,,,,,,,,,,,,,,,,,,,,,
,,55b508f4fdf99b1c26c21c69,2022-09-08_10h33.43.739,CGTgamblingSpanTasks,2022.2.1,Win32,60.0240096,,,,,,,,,,,,,,,,,,,,,,,,,,,,,,,,,,,,,,,,,,,,,,,,,,,,,,,,,,,,,,,,,,,,,,,,,,,,,,,,,,"[4,8,5,2,6,1]",5,0,5,0,1,,,,,,,,,,,,,,,,,,,,,,,,,,,,,,,,,,,,,,,,,,,,,,,,
,,55b508f4fdf99b1c26c21c69,2022-09-08_10h33.43.739,CGTgamblingSpanTasks,2022.2.1,Win32,60.0240096,,,,,,,,,,,,,,,,,,,,,,,,,,,,,,,,,,,,,,,,,,,,,,,,,,,,,,,,,,,,,,,1,,,,,,,,,,,,,,,,,,,,,,,,,485261,0.013020833,-0.38671875,1,0,0,cont_button,0,13,13,13,1,14,,,,,,,,,,,,,,,,,,,,,,,,,,,,,,,,,,,
,,55b508f4fdf99b1c26c21c69,2022-09-08_10h33.43.739,CGTgamblingSpanTasks,2022.2.1,Win32,60.0240096,,,,,,,,,,,,,,,,,,,,,,,,,,,,,,,,,,,,,,,,,,,,,,,,,,,,,,,,,,,,,,,,,,,,,,,,,,,,,,,,,,,,,,,,,,,,,,,,,,,,,return,2.845,,,,,,,,,,,,,,,,,,,,,,,,,,,,,,,,,
,,55b508f4fdf99b1c26c21c69,2022-09-08_10h33.43.739,CGTgamblingSpanTasks,2022.2.1,Win32,60.0240096,,,,,,,,,,,,,,,,,,,,,,,,,,,,,,,,,,,,,,,,,,,,,,,,,,,,,,,,,,,,,,,,,,,,,,,,,,,,,,,,,,,,,,,,,,,,,,,,,,,,,,,return,11.307,,,,,,,,,,,,,,,,,,,,,,,,,,,,,,,
,,55b508f4fdf99b1c26c21c69,2022-09-08_10h33.43.739,CGTgamblingSpanTasks,2022.2.1,Win32,60.0240096,,,,,,,,,,,,,,,,,,,,,,,,,,,,,,,,,,,,,,,,,,,,,,,,,,,,,,,,,,,,,,,1,,,,,,,,,,,,3,342,24,2,42,,,,,,,,,,,,,,,,,,,,,,,,,,42,0.013020833,-0.38671875,1,0,0,cont_buttonPractice_2,0,0,0,0,1,,,,,,,,,,,,,,,,,,,
,,55b508f4fdf99b1c26c21c69,2022-09-08_10h33.43.739,CGTgamblingSpanTasks,2022.2.1,Win32,60.0240096,,,,,,,,,,,,,,,,,,,,,,,,,,,,,,,,,,,,,,,,,,,,,,,,,,,,,,,,,,,,,,,1,,,,,,,,,,,,3,937,73,2,37,,,,,,,,,,,,,,,,,,,,,,,,,,37,0.013020833,-0.38671875,1,0,0,cont_buttonPractice_2,0,1,1,1,1,,,,,,,,,,,,,,,,,,,
,,55b508f4fdf99b1c26c21c69,2022-09-08_10h33.43.739,CGTgamblingSpanTasks,2022.2.1,Win32,60.0240096,,,,,,,,,,,,,,,,,,,,,,,,,,,,,,,,,,,,,,,,,,,,,,,,,,,,,,,,,,,,,,,,,,,,,,,,,,,,,,,,,,,,,,,,,,,,,,,,,,,,,,,,,,,,,,,,,,,,,return,4.431,,,,,,,,,,,,,,,,,
,,55b508f4fdf99b1c26c21c69,2022-09-08_10h33.43.739,CGTgamblingSpanTasks,2022.2.1,Win32,60.0240096,,,,,,,,,,,,,,,,,,,,,,,,,,,,,,,,,,,,,,,,,,,,,,,,,,,,,,,,,,,,,,,,,,,,,,,,,,,,,,,,,,"[1,8]",,,,,,,,,,,,,,,,,,,,,,,,,,,,,,,,,,,,,0,0,0,0,1,,,,,,,,,,,,
,,55b508f4fdf99b1c26c21c69,2022-09-08_10h33.43.739,CGTgamblingSpanTasks,2022.2.1,Win32,60.0240096,,,,,,,,,,,,,,,,,,,,,,,,,,,,,,,,,,,,,,,,,,,,,,,,,,,,,,,,,,,,,,,,,,,,,,,,,,,,,,,,,,"[1,8]",,,,,,,,,,,,,,,,,,,,,,,,,,,,,,,,,,,,,1,0,1,0,1,,,,,,,,,,,,
,,55b508f4fdf99b1c26c21c69,2022-09-08_10h33.43.739,CGTgamblingSpanTasks,2022.2.1,Win32,60.0240096,,,,,,,,,,,,,,,,,,,,,,,,,,,,,,,,,,,,,,,,,,,,,,,,,,,,,,,,,,,,,,,1,,,,,,,,,,,,,,,,,,,,,,,,,,,,,,,,,,,,,1,,,,,,,,,,,,,,,,,,,,,,,,81,0.013020833,-0.38671875,1,0,0,cont_buttonBS,0,0,0,0,1
,,55b508f4fdf99b1c26c21c69,2022-09-08_10h33.43.739,CGTgamblingSpanTasks,2022.2.1,Win32,60.0240096,,,,,,,,,,,,,,,,,,,,,,,,,,,,,,,,,,,,,,,,,,,,,,,,,,,,,,,,,,,,,,,,,,,,,,,,,,,,,,,,,,"[7,2,1]",,,,,,,,,,,,,,,,,,,,,,,,,,,,,,,,,,,,,0,0,0,0,1,,,,,,,,,,,,
,,55b508f4fdf99b1c26c21c69,2022-09-08_10h33.43.739,CGTgamblingSpanTasks,2022.2.1,Win32,60.0240096,,,,,,,,,,,,,,,,,,,,,,,,,,,,,,,,,,,,,,,,,,,,,,,,,,,,,,,,,,,,,,,,,,,,,,,,,,,,,,,,,,"[7,2,1]",,,,,,,,,,,,,,,,,,,,,,,,,,,,,,,,,,,,,1,0,1,0,1,,,,,,,,,,,,
,,55b508f4fdf99b1c26c21c69,2022-09-08_10h33.43.739,CGTgamblingSpanTasks,2022.2.1,Win32,60.0240096,,,,,,,,,,,,,,,,,,,,,,,,,,,,,,,,,,,,,,,,,,,,,,,,,,,,,,,,,,,,,,,,,,,,,,,,,,,,,,,,,,"[7,2,1]",,,,,,,,,,,,,,,,,,,,,,,,,,,,,,,,,,,,,2,0,2,0,1,,,,,,,,,,,,
,,55b508f4fdf99b1c26c21c69,2022-09-08_10h33.43.739,CGTgamblingSpanTasks,2022.2.1,Win32,60.0240096,,,,,,,,,,,,,,,,,,,,,,,,,,,,,,,,,,,,,,,,,,,,,,,,,,,,,,,,,,,,,,,1,,,,,,,,,,,,,,,,,,,,,,,,,,,,,,,,,,,,,2,,,,,,,,,,,,,,,,,,,,,,,,127,0.013020833,-0.38671875,1,0,0,cont_buttonBS,0,1,1,1,1
,,55b508f4fdf99b1c26c21c69,2022-09-08_10h33.43.739,CGTgamblingSpanTasks,2022.2.1,Win32,60.0240096,,,,,,,,,,,,,,,,,,,,,,,,,,,,,,,,,,,,,,,,,,,,,,,,,,,,,,,,,,,,,,,,,,,,,,,,,,,,,,,,,,"[1,9,7,6]",,,,,,,,,,,,,,,,,,,,,,,,,,,,,,,,,,,,,0,0,0,0,1,,,,,,,,,,,,
,,55b508f4fdf99b1c26c21c69,2022-09-08_10h33.43.739,CGTgamblingSpanTasks,2022.2.1,Win32,60.0240096,,,,,,,,,,,,,,,,,,,,,,,,,,,,,,,,,,,,,,,,,,,,,,,,,,,,,,,,,,,,,,,,,,,,,,,,,,,,,,,,,,"[1,9,7,6]",,,,,,,,,,,,,,,,,,,,,,,,,,,,,,,,,,,,,1,0,1,0,1,,,,,,,,,,,,
,,55b508f4fdf99b1c26c21c69,2022-09-08_10h33.43.739,CGTgamblingSpanTasks,2022.2.1,Win32,60.0240096,,,,,,,,,,,,,,,,,,,,,,,,,,,,,,,,,,,,,,,,,,,,,,,,,,,,,,,,,,,,,,,,,,,,,,,,,,,,,,,,,,"[1,9,7,6]",,,,,,,,,,,,,,,,,,,,,,,,,,,,,,,,,,,,,2,0,2,0,1,,,,,,,,,,,,
,,55b508f4fdf99b1c26c21c69,2022-09-08_10h33.43.739,CGTgamblingSpanTasks,2022.2.1,Win32,60.0240096,,,,,,,,,,,,,,,,,,,,,,,,,,,,,,,,,,,,,,,,,,,,,,,,,,,,,,,,,,,,,,,,,,,,,,,,,,,,,,,,,,"[1,9,7,6]",,,,,,,,,,,,,,,,,,,,,,,,,,,,,,,,,,,,,3,0,3,0,1,,,,,,,,,,,,
,,55b508f4fdf99b1c26c21c69,2022-09-08_10h33.43.739,CGTgamblingSpanTasks,2022.2.1,Win32,60.0240096,,,,,,,,,,,,,,,,,,,,,,,,,,,,,,,,,,,,,,,,,,,,,,,,,,,,,,,,,,,,,,,1,,,,,,,,,,,,,,,,,,,,,,,,,,,,,,,,,,,,,3,,,,,,,,,,,,,,,,,,,,,,,,6791,0.013020833,-0.38671875,1,0,0,cont_buttonBS,0,2,2,2,1
,,55b508f4fdf99b1c26c21c69,2022-09-08_10h33.43.739,CGTgamblingSpanTasks,2022.2.1,Win32,60.0240096,,,,,,,,,,,,,,,,,,,,,,,,,,,,,,,,,,,,,,,,,,,,,,,,,,,,,,,,,,,,,,,,,,,,,,,,,,,,,,,,,,"[1,8,4,5,3]",,,,,,,,,,,,,,,,,,,,,,,,,,,,,,,,,,,,,0,0,0,0,1,,,,,,,,,,,,
,,55b508f4fdf99b1c26c21c69,2022-09-08_10h33.43.739,CGTgamblingSpanTasks,2022.2.1,Win32,60.0240096,,,,,,,,,,,,,,,,,,,,,,,,,,,,,,,,,,,,,,,,,,,,,,,,,,,,,,,,,,,,,,,,,,,,,,,,,,,,,,,,,,"[1,8,4,5,3]",,,,,,,,,,,,,,,,,,,,,,,,,,,,,,,,,,,,,1,0,1,0,1,,,,,,,,,,,,
,,55b508f4fdf99b1c26c21c69,2022-09-08_10h33.43.739,CGTgamblingSpanTasks,2022.2.1,Win32,60.0240096,,,,,,,,,,,,,,,,,,,,,,,,,,,,,,,,,,,,,,,,,,,,,,,,,,,,,,,,,,,,,,,,,,,,,,,,,,,,,,,,,,"[1,8,4,5,3]",,,,,,,,,,,,,,,,,,,,,,,,,,,,,,,,,,,,,2,0,2,0,1,,,,,,,,,,,,
,,55b508f4fdf99b1c26c21c69,2022-09-08_10h33.43.739,CGTgamblingSpanTasks,2022.2.1,Win32,60.0240096,,,,,,,,,,,,,,,,,,,,,,,,,,,,,,,,,,,,,,,,,,,,,,,,,,,,,,,,,,,,,,,,,,,,,,,,,,,,,,,,,,"[1,8,4,5,3]",,,,,,,,,,,,,,,,,,,,,,,,,,,,,,,,,,,,,3,0,3,0,1,,,,,,,,,,,,
,,55b508f4fdf99b1c26c21c69,2022-09-08_10h33.43.739,CGTgamblingSpanTasks,2022.2.1,Win32,60.0240096,,,,,,,,,,,,,,,,,,,,,,,,,,,,,,,,,,,,,,,,,,,,,,,,,,,,,,,,,,,,,,,,,,,,,,,,,,,,,,,,,,"[1,8,4,5,3]",,,,,,,,,,,,,,,,,,,,,,,,,,,,,,,,,,,,,4,0,4,0,1,,,,,,,,,,,,
,,55b508f4fdf99b1c26c21c69,2022-09-08_10h33.43.739,CGTgamblingSpanTasks,2022.2.1,Win32,60.0240096,,,,,,,,,,,,,,,,,,,,,,,,,,,,,,,,,,,,,,,,,,,,,,,,,,,,,,,,,,,,,,,0,,,,,,,,,,,,,,,,,,,,,,,,,,,,,,,,,,,,,4,,,,,,,,,,,,,,,,,,,,,,,,35879,0.013020833,-0.38671875,1,0,0,cont_buttonBS,0,3,3,3,1
,,55b508f4fdf99b1c26c21c69,2022-09-08_10h33.43.739,CGTgamblingSpanTasks,2022.2.1,Win32,60.0240096,,,,,,,,,,,,,,,,,,,,,,,,,,,,,,,,,,,,,,,,,,,,,,,,,,,,,,,,,,,,,,,,,,,,,,,,,,,,,,,,,,"[6,4,8,5,3]",,,,,,,,,,,,,,,,,,,,,,,,,,,,,,,,,,,,,0,0,0,0,1,,,,,,,,,,,,
,,55b508f4fdf99b1c26c21c69,2022-09-08_10h33.43.739,CGTgamblingSpanTasks,2022.2.1,Win32,60.0240096,,,,,,,,,,,,,,,,,,,,,,,,,,,,,,,,,,,,,,,,,,,,,,,,,,,,,,,,,,,,,,,,,,,,,,,,,,,,,,,,,,"[6,4,8,5,3]",,,,,,,,,,,,,,,,,,,,,,,,,,,,,,,,,,,,,1,0,1,0,1,,,,,,,,,,,,
,,55b508f4fdf99b1c26c21c69,2022-09-08_10h33.43.739,CGTgamblingSpanTasks,2022.2.1,Win32,60.0240096,,,,,,,,,,,,,,,,,,,,,,,,,,,,,,,,,,,,,,,,,,,,,,,,,,,,,,,,,,,,,,,,,,,,,,,,,,,,,,,,,,"[6,4,8,5,3]",,,,,,,,,,,,,,,,,,,,,,,,,,,,,,,,,,,,,2,0,2,0,1,,,,,,,,,,,,
,,55b508f4fdf99b1c26c21c69,2022-09-08_10h33.43.739,CGTgamblingSpanTasks,2022.2.1,Win32,60.0240096,,,,,,,,,,,,,,,,,,,,,,,,,,,,,,,,,,,,,,,,,,,,,,,,,,,,,,,,,,,,,,,,,,,,,,,,,,,,,,,,,,"[6,4,8,5,3]",,,,,,,,,,,,,,,,,,,,,,,,,,,,,,,,,,,,,3,0,3,0,1,,,,,,,,,,,,
,,55b508f4fdf99b1c26c21c69,2022-09-08_10h33.43.739,CGTgamblingSpanTasks,2022.2.1,Win32,60.0240096,,,,,,,,,,,,,,,,,,,,,,,,,,,,,,,,,,,,,,,,,,,,,,,,,,,,,,,,,,,,,,,,,,,,,,,,,,,,,,,,,,"[6,4,8,5,3]",,,,,,,,,,,,,,,,,,,,,,,,,,,,,,,,,,,,,4,0,4,0,1,,,,,,,,,,,,
,,55b508f4fdf99b1c26c21c69,2022-09-08_10h33.43.739,CGTgamblingSpanTasks,2022.2.1,Win32,60.0240096,,,,,,,,,,,,,,,,,,,,,,,,,,,,,,,,,,,,,,,,,,,,,,,,,,,,,,,,,,,,,,,0,,,,,,,,,,,,,,,,,,,,,,,,,,,,,,,,,,,,,5,,,,,,,,,,,,,,,,,,,,,,,,35768,0.013020833,-0.38671875,1,0,0,cont_buttonBS,0,4,4,4,1
,,55b508f4fdf99b1c26c21c69,2022-09-08_10h33.43.739,CGTgamblingSpanTasks,2022.2.1,Win32,60.0240096,,,,,,,,,,,,,,,,,,,,,,,,,,,,,,,,,,,,,,,,,,,,,,,,,,,,,,,,,,,,,,,,,,,,,,,,,,,,,,,,,,"[3,5,6,2]",,,,,,,,,,,,,,,,,,,,,,,,,,,,,,,,,,,,,0,0,0,0,1,,,,,,,,,,,,
,,55b508f4fdf99b1c26c21c69,2022-09-08_10h33.43.739,CGTgamblingSpanTasks,2022.2.1,Win32,60.0240096,,,,,,,,,,,,,,,,,,,,,,,,,,,,,,,,,,,,,,,,,,,,,,,,,,,,,,,,,,,,,,,,,,,,,,,,,,,,,,,,,,"[3,5,6,2]",,,,,,,,,,,,,,,,,,,,,,,,,,,,,,,,,,,,,1,0,1,0,1,,,,,,,,,,,,
,,55b508f4fdf99b1c26c21c69,2022-09-08_10h33.43.739,CGTgamblingSpanTasks,2022.2.1,Win32,60.0240096,,,,,,,,,,,,,,,,,,,,,,,,,,,,,,,,,,,,,,,,,,,,,,,,,,,,,,,,,,,,,,,,,,,,,,,,,,,,,,,,,,"[3,5,6,2]",,,,,,,,,,,,,,,,,,,,,,,,,,,,,,,,,,,,,2,0,2,0,1,,,,,,,,,,,,
,,55b508f4fdf99b1c26c21c69,2022-09-08_10h33.43.739,CGTgamblingSpanTasks,2022.2.1,Win32,60.0240096,,,,,,,,,,,,,,,,,,,,,,,,,,,,,,,,,,,,,,,,,,,,,,,,,,,,,,,,,,,,,,,,,,,,,,,,,,,,,,,,,,"[3,5,6,2]",,,,,,,,,,,,,,,,,,,,,,,,,,,,,,,,,,,,,3,0,3,0,1,,,,,,,,,,,,
,,55b508f4fdf99b1c26c21c69,2022-09-08_10h33.43.739,CGTgamblingSpanTasks,2022.2.1,Win32,60.0240096,,,,,,,,,,,,,,,,,,,,,,,,,,,,,,,,,,,,,,,,,,,,,,,,,,,,,,,,,,,,,,,1,,,,,,,,,,,,,,,,,,,,,,,,,,,,,,,,,,,,,6,,,,,,,,,,,,,,,,,,,,,,,,2653,0.013020833,-0.38671875,1,0,0,cont_buttonBS,0,5,5,5,1
,,55b508f4fdf99b1c26c21c69,2022-09-08_10h33.43.739,CGTgamblingSpanTasks,2022.2.1,Win32,60.0240096,,,,,,,,,,,,,,,,,,,,,,,,,,,,,,,,,,,,,,,,,,,,,,,,,,,,,,,,,,,,,,,,,,,,,,,,,,,,,,,,,,"[1,7,5,2,4]",,,,,,,,,,,,,,,,,,,,,,,,,,,,,,,,,,,,,0,0,0,0,1,,,,,,,,,,,,
,,55b508f4fdf99b1c26c21c69,2022-09-08_10h33.43.739,CGTgamblingSpanTasks,2022.2.1,Win32,60.0240096,,,,,,,,,,,,,,,,,,,,,,,,,,,,,,,,,,,,,,,,,,,,,,,,,,,,,,,,,,,,,,,,,,,,,,,,,,,,,,,,,,"[1,7,5,2,4]",,,,,,,,,,,,,,,,,,,,,,,,,,,,,,,,,,,,,1,0,1,0,1,,,,,,,,,,,,
,,55b508f4fdf99b1c26c21c69,2022-09-08_10h33.43.739,CGTgamblingSpanTasks,2022.2.1,Win32,60.0240096,,,,,,,,,,,,,,,,,,,,,,,,,,,,,,,,,,,,,,,,,,,,,,,,,,,,,,,,,,,,,,,,,,,,,,,,,,,,,,,,,,"[1,7,5,2,4]",,,,,,,,,,,,,,,,,,,,,,,,,,,,,,,,,,,,,2,0,2,0,1,,,,,,,,,,,,
,,55b508f4fdf99b1c26c21c69,2022-09-08_10h33.43.739,CGTgamblingSpanTasks,2022.2.1,Win32,60.0240096,,,,,,,,,,,,,,,,,,,,,,,,,,,,,,,,,,,,,,,,,,,,,,,,,,,,,,,,,,,,,,,,,,,,,,,,,,,,,,,,,,"[1,7,5,2,4]",,,,,,,,,,,,,,,,,,,,,,,,,,,,,,,,,,,,,3,0,3,0,1,,,,,,,,,,,,
,,55b508f4fdf99b1c26c21c69,2022-09-08_10h33.43.739,CGTgamblingSpanTasks,2022.2.1,Win32,60.0240096,,,,,,,,,,,,,,,,,,,,,,,,,,,,,,,,,,,,,,,,,,,,,,,,,,,,,,,,,,,,,,,,,,,,,,,,,,,,,,,,,,"[1,7,5,2,4]",,,,,,,,,,,,,,,,,,,,,,,,,,,,,,,,,,,,,4,0,4,0,1,,,,,,,,,,,,
,,55b508f4fdf99b1c26c21c69,2022-09-08_10h33.43.739,CGTgamblingSpanTasks,2022.2.1,Win32,60.0240096,,,,,,,,,,,,,,,,,,,,,,,,,,,,,,,,,,,,,,,,,,,,,,,,,,,,,,,,,,,,,,,0,,,,,,,,,,,,,,,,,,,,,,,,,,,,,,,,,,,,,7,,,,,,,,,,,,,,,,,,,,,,,,42765,0.013020833,-0.38671875,1,0,0,cont_buttonBS,0,6,6,6,1
,,55b508f4fdf99b1c26c21c69,2022-09-08_10h33.43.739,CGTgamblingSpanTasks,2022.2.1,Win32,60.0240096,,,,,,,,,,,,,,,,,,,,,,,,,,,,,,,,,,,,,,,,,,,,,,,,,,,,,,,,,,,,,,,,,,,,,,,,,,,,,,,,,,"[8,5,9,6,4]",,,,,,,,,,,,,,,,,,,,,,,,,,,,,,,,,,,,,0,0,0,0,1,,,,,,,,,,,,
,,55b508f4fdf99b1c26c21c69,2022-09-08_10h33.43.739,CGTgamblingSpanTasks,2022.2.1,Win32,60.0240096,,,,,,,,,,,,,,,,,,,,,,,,,,,,,,,,,,,,,,,,,,,,,,,,,,,,,,,,,,,,,,,,,,,,,,,,,,,,,,,,,,"[8,5,9,6,4]",,,,,,,,,,,,,,,,,,,,,,,,,,,,,,,,,,,,,1,0,1,0,1,,,,,,,,,,,,
,,55b508f4fdf99b1c26c21c69,2022-09-08_10h33.43.739,CGTgamblingSpanTasks,2022.2.1,Win32,60.0240096,,,,,,,,,,,,,,,,,,,,,,,,,,,,,,,,,,,,,,,,,,,,,,,,,,,,,,,,,,,,,,,,,,,,,,,,,,,,,,,,,,"[8,5,9,6,4]",,,,,,,,,,,,,,,,,,,,,,,,,,,,,,,,,,,,,2,0,2,0,1,,,,,,,,,,,,
,,55b508f4fdf99b1c26c21c69,2022-09-08_10h33.43.739,CGTgamblingSpanTasks,2022.2.1,Win32,60.0240096,,,,,,,,,,,,,,,,,,,,,,,,,,,,,,,,,,,,,,,,,,,,,,,,,,,,,,,,,,,,,,,,,,,,,,,,,,,,,,,,,,"[8,5,9,6,4]",,,,,,,,,,,,,,,,,,,,,,,,,,,,,,,,,,,,,3,0,3,0,1,,,,,,,,,,,,
,,55b508f4fdf99b1c26c21c69,2022-09-08_10h33.43.739,CGTgamblingSpanTasks,2022.2.1,Win32,60.0240096,,,,,,,,,,,,,,,,,,,,,,,,,,,,,,,,,,,,,,,,,,,,,,,,,,,,,,,,,,,,,,,,,,,,,,,,,,,,,,,,,,"[8,5,9,6,4]",,,,,,,,,,,,,,,,,,,,,,,,,,,,,,,,,,,,,4,0,4,0,1,,,,,,,,,,,,
,,55b508f4fdf99b1c26c21c69,2022-09-08_10h33.43.739,CGTgamblingSpanTasks,2022.2.1,Win32,60.0240096,,,,,,,,,,,,,,,,,,,,,,,,,,,,,,,,,,,,,,,,,,,,,,,,,,,,,,,,,,,,,,,0,,,,,,,,,,,,,,,,,,,,,,,,,,,,,,,,,,,,,8,,,,,,,,,,,,,,,,,,,,,,,,49876,0.013020833,-0.38671875,1,0,0,cont_buttonBS,0,7,7,7,1
,,55b508f4fdf99b1c26c21c69,2022-09-08_10h33.43.739,CGTgamblingSpanTasks,2022.2.1,Win32,60.0240096,,,,,,,,,,,,,,,,,,,,,,,,,,,,,,,,,,,,,,,,,,,,,,,,,,,,,,,,,,,,,,,,,,,,,,,,,,,,,,,,,,"[4,5,8,7]",,,,,,,,,,,,,,,,,,,,,,,,,,,,,,,,,,,,,0,0,0,0,1,,,,,,,,,,,,
,,55b508f4fdf99b1c26c21c69,2022-09-08_10h33.43.739,CGTgamblingSpanTasks,2022.2.1,Win32,60.0240096,,,,,,,,,,,,,,,,,,,,,,,,,,,,,,,,,,,,,,,,,,,,,,,,,,,,,,,,,,,,,,,,,,,,,,,,,,,,,,,,,,"[4,5,8,7]",,,,,,,,,,,,,,,,,,,,,,,,,,,,,,,,,,,,,1,0,1,0,1,,,,,,,,,,,,
,,55b508f4fdf99b1c26c21c69,2022-09-08_10h33.43.739,CGTgamblingSpanTasks,2022.2.1,Win32,60.0240096,,,,,,,,,,,,,,,,,,,,,,,,,,,,,,,,,,,,,,,,,,,,,,,,,,,,,,,,,,,,,,,,,,,,,,,,,,,,,,,,,,"[4,5,8,7]",,,,,,,,,,,,,,,,,,,,,,,,,,,,,,,,,,,,,2,0,2,0,1,,,,,,,,,,,,
,,55b508f4fdf99b1c26c21c69,2022-09-08_10h33.43.739,CGTgamblingSpanTasks,2022.2.1,Win32,60.0240096,,,,,,,,,,,,,,,,,,,,,,,,,,,,,,,,,,,,,,,,,,,,,,,,,,,,,,,,,,,,,,,,,,,,,,,,,,,,,,,,,,"[4,5,8,7]",,,,,,,,,,,,,,,,,,,,,,,,,,,,,,,,,,,,,3,0,3,0,1,,,,,,,,,,,,
,,55b508f4fdf99b1c26c21c69,2022-09-08_10h33.43.739,CGTgamblingSpanTasks,2022.2.1,Win32,60.0240096,,,,,,,,,,,,,,,,,,,,,,,,,,,,,,,,,,,,,,,,,,,,,,,,,,,,,,,,,,,,,,,0,,,,,,,,,,,,,,,,,,,,,,,,,,,,,,,,,,,,,9,,,,,,,,,,,,,,,,,,,,,,,,78562,0.013020833,-0.38671875,1,0,0,cont_buttonBS,0,8,8,8,1
,,55b508f4fdf99b1c26c21c69,2022-09-08_10h33.43.739,CGTgamblingSpanTasks,2022.2.1,Win32,60.0240096,,,,,,,,,,,,,,,,,,,,,,,,,,,,,,,,,,,,,,,,,,,,,,,,,,,,,,,,,,,,,,,,,,,,,,,,,,,,,,,,,,"[7,3,5,9]",,,,,,,,,,,,,,,,,,,,,,,,,,,,,,,,,,,,,0,0,0,0,1,,,,,,,,,,,,
,,55b508f4fdf99b1c26c21c69,2022-09-08_10h33.43.739,CGTgamblingSpanTasks,2022.2.1,Win32,60.0240096,,,,,,,,,,,,,,,,,,,,,,,,,,,,,,,,,,,,,,,,,,,,,,,,,,,,,,,,,,,,,,,,,,,,,,,,,,,,,,,,,,"[7,3,5,9]",,,,,,,,,,,,,,,,,,,,,,,,,,,,,,,,,,,,,1,0,1,0,1,,,,,,,,,,,,
,,55b508f4fdf99b1c26c21c69,2022-09-08_10h33.43.739,CGTgamblingSpanTasks,2022.2.1,Win32,60.0240096,,,,,,,,,,,,,,,,,,,,,,,,,,,,,,,,,,,,,,,,,,,,,,,,,,,,,,,,,,,,,,,,,,,,,,,,,,,,,,,,,,"[7,3,5,9]",,,,,,,,,,,,,,,,,,,,,,,,,,,,,,,,,,,,,2,0,2,0,1,,,,,,,,,,,,
,,55b508f4fdf99b1c26c21c69,2022-09-08_10h33.43.739,CGTgamblingSpanTasks,2022.2.1,Win32,60.0240096,,,,,,,,,,,,,,,,,,,,,,,,,,,,,,,,,,,,,,,,,,,,,,,,,,,,,,,,,,,,,,,,,,,,,,,,,,,,,,,,,,"[7,3,5,9]",,,,,,,,,,,,,,,,,,,,,,,,,,,,,,,,,,,,,3,0,3,0,1,,,,,,,,,,,,
,,55b508f4fdf99b1c26c21c69,2022-09-08_10h33.43.739,CGTgamblingSpanTasks,2022.2.1,Win32,60.0240096,,,,,,,,,,,,,,,,,,,,,,,,,,,,,,,,,,,,,,,,,,,,,,,,,,,,,,,,,,,,,,,0,,,,,,,,,,,,,,,,,,,,,,,,,,,,,,,,,,,,,10,,,,,,,,,,,,,,,,,,,,,,,,9576,0.013020833,-0.38671875,1,0,0,cont_buttonBS,0,9,9,9,1
,,55b508f4fdf99b1c26c21c69,2022-09-08_10h33.43.739,CGTgamblingSpanTasks,2022.2.1,Win32,60.0240096,,,,,,,,,,,,,,,,,,,,,,,,,,,,,,,,,,,,,,,,,,,,,,,,,,,,,,,,,,,,,,,,,,,,,,,,,,,,,,,,,,"[1,6,8]",,,,,,,,,,,,,,,,,,,,,,,,,,,,,,,,,,,,,0,0,0,0,1,,,,,,,,,,,,
,,55b508f4fdf99b1c26c21c69,2022-09-08_10h33.43.739,CGTgamblingSpanTasks,2022.2.1,Win32,60.0240096,,,,,,,,,,,,,,,,,,,,,,,,,,,,,,,,,,,,,,,,,,,,,,,,,,,,,,,,,,,,,,,,,,,,,,,,,,,,,,,,,,"[1,6,8]",,,,,,,,,,,,,,,,,,,,,,,,,,,,,,,,,,,,,1,0,1,0,1,,,,,,,,,,,,
,,55b508f4fdf99b1c26c21c69,2022-09-08_10h33.43.739,CGTgamblingSpanTasks,2022.2.1,Win32,60.0240096,,,,,,,,,,,,,,,,,,,,,,,,,,,,,,,,,,,,,,,,,,,,,,,,,,,,,,,,,,,,,,,,,,,,,,,,,,,,,,,,,,"[1,6,8]",,,,,,,,,,,,,,,,,,,,,,,,,,,,,,,,,,,,,2,0,2,0,1,,,,,,,,,,,,
,,55b508f4fdf99b1c26c21c69,2022-09-08_10h33.43.739,CGTgamblingSpanTasks,2022.2.1,Win32,60.0240096,,,,,,,,,,,,,,,,,,,,,,,,,,,,,,,,,,,,,,,,,,,,,,,,,,,,,,,,,,,,,,,0,,,,,,,,,,,,,,,,,,,,,,,,,,,,,,,,,,,,,11,,,,,,,,,,,,,,,,,,,,,,,,876,0.013020833,-0.38671875,1,0,0,cont_buttonBS,0,10,10,10,1
,,55b508f4fdf99b1c26c21c69,2022-09-08_10h33.43.739,CGTgamblingSpanTasks,2022.2.1,Win32,60.0240096,,,,,,,,,,,,,,,,,,,,,,,,,,,,,,,,,,,,,,,,,,,,,,,,,,,,,,,,,,,,,,,,,,,,,,,,,,,,,,,,,,"[9,2,5]",,,,,,,,,,,,,,,,,,,,,,,,,,,,,,,,,,,,,0,0,0,0,1,,,,,,,,,,,,
,,55b508f4fdf99b1c26c21c69,2022-09-08_10h33.43.739,CGTgamblingSpanTasks,2022.2.1,Win32,60.0240096,,,,,,,,,,,,,,,,,,,,,,,,,,,,,,,,,,,,,,,,,,,,,,,,,,,,,,,,,,,,,,,,,,,,,,,,,,,,,,,,,,"[9,2,5]",,,,,,,,,,,,,,,,,,,,,,,,,,,,,,,,,,,,,1,0,1,0,1,,,,,,,,,,,,
,,55b508f4fdf99b1c26c21c69,2022-09-08_10h33.43.739,CGTgamblingSpanTasks,2022.2.1,Win32,60.0240096,,,,,,,,,,,,,,,,,,,,,,,,,,,,,,,,,,,,,,,,,,,,,,,,,,,,,,,,,,,,,,,,,,,,,,,,,,,,,,,,,,"[9,2,5]",,,,,,,,,,,,,,,,,,,,,,,,,,,,,,,,,,,,,2,0,2,0,1,,,,,,,,,,,,
,,55b508f4fdf99b1c26c21c69,2022-09-08_10h33.43.739,CGTgamblingSpanTasks,2022.2.1,Win32,60.0240096,,,,,,,,,,,,,,,,,,,,,,,,,,,,,,,,,,,,,,,,,,,,,,,,,,,,,,,,,,,,,,,1,,,,,,,,,,,,,,,,,,,,,,,,,,,,,,,,,,,,,12,,,,,,,,,,,,,,,,,,,,,,,,529,0.013020833,-0.38671875,1,0,0,cont_buttonBS,0,11,11,11,1
,,55b508f4fdf99b1c26c21c69,2022-09-08_10h33.43.739,CGTgamblingSpanTasks,2022.2.1,Win32,60.0240096,,,,,,,,,,,,,,,,,,,,,,,,,,,,,,,,,,,,,,,,,,,,,,,,,,,,,,,,,,,,,,,,,,,,,,,,,,,,,,,,,,"[5,8,1,3]",,,,,,,,,,,,,,,,,,,,,,,,,,,,,,,,,,,,,0,0,0,0,1,,,,,,,,,,,,
,,55b508f4fdf99b1c26c21c69,2022-09-08_10h33.43.739,CGTgamblingSpanTasks,2022.2.1,Win32,60.0240096,,,,,,,,,,,,,,,,,,,,,,,,,,,,,,,,,,,,,,,,,,,,,,,,,,,,,,,,,,,,,,,,,,,,,,,,,,,,,,,,,,"[5,8,1,3]",,,,,,,,,,,,,,,,,,,,,,,,,,,,,,,,,,,,,1,0,1,0,1,,,,,,,,,,,,
