initITIstatic,initITIdynamic,participant,date,expName,psychopyVersion,OS,frameRate,inst1.keys,inst1.rt,startPracResp.keys,startPracResp.rt,choice1.keys,choice1.rt,outcome,extraITI,trials.thisRepN,trials.thisTrialN,trials.thisN,trials.thisIndex,trials.ran,riskyGain,riskyLoss,alternative,isi,iti,loc,postPractResp.keys,postPractResp.rt,realloc,realChoice.keys,realChoice.rt,outcomes,choices,actualITI,init ITI,staticRDM.thisRepN,staticRDM.thisTrialN,staticRDM.thisN,staticRDM.thisIndex,staticRDM.ran,riskyoption1,riskyoption2,safeoption,ischecktrial,dynamicChoiceSetName,dynamicChoiceSetPath,bestRho,bestMu,trials_2.thisRepN,trials_2.thisTrialN,trials_2.thisN,trials_2.thisIndex,trials_2.ran,key_resp.keys,key_resp.rt,dynamicRDM.thisRepN,dynamicRDM.thisTrialN,dynamicRDM.thisN,dynamicRDM.thisIndex,dynamicRDM.ran,choiceP,easy0difficult1,stopBreak.keys,stopBreak.rt,movealong.keys,movealong.rt,startPractice.keys,startPractice.rt,textboxPractice.text,correct,mousePractice.x,mousePractice.y,mousePractice.leftButton,mousePractice.midButton,mousePractice.rightButton,mousePractice.clicked_name,trialFSPractice.thisRepN,trialFSPractice.thisTrialN,trialFSPractice.thisN,trialFSPractice.thisIndex,trialFSPractice.ran,digitSpanForward,digits,digitsReverse,digitSpanReverse,digitsReverseCorrAnswer,startFSreal.keys,startFSreal.rt,digitsForTrial,digitLoop.thisRepN,digitLoop.thisTrialN,digitLoop.thisN,digitLoop.thisIndex,digitLoop.ran,textbox.text,mouse_3.x,mouse_3.y,mouse_3.leftButton,mouse_3.midButton,mouse_3.rightButton,mouse_3.clicked_name,trialsFS.thisRepN,trialsFS.thisTrialN,trialsFS.thisN,trialsFS.thisIndex,trialsFS.ran,trialNumber,moveToBS.keys,moveToBS.rt,startBSprac.keys,startBSprac.rt,textboxPractice_2.text,mousePractice_2.x,mousePractice_2.y,mousePractice_2.leftButton,mousePractice_2.midButton,mousePractice_2.rightButton,mousePractice_2.clicked_name,trialsPracticeBS.thisRepN,trialsPracticeBS.thisTrialN,trialsPracticeBS.thisN,trialsPracticeBS.thisIndex,trialsPracticeBS.ran,startBSreal.keys,startBSreal.rt,digitLoopBS.thisRepN,digitLoopBS.thisTrialN,digitLoopBS.thisN,digitLoopBS.thisIndex,digitLoopBS.ran,textboxBS.text,mouseBS.x,mouseBS.y,mouseBS.leftButton,mouseBS.midButton,mouseBS.rightButton,mouseBS.clicked_name,trialsBS.thisRepN,trialsBS.thisTrialN,trialsBS.thisN,trialsBS.thisIndex,trialsBS.ran
"[1.5,1.5,1,1.5,1,1,1.5,1.5,1.5,1,1,1,1.5,1.5,1.5,1,1.5,1.5,1.5,1.5,1.5,1,1,1,1.5,1,1.5,1,1,1,1.5,1,1.5,1,1.5,1,1,1,1.5,1,1,1,1.5,1,1.5,1.5,1.5,1.5,1,1]","[1.5,1,1.5,1,1.5,1.5,1,1,1,1,1.5,1,1.5,1,1,1,1.5,1.5,1.5,1,1.5,1,1,1,1.5,1,1.5,1,1,1,1,1.5,1.5,1,1.5,1,1,1.5,1,1.5,1.5,1.5,1,1.5,1.5,1,1,1.5,1,1.5,1,1,1.5,1,1,1.5,1.5,1.5,1.5,1,1.5,1.5,1.5,1.5,1,1,1,1.5,1,1,1.5,1,1.5,1.5,1,1,1,1.5,1.5,1.5,1.5,1,1.5,1.5,1.5,1.5,1.5,1,1,1.5,1,1,1.5,1.5,1.5,1,1.5,1,1.5,1.5,1,1,1,1,1.5,1,1.5,1.5,1.5,1.5,1,1.5,1.5,1,1,1,1,1.5,1,1]",5ddd1dd2b48da3c63a3ccdbb,2022-09-08_14h09.58.238,CGTgamblingSpanTasks,2022.2.1,Win32,15.0060024,,,,,,,,,,,,,,,,,,,,,,,,,,,,,,,,,,,,,,,,,,,,,,,,,,,,,,,,,,,,,,,,,,,,,,,,,,,,,,,,,,,,,,,,,,,,,,,,,,,,,,,,,,,,,,,,,,,,,,,,,,,,,,,,,,,,,,,
,,5ddd1dd2b48da3c63a3ccdbb,2022-09-08_14h09.58.238,CGTgamblingSpanTasks,2022.2.1,Win32,15.0060024,return,54.249,,,,,,,,,,,,,,,,,,,,,,,,,,,,,,,,,,,,,,,,,,,,,,,,,,,,,,,,,,,,,,,,,,,,,,,,,,,,,,,,,,,,,,,,,,,,,,,,,,,,,,,,,,,,,,,,,,,,,,,,,,,,,,,,,,,,,
,,5ddd1dd2b48da3c63a3ccdbb,2022-09-08_14h09.58.238,CGTgamblingSpanTasks,2022.2.1,Win32,15.0060024,,,v,3.321,,,,,,,,,,,,,,,,,,,,,,,,,,,,,,,,,,,,,,,,,,,,,,,,,,,,,,,,,,,,,,,,,,,,,,,,,,,,,,,,,,,,,,,,,,,,,,,,,,,,,,,,,,,,,,,,,,,,,,,,,,,,,,,,,,,
,,5ddd1dd2b48da3c63a3ccdbb,2022-09-08_14h09.58.238,CGTgamblingSpanTasks,2022.2.1,Win32,15.0060024,,,,,n,1.28,9.45,2.72,0,0,0,0,1,18.23,0,9.45,2,1,1,,,,,,,,,,,,,,,,,,,,,,,,,,,,,,,,,,,,,,,,,,,,,,,,,,,,,,,,,,,,,,,,,,,,,,,,,,,,,,,,,,,,,,,,,,,,,,,,,,,,,,,,,,,,,,,,,,,,
,,5ddd1dd2b48da3c63a3ccdbb,2022-09-08_14h09.58.238,CGTgamblingSpanTasks,2022.2.1,Win32,15.0060024,,,,,v,1.037,53.27,2.963,0,1,1,1,1,53.27,0,35.16,1,1.5,1,,,,,,,,,,,,,,,,,,,,,,,,,,,,,,,,,,,,,,,,,,,,,,,,,,,,,,,,,,,,,,,,,,,,,,,,,,,,,,,,,,,,,,,,,,,,,,,,,,,,,,,,,,,,,,,,,,,,
,,5ddd1dd2b48da3c63a3ccdbb,2022-09-08_14h09.58.238,CGTgamblingSpanTasks,2022.2.1,Win32,15.0060024,,,,,n,1.03,0,2.97,0,2,2,2,1,8.27,0,1.15,1,1.5,2,,,,,,,,,,,,,,,,,,,,,,,,,,,,,,,,,,,,,,,,,,,,,,,,,,,,,,,,,,,,,,,,,,,,,,,,,,,,,,,,,,,,,,,,,,,,,,,,,,,,,,,,,,,,,,,,,,,,
,,5ddd1dd2b48da3c63a3ccdbb,2022-09-08_14h09.58.238,CGTgamblingSpanTasks,2022.2.1,Win32,15.0060024,,,,,n,1.483,40.41,2.517,0,3,3,3,1,45.88,0,40.41,3,1,1,,,,,,,,,,,,,,,,,,,,,,,,,,,,,,,,,,,,,,,,,,,,,,,,,,,,,,,,,,,,,,,,,,,,,,,,,,,,,,,,,,,,,,,,,,,,,,,,,,,,,,,,,,,,,,,,,,,,
,,5ddd1dd2b48da3c63a3ccdbb,2022-09-08_14h09.58.238,CGTgamblingSpanTasks,2022.2.1,Win32,15.0060024,,,,,n,1.396,0,2.604,0,4,4,4,1,21.56,0,11.96,1,1.5,2,,,,,,,,,,,,,,,,,,,,,,,,,,,,,,,,,,,,,,,,,,,,,,,,,,,,,,,,,,,,,,,,,,,,,,,,,,,,,,,,,,,,,,,,,,,,,,,,,,,,,,,,,,,,,,,,,,,,
,,5ddd1dd2b48da3c63a3ccdbb,2022-09-08_14h09.58.238,CGTgamblingSpanTasks,2022.2.1,Win32,15.0060024,,,,,,,,,,,,,,,,,,,,n,3.295,,,,,,,,,,,,,,,,,,,,,,,,,,,,,,,,,,,,,,,,,,,,,,,,,,,,,,,,,,,,,,,,,,,,,,,,,,,,,,,,,,,,,,,,,,,,,,,,,,,,,,,,,,,,,,,,,,
,,5ddd1dd2b48da3c63a3ccdbb,2022-09-08_14h09.58.238,CGTgamblingSpanTasks,2022.2.1,Win32,15.0060024,,,,,,,,3.049,,,,,,,,,,,,,,1,n,0.951,6.94,0,4.549,1.5,0,0,0,38,1,10.12,0,6.94,0,,,,,,,,,,,,,,,,,,,,,,,,,,,,,,,,,,,,,,,,,,,,,,,,,,,,,,,,,,,,,,,,,,,,,,,,,,,,,,,,,,,,,,,,,,,,,,,,,,
,,5ddd1dd2b48da3c63a3ccdbb,2022-09-08_14h09.58.238,CGTgamblingSpanTasks,2022.2.1,Win32,15.0060024,,,,,,,,2.665,,,,,,,,,,,,,,1,v,1.335,28.21,1,4.165,1.5,0,1,1,1,1,28.21,0,3.89,0,,,,,,,,,,,,,,,,,,,,,,,,,,,,,,,,,,,,,,,,,,,,,,,,,,,,,,,,,,,,,,,,,,,,,,,,,,,,,,,,,,,,,,,,,,,,,,,,,,
,,5ddd1dd2b48da3c63a3ccdbb,2022-09-08_14h09.58.238,CGTgamblingSpanTasks,2022.2.1,Win32,15.0060024,,,,,,,,2.681,,,,,,,,,,,,,,1,n,1.319,10.68,0,3.681,1,0,2,2,48,1,10.68,0,10.68,1,,,,,,,,,,,,,,,,,,,,,,,,,,,,,,,,,,,,,,,,,,,,,,,,,,,,,,,,,,,,,,,,,,,,,,,,,,,,,,,,,,,,,,,,,,,,,,,,,,
,,5ddd1dd2b48da3c63a3ccdbb,2022-09-08_14h09.58.238,CGTgamblingSpanTasks,2022.2.1,Win32,15.0060024,,,,,,,,3.069,,,,,,,,,,,,,,2,v,0.931,7.55,0,4.569,1.5,0,3,3,45,1,0,0,7.55,1,,,,,,,,,,,,,,,,,,,,,,,,,,,,,,,,,,,,,,,,,,,,,,,,,,,,,,,,,,,,,,,,,,,,,,,,,,,,,,,,,,,,,,,,,,,,,,,,,,
,,5ddd1dd2b48da3c63a3ccdbb,2022-09-08_14h09.58.238,CGTgamblingSpanTasks,2022.2.1,Win32,15.0060024,,,,,,,,2.834,,,,,,,,,,,,,,2,n,1.166,10.55,1,3.834,1,0,4,4,32,1,10.55,0,6.73,0,,,,,,,,,,,,,,,,,,,,,,,,,,,,,,,,,,,,,,,,,,,,,,,,,,,,,,,,,,,,,,,,,,,,,,,,,,,,,,,,,,,,,,,,,,,,,,,,,,
,,5ddd1dd2b48da3c63a3ccdbb,2022-09-08_14h09.58.238,CGTgamblingSpanTasks,2022.2.1,Win32,15.0060024,,,,,,,,2.8,,,,,,,,,,,,,,1,v,1.2,0,1,3.8,1,0,5,5,30,1,10.73,0,6.63,0,,,,,,,,,,,,,,,,,,,,,,,,,,,,,,,,,,,,,,,,,,,,,,,,,,,,,,,,,,,,,,,,,,,,,,,,,,,,,,,,,,,,,,,,,,,,,,,,,,
,,5ddd1dd2b48da3c63a3ccdbb,2022-09-08_14h09.58.238,CGTgamblingSpanTasks,2022.2.1,Win32,15.0060024,,,,,,,,2.965,,,,,,,,,,,,,,1,v,1.035,19.28,1,4.465,1.5,0,6,6,13,1,19.28,0,8.36,0,,,,,,,,,,,,,,,,,,,,,,,,,,,,,,,,,,,,,,,,,,,,,,,,,,,,,,,,,,,,,,,,,,,,,,,,,,,,,,,,,,,,,,,,,,,,,,,,,,
,,5ddd1dd2b48da3c63a3ccdbb,2022-09-08_14h09.58.238,CGTgamblingSpanTasks,2022.2.1,Win32,15.0060024,,,,,,,,2.996,,,,,,,,,,,,,,2,n,1.004,0,1,4.496,1.5,0,7,7,7,1,21.32,0,7.34,0,,,,,,,,,,,,,,,,,,,,,,,,,,,,,,,,,,,,,,,,,,,,,,,,,,,,,,,,,,,,,,,,,,,,,,,,,,,,,,,,,,,,,,,,,,,,,,,,,,
,,5ddd1dd2b48da3c63a3ccdbb,2022-09-08_14h09.58.238,CGTgamblingSpanTasks,2022.2.1,Win32,15.0060024,,,,,,,,3.019,,,,,,,,,,,,,,1,v,0.981,20.03,1,4.519,1.5,0,8,8,0,1,20.03,0,1.99,0,,,,,,,,,,,,,,,,,,,,,,,,,,,,,,,,,,,,,,,,,,,,,,,,,,,,,,,,,,,,,,,,,,,,,,,,,,,,,,,,,,,,,,,,,,,,,,,,,,
,,5ddd1dd2b48da3c63a3ccdbb,2022-09-08_14h09.58.238,CGTgamblingSpanTasks,2022.2.1,Win32,15.0060024,,,,,,,,2.721,,,,,,,,,,,,,,1,v,1.279,0,1,3.721,1,0,9,9,21,1,17.59,0,9.2,0,,,,,,,,,,,,,,,,,,,,,,,,,,,,,,,,,,,,,,,,,,,,,,,,,,,,,,,,,,,,,,,,,,,,,,,,,,,,,,,,,,,,,,,,,,,,,,,,,,
,,5ddd1dd2b48da3c63a3ccdbb,2022-09-08_14h09.58.238,CGTgamblingSpanTasks,2022.2.1,Win32,15.0060024,,,,,,,,3.035,,,,,,,,,,,,,,2,n,0.965,0,1,4.035,1,0,10,10,25,1,17,0,9.5,0,,,,,,,,,,,,,,,,,,,,,,,,,,,,,,,,,,,,,,,,,,,,,,,,,,,,,,,,,,,,,,,,,,,,,,,,,,,,,,,,,,,,,,,,,,,,,,,,,,
,,5ddd1dd2b48da3c63a3ccdbb,2022-09-08_14h09.58.238,CGTgamblingSpanTasks,2022.2.1,Win32,15.0060024,,,,,,,,2.767,,,,,,,,,,,,,,1,v,1.233,0,1,3.767,1,0,11,11,40,1,10.35,0,0,1,,,,,,,,,,,,,,,,,,,,,,,,,,,,,,,,,,,,,,,,,,,,,,,,,,,,,,,,,,,,,,,,,,,,,,,,,,,,,,,,,,,,,,,,,,,,,,,,,,
,,5ddd1dd2b48da3c63a3ccdbb,2022-09-08_14h09.58.238,CGTgamblingSpanTasks,2022.2.1,Win32,15.0060024,,,,,,,,2.932,,,,,,,,,,,,,,2,v,1.068,5.96,0,4.432,1.5,0,12,12,18,1,12.08,0,5.96,0,,,,,,,,,,,,,,,,,,,,,,,,,,,,,,,,,,,,,,,,,,,,,,,,,,,,,,,,,,,,,,,,,,,,,,,,,,,,,,,,,,,,,,,,,,,,,,,,,,
,,5ddd1dd2b48da3c63a3ccdbb,2022-09-08_14h09.58.238,CGTgamblingSpanTasks,2022.2.1,Win32,15.0060024,,,,,,,,2.709,,,,,,,,,,,,,,2,v,1.291,10.02,0,4.209,1.5,0,13,13,31,1,15.96,0,10.02,0,,,,,,,,,,,,,,,,,,,,,,,,,,,,,,,,,,,,,,,,,,,,,,,,,,,,,,,,,,,,,,,,,,,,,,,,,,,,,,,,,,,,,,,,,,,,,,,,,,
,,5ddd1dd2b48da3c63a3ccdbb,2022-09-08_14h09.58.238,CGTgamblingSpanTasks,2022.2.1,Win32,15.0060024,,,,,,,,2.887,,,,,,,,,,,,,,1,v,1.113,10.24,1,4.387,1.5,0,14,14,36,1,10.24,0,6.88,0,,,,,,,,,,,,,,,,,,,,,,,,,,,,,,,,,,,,,,,,,,,,,,,,,,,,,,,,,,,,,,,,,,,,,,,,,,,,,,,,,,,,,,,,,,,,,,,,,,
,,5ddd1dd2b48da3c63a3ccdbb,2022-09-08_14h09.58.238,CGTgamblingSpanTasks,2022.2.1,Win32,15.0060024,,,,,,,,2.943,,,,,,,,,,,,,,2,n,1.057,0,1,3.943,1,0,15,15,10,1,13.45,0,5.27,0,,,,,,,,,,,,,,,,,,,,,,,,,,,,,,,,,,,,,,,,,,,,,,,,,,,,,,,,,,,,,,,,,,,,,,,,,,,,,,,,,,,,,,,,,,,,,,,,,,
,,5ddd1dd2b48da3c63a3ccdbb,2022-09-08_14h09.58.238,CGTgamblingSpanTasks,2022.2.1,Win32,15.0060024,,,,,,,,2.89,,,,,,,,,,,,,,1,v,1.11,11.2,1,4.39,1.5,0,16,16,26,1,11.2,0,6.4,0,,,,,,,,,,,,,,,,,,,,,,,,,,,,,,,,,,,,,,,,,,,,,,,,,,,,,,,,,,,,,,,,,,,,,,,,,,,,,,,,,,,,,,,,,,,,,,,,,,
,,5ddd1dd2b48da3c63a3ccdbb,2022-09-08_14h09.58.238,CGTgamblingSpanTasks,2022.2.1,Win32,15.0060024,,,,,,,,2.955,,,,,,,,,,,,,,1,n,1.045,10.25,0,4.455,1.5,0,17,17,46,1,0,0,10.25,1,,,,,,,,,,,,,,,,,,,,,,,,,,,,,,,,,,,,,,,,,,,,,,,,,,,,,,,,,,,,,,,,,,,,,,,,,,,,,,,,,,,,,,,,,,,,,,,,,,
,,5ddd1dd2b48da3c63a3ccdbb,2022-09-08_14h09.58.238,CGTgamblingSpanTasks,2022.2.1,Win32,15.0060024,,,,,,,,2.797,,,,,,,,,,,,,,1,v,1.203,17.28,1,4.297,1.5,0,18,18,23,1,17.28,0,9.36,0,,,,,,,,,,,,,,,,,,,,,,,,,,,,,,,,,,,,,,,,,,,,,,,,,,,,,,,,,,,,,,,,,,,,,,,,,,,,,,,,,,,,,,,,,,,,,,,,,,
,,5ddd1dd2b48da3c63a3ccdbb,2022-09-08_14h09.58.238,CGTgamblingSpanTasks,2022.2.1,Win32,15.0060024,,,,,,,,2.618,,,,,,,,,,,,,,1,v,1.382,0,1,4.118,1.5,0,19,19,28,1,10.95,0,6.53,0,,,,,,,,,,,,,,,,,,,,,,,,,,,,,,,,,,,,,,,,,,,,,,,,,,,,,,,,,,,,,,,,,,,,,,,,,,,,,,,,,,,,,,,,,,,,,,,,,,
,,5ddd1dd2b48da3c63a3ccdbb,2022-09-08_14h09.58.238,CGTgamblingSpanTasks,2022.2.1,Win32,15.0060024,,,,,,,,2.617,,,,,,,,,,,,,,2,n,1.383,7.73,1,4.117,1.5,0,20,20,44,1,13.1,7.73,4.68,1,,,,,,,,,,,,,,,,,,,,,,,,,,,,,,,,,,,,,,,,,,,,,,,,,,,,,,,,,,,,,,,,,,,,,,,,,,,,,,,,,,,,,,,,,,,,,,,,,,
,,5ddd1dd2b48da3c63a3ccdbb,2022-09-08_14h09.58.238,CGTgamblingSpanTasks,2022.2.1,Win32,15.0060024,,,,,,,,2.868,,,,,,,,,,,,,,2,n,1.132,19.86,1,3.868,1,0,21,21,42,1,19.86,0,0,1,,,,,,,,,,,,,,,,,,,,,,,,,,,,,,,,,,,,,,,,,,,,,,,,,,,,,,,,,,,,,,,,,,,,,,,,,,,,,,,,,,,,,,,,,,,,,,,,,,
,,5ddd1dd2b48da3c63a3ccdbb,2022-09-08_14h09.58.238,CGTgamblingSpanTasks,2022.2.1,Win32,15.0060024,,,,,,,,2.726,,,,,,,,,,,,,,2,n,1.274,0,1,3.726,1,0,22,22,12,1,13.04,0,5.48,0,,,,,,,,,,,,,,,,,,,,,,,,,,,,,,,,,,,,,,,,,,,,,,,,,,,,,,,,,,,,,,,,,,,,,,,,,,,,,,,,,,,,,,,,,,,,,,,,,,
,,5ddd1dd2b48da3c63a3ccdbb,2022-09-08_14h09.58.238,CGTgamblingSpanTasks,2022.2.1,Win32,15.0060024,,,,,,,,2.635,,,,,,,,,,,,,,1,v,1.365,0,1,3.635,1,0,23,23,2,1,17.73,0,3.13,0,,,,,,,,,,,,,,,,,,,,,,,,,,,,,,,,,,,,,,,,,,,,,,,,,,,,,,,,,,,,,,,,,,,,,,,,,,,,,,,,,,,,,,,,,,,,,,,,,,
,,5ddd1dd2b48da3c63a3ccdbb,2022-09-08_14h09.58.238,CGTgamblingSpanTasks,2022.2.1,Win32,15.0060024,,,,,,,,2.98,,,,,,,,,,,,,,1,v,1.02,0,1,4.48,1.5,0,24,24,29,1,16.26,0,9.87,0,,,,,,,,,,,,,,,,,,,,,,,,,,,,,,,,,,,,,,,,,,,,,,,,,,,,,,,,,,,,,,,,,,,,,,,,,,,,,,,,,,,,,,,,,,,,,,,,,,
,,5ddd1dd2b48da3c63a3ccdbb,2022-09-08_14h09.58.238,CGTgamblingSpanTasks,2022.2.1,Win32,15.0060024,,,,,,,,2.732,,,,,,,,,,,,,,2,n,1.268,0,1,3.732,1,0,25,25,17,1,18.33,0,8.84,0,,,,,,,,,,,,,,,,,,,,,,,,,,,,,,,,,,,,,,,,,,,,,,,,,,,,,,,,,,,,,,,,,,,,,,,,,,,,,,,,,,,,,,,,,,,,,,,,,,
,,5ddd1dd2b48da3c63a3ccdbb,2022-09-08_14h09.58.238,CGTgamblingSpanTasks,2022.2.1,Win32,15.0060024,,,,,,,,2.972,,,,,,,,,,,,,,2,n,1.028,20.53,1,4.472,1.5,0,26,26,9,1,20.53,0,7.73,0,,,,,,,,,,,,,,,,,,,,,,,,,,,,,,,,,,,,,,,,,,,,,,,,,,,,,,,,,,,,,,,,,,,,,,,,,,,,,,,,,,,,,,,,,,,,,,,,,,
,,5ddd1dd2b48da3c63a3ccdbb,2022-09-08_14h09.58.238,CGTgamblingSpanTasks,2022.2.1,Win32,15.0060024,,,,,,,,2.962,,,,,,,,,,,,,,2,n,1.038,0,1,3.962,1,0,27,27,11,1,19.86,0,8.07,0,,,,,,,,,,,,,,,,,,,,,,,,,,,,,,,,,,,,,,,,,,,,,,,,,,,,,,,,,,,,,,,,,,,,,,,,,,,,,,,,,,,,,,,,,,,,,,,,,,
,,5ddd1dd2b48da3c63a3ccdbb,2022-09-08_14h09.58.238,CGTgamblingSpanTasks,2022.2.1,Win32,15.0060024,,,,,,,,2.876,,,,,,,,,,,,,,1,n,1.124,9.92,0,3.876,1,0,28,28,49,1,6.79,0,9.92,1,,,,,,,,,,,,,,,,,,,,,,,,,,,,,,,,,,,,,,,,,,,,,,,,,,,,,,,,,,,,,,,,,,,,,,,,,,,,,,,,,,,,,,,,,,,,,,,,,,
,,5ddd1dd2b48da3c63a3ccdbb,2022-09-08_14h09.58.238,CGTgamblingSpanTasks,2022.2.1,Win32,15.0060024,,,,,,,,2.702,,,,,,,,,,,,,,2,n,1.298,18.77,1,3.702,1,0,29,29,15,1,18.77,0,8.61,0,,,,,,,,,,,,,,,,,,,,,,,,,,,,,,,,,,,,,,,,,,,,,,,,,,,,,,,,,,,,,,,,,,,,,,,,,,,,,,,,,,,,,,,,,,,,,,,,,,
,,5ddd1dd2b48da3c63a3ccdbb,2022-09-08_14h09.58.238,CGTgamblingSpanTasks,2022.2.1,Win32,15.0060024,,,,,,,,2.698,,,,,,,,,,,,,,1,v,1.302,0,1,4.198,1.5,0,30,30,37,1,15.27,0,10.37,0,,,,,,,,,,,,,,,,,,,,,,,,,,,,,,,,,,,,,,,,,,,,,,,,,,,,,,,,,,,,,,,,,,,,,,,,,,,,,,,,,,,,,,,,,,,,,,,,,,
,,5ddd1dd2b48da3c63a3ccdbb,2022-09-08_14h09.58.238,CGTgamblingSpanTasks,2022.2.1,Win32,15.0060024,,,,,,,,2.662,,,,,,,,,,,,,,1,v,1.338,13.94,1,3.662,1,0,31,31,8,1,13.94,0,5.03,0,,,,,,,,,,,,,,,,,,,,,,,,,,,,,,,,,,,,,,,,,,,,,,,,,,,,,,,,,,,,,,,,,,,,,,,,,,,,,,,,,,,,,,,,,,,,,,,,,,
,,5ddd1dd2b48da3c63a3ccdbb,2022-09-08_14h09.58.238,CGTgamblingSpanTasks,2022.2.1,Win32,15.0060024,,,,,,,,2.601,,,,,,,,,,,,,,1,v,1.399,0,1,4.101,1.5,0,32,32,5,1,22.97,0,6.51,0,,,,,,,,,,,,,,,,,,,,,,,,,,,,,,,,,,,,,,,,,,,,,,,,,,,,,,,,,,,,,,,,,,,,,,,,,,,,,,,,,,,,,,,,,,,,,,,,,,
,,5ddd1dd2b48da3c63a3ccdbb,2022-09-08_14h09.58.238,CGTgamblingSpanTasks,2022.2.1,Win32,15.0060024,,,,,,,,2.898,,,,,,,,,,,,,,2,n,1.102,16.11,1,3.898,1,0,33,33,43,1,16.11,6.99,6.99,1,,,,,,,,,,,,,,,,,,,,,,,,,,,,,,,,,,,,,,,,,,,,,,,,,,,,,,,,,,,,,,,,,,,,,,,,,,,,,,,,,,,,,,,,,,,,,,,,,,
,,5ddd1dd2b48da3c63a3ccdbb,2022-09-08_14h09.58.238,CGTgamblingSpanTasks,2022.2.1,Win32,15.0060024,,,,,,,,2.796,,,,,,,,,,,,,,2,n,1.204,0,1,4.296,1.5,0,34,34,16,1,12.36,0,5.82,0,,,,,,,,,,,,,,,,,,,,,,,,,,,,,,,,,,,,,,,,,,,,,,,,,,,,,,,,,,,,,,,,,,,,,,,,,,,,,,,,,,,,,,,,,,,,,,,,,,
,,5ddd1dd2b48da3c63a3ccdbb,2022-09-08_14h09.58.238,CGTgamblingSpanTasks,2022.2.1,Win32,15.0060024,,,,,,,,2.857,,,,,,,,,,,,,,2,n,1.143,0,1,3.857,1,0,35,35,3,1,25.2,0,5.4,0,,,,,,,,,,,,,,,,,,,,,,,,,,,,,,,,,,,,,,,,,,,,,,,,,,,,,,,,,,,,,,,,,,,,,,,,,,,,,,,,,,,,,,,,,,,,,,,,,,
,,5ddd1dd2b48da3c63a3ccdbb,2022-09-08_14h09.58.238,CGTgamblingSpanTasks,2022.2.1,Win32,15.0060024,,,,,,,,2.548,,,,,,,,,,,,,,2,n,1.452,0,1,3.548,1,0,36,36,34,1,10.39,0,6.81,0,,,,,,,,,,,,,,,,,,,,,,,,,,,,,,,,,,,,,,,,,,,,,,,,,,,,,,,,,,,,,,,,,,,,,,,,,,,,,,,,,,,,,,,,,,,,,,,,,,
,,5ddd1dd2b48da3c63a3ccdbb,2022-09-08_14h09.58.238,CGTgamblingSpanTasks,2022.2.1,Win32,15.0060024,,,,,,,,2.631,,,,,,,,,,,,,,2,v,1.369,10.27,0,3.631,1,0,37,37,35,1,15.47,0,10.27,0,,,,,,,,,,,,,,,,,,,,,,,,,,,,,,,,,,,,,,,,,,,,,,,,,,,,,,,,,,,,,,,,,,,,,,,,,,,,,,,,,,,,,,,,,,,,,,,,,,
,,5ddd1dd2b48da3c63a3ccdbb,2022-09-08_14h09.58.238,CGTgamblingSpanTasks,2022.2.1,Win32,15.0060024,,,,,,,,2.783,,,,,,,,,,,,,,2,n,1.217,0,1,4.283,1.5,0,38,38,14,1,12.68,0,5.66,0,,,,,,,,,,,,,,,,,,,,,,,,,,,,,,,,,,,,,,,,,,,,,,,,,,,,,,,,,,,,,,,,,,,,,,,,,,,,,,,,,,,,,,,,,,,,,,,,,,
,,5ddd1dd2b48da3c63a3ccdbb,2022-09-08_14h09.58.238,CGTgamblingSpanTasks,2022.2.1,Win32,15.0060024,,,,,,,,2.659,,,,,,,,,,,,,,2,n,1.341,15.7,1,3.659,1,0,39,39,33,1,15.7,0,10.15,0,,,,,,,,,,,,,,,,,,,,,,,,,,,,,,,,,,,,,,,,,,,,,,,,,,,,,,,,,,,,,,,,,,,,,,,,,,,,,,,,,,,,,,,,,,,,,,,,,,
,,5ddd1dd2b48da3c63a3ccdbb,2022-09-08_14h09.58.238,CGTgamblingSpanTasks,2022.2.1,Win32,15.0060024,,,,,,,,2.634,,,,,,,,,,,,,,1,v,1.366,0,1,3.634,1,0,40,40,22,1,11.62,0,6.19,0,,,,,,,,,,,,,,,,,,,,,,,,,,,,,,,,,,,,,,,,,,,,,,,,,,,,,,,,,,,,,,,,,,,,,,,,,,,,,,,,,,,,,,,,,,,,,,,,,,
,,5ddd1dd2b48da3c63a3ccdbb,2022-09-08_14h09.58.238,CGTgamblingSpanTasks,2022.2.1,Win32,15.0060024,,,,,,,,2.73,,,,,,,,,,,,,,1,v,1.27,0,1,3.73,1,0,41,41,20,1,11.84,0,6.08,0,,,,,,,,,,,,,,,,,,,,,,,,,,,,,,,,,,,,,,,,,,,,,,,,,,,,,,,,,,,,,,,,,,,,,,,,,,,,,,,,,,,,,,,,,,,,,,,,,,
,,5ddd1dd2b48da3c63a3ccdbb,2022-09-08_14h09.58.238,CGTgamblingSpanTasks,2022.2.1,Win32,15.0060024,,,,,,,,3.142,,,,,,,,,,,,,,2,n,0.858,0,1,4.642,1.5,0,42,42,4,1,16,0,4,0,,,,,,,,,,,,,,,,,,,,,,,,,,,,,,,,,,,,,,,,,,,,,,,,,,,,,,,,,,,,,,,,,,,,,,,,,,,,,,,,,,,,,,,,,,,,,,,,,,
,,5ddd1dd2b48da3c63a3ccdbb,2022-09-08_14h09.58.238,CGTgamblingSpanTasks,2022.2.1,Win32,15.0060024,,,,,,,,2.01,,,,,,,,,,,,,,2,n,1.99,11.43,1,3.01,1,0,43,43,24,1,11.43,0,6.29,0,,,,,,,,,,,,,,,,,,,,,,,,,,,,,,,,,,,,,,,,,,,,,,,,,,,,,,,,,,,,,,,,,,,,,,,,,,,,,,,,,,,,,,,,,,,,,,,,,,
,,5ddd1dd2b48da3c63a3ccdbb,2022-09-08_14h09.58.238,CGTgamblingSpanTasks,2022.2.1,Win32,15.0060024,,,,,,,,2.7,,,,,,,,,,,,,,2,n,1.3,17.94,1,4.2,1.5,0,44,44,19,1,17.94,0,9.03,0,,,,,,,,,,,,,,,,,,,,,,,,,,,,,,,,,,,,,,,,,,,,,,,,,,,,,,,,,,,,,,,,,,,,,,,,,,,,,,,,,,,,,,,,,,,,,,,,,,
,,5ddd1dd2b48da3c63a3ccdbb,2022-09-08_14h09.58.238,CGTgamblingSpanTasks,2022.2.1,Win32,15.0060024,,,,,,,,2.683,,,,,,,,,,,,,,1,n,1.317,3.13,0,4.183,1.5,0,45,45,47,1,0,0,3.13,1,,,,,,,,,,,,,,,,,,,,,,,,,,,,,,,,,,,,,,,,,,,,,,,,,,,,,,,,,,,,,,,,,,,,,,,,,,,,,,,,,,,,,,,,,,,,,,,,,,
,,5ddd1dd2b48da3c63a3ccdbb,2022-09-08_14h09.58.238,CGTgamblingSpanTasks,2022.2.1,Win32,15.0060024,,,,,,,,2.745,,,,,,,,,,,,,,1,n,1.255,9.7,0,4.245,1.5,0,46,46,27,1,16.6,0,9.7,0,,,,,,,,,,,,,,,,,,,,,,,,,,,,,,,,,,,,,,,,,,,,,,,,,,,,,,,,,,,,,,,,,,,,,,,,,,,,,,,,,,,,,,,,,,,,,,,,,,
,,5ddd1dd2b48da3c63a3ccdbb,2022-09-08_14h09.58.238,CGTgamblingSpanTasks,2022.2.1,Win32,15.0060024,,,,,,,,2.882,,,,,,,,,,,,,,2,n,1.118,0,1,4.382,1.5,0,47,47,41,1,14.26,0,0,1,,,,,,,,,,,,,,,,,,,,,,,,,,,,,,,,,,,,,,,,,,,,,,,,,,,,,,,,,,,,,,,,,,,,,,,,,,,,,,,,,,,,,,,,,,,,,,,,,,
,,5ddd1dd2b48da3c63a3ccdbb,2022-09-08_14h09.58.238,CGTgamblingSpanTasks,2022.2.1,Win32,15.0060024,,,,,,,,2.845,,,,,,,,,,,,,,2,n,1.155,14.72,1,3.845,1,0,48,48,6,1,14.72,0,4.64,0,,,,,,,,,,,,,,,,,,,,,,,,,,,,,,,,,,,,,,,,,,,,,,,,,,,,,,,,,,,,,,,,,,,,,,,,,,,,,,,,,,,,,,,,,,,,,,,,,,
,,5ddd1dd2b48da3c63a3ccdbb,2022-09-08_14h09.58.238,CGTgamblingSpanTasks,2022.2.1,Win32,15.0060024,,,,,,,,2.681,,,,,,,,,,,,,,2,n,1.319,0,1,3.681,1,0,49,49,39,1,15.09,0,10.46,0,,,,,,,,,,,,,,,,,,,,,,,,,,,,,,,,,,,,,,,,,,,,,,,,,,,,,,,,,,,,,,,,,,,,,,,,,,,,,,,,,,,,,,,,,,,,,,,,,,
,,5ddd1dd2b48da3c63a3ccdbb,2022-09-08_14h09.58.238,CGTgamblingSpanTasks,2022.2.1,Win32,15.0060024,,,,,,,,,,,,,,,,,,,,,,,,,,,,,,,,,,,,,,bespoke_choiceset_rhoInd158_muInd095.csv,bespoke_choicesets/bespoke_choiceset_rhoInd158_muInd095.csv,158,95,0,0,0,0,1,,,,,,,,,,,,,,,,,,,,,,,,,,,,,,,,,,,,,,,,,,,,,,,,,,,,,,,,,,,,,,,,,,,,,,,,,,,,,,,,,,,,,,,,,
,,5ddd1dd2b48da3c63a3ccdbb,2022-09-08_14h09.58.238,CGTgamblingSpanTasks,2022.2.1,Win32,15.0060024,,,,,,,,,,,,,,,,,,,,,,,,,,,,,,,,,,,,,,,,,,,,,,,,,,,,,,,,,,,,,,,,,,,,,,,,,,,,,,,,,,,,,,,,,,,,,,,,,,,,,,,,,,,,,,,,,,,,,,,,,,,,,,,,,,,,,,,
,,5ddd1dd2b48da3c63a3ccdbb,2022-09-08_14h09.58.238,CGTgamblingSpanTasks,2022.2.1,Win32,15.0060024,,,,,,,,,,,,,,,,,,,,,,,,,,,,,,,,,,,,,,,,,,,,,,,n,85.583,,,,,,,,,,,,,,,,,,,,,,,,,,,,,,,,,,,,,,,,,,,,,,,,,,,,,,,,,,,,,,,,,,,,,,,,,,,,,,,,,,,,,,,
,,5ddd1dd2b48da3c63a3ccdbb,2022-09-08_14h09.58.238,CGTgamblingSpanTasks,2022.2.1,Win32,15.0060024,,,,,,,,2.706,,,,,,,,,,,,,,2,n,1.294,0,1,4.206,1.5,,,,,,27.7711693,0,2.320849632,,,,,,,,,,,,,0,0,0,94,1,0.543786368,1,,,,,,,,,,,,,,,,,,,,,,,,,,,,,,,,,,,,,,,,,,,,,,,,,,,,,,,,,,,,,,,,,,,,,,,,,,,,,,,,
,,5ddd1dd2b48da3c63a3ccdbb,2022-09-08_14h09.58.238,CGTgamblingSpanTasks,2022.2.1,Win32,15.0060024,,,,,,,,2.967,,,,,,,,,,,,,,1,v,1.033,0,1,3.967,1,,,,,,19.30622782,0,10.31611309,,,,,,,,,,,,,0,1,1,1,1,0.091105656,0,,,,,,,,,,,,,,,,,,,,,,,,,,,,,,,,,,,,,,,,,,,,,,,,,,,,,,,,,,,,,,,,,,,,,,,,,,,,,,,,
,,5ddd1dd2b48da3c63a3ccdbb,2022-09-08_14h09.58.238,CGTgamblingSpanTasks,2022.2.1,Win32,15.0060024,,,,,,,,2.96,,,,,,,,,,,,,,1,v,1.04,0,1,4.46,1.5,,,,,,29.75778644,0,2.810531415,,,,,,,,,,,,,0,2,2,113,1,0.512824233,1,,,,,,,,,,,,,,,,,,,,,,,,,,,,,,,,,,,,,,,,,,,,,,,,,,,,,,,,,,,,,,,,,,,,,,,,,,,,,,,,
,,5ddd1dd2b48da3c63a3ccdbb,2022-09-08_14h09.58.238,CGTgamblingSpanTasks,2022.2.1,Win32,15.0060024,,,,,,,,3.117,,,,,,,,,,,,,,2,n,0.883,13.96521039,1,4.117,1,,,,,,13.96521039,0,1.591282699,,,,,,,,,,,,,0,3,3,49,1,0.462956344,1,,,,,,,,,,,,,,,,,,,,,,,,,,,,,,,,,,,,,,,,,,,,,,,,,,,,,,,,,,,,,,,,,,,,,,,,,,,,,,,,
,,5ddd1dd2b48da3c63a3ccdbb,2022-09-08_14h09.58.238,CGTgamblingSpanTasks,2022.2.1,Win32,15.0060024,,,,,,,,2.896,,,,,,,,,,,,,,2,n,1.104,0,1,4.396,1.5,,,,,,25.26994993,0,2.78925142,,,,,,,,,,,,,0,4,4,108,1,0.471582922,1,,,,,,,,,,,,,,,,,,,,,,,,,,,,,,,,,,,,,,,,,,,,,,,,,,,,,,,,,,,,,,,,,,,,,,,,,,,,,,,,
,,5ddd1dd2b48da3c63a3ccdbb,2022-09-08_14h09.58.238,CGTgamblingSpanTasks,2022.2.1,Win32,15.0060024,,,,,,,,2.913,,,,,,,,,,,,,,2,n,1.087,21.03408097,1,4.413,1.5,,,,,,21.03408097,0,2.208275162,,,,,,,,,,,,,0,5,5,0,1,0.485031246,1,,,,,,,,,,,,,,,,,,,,,,,,,,,,,,,,,,,,,,,,,,,,,,,,,,,,,,,,,,,,,,,,,,,,,,,,,,,,,,,,
,,5ddd1dd2b48da3c63a3ccdbb,2022-09-08_14h09.58.238,CGTgamblingSpanTasks,2022.2.1,Win32,15.0060024,,,,,,,,1.861,,,,,,,,,,,,,,1,v,2.139,17.4320197,1,2.861,1,,,,,,17.4320197,0,1.448620949,,,,,,,,,,,,,0,6,6,30,1,0.545178213,1,,,,,,,,,,,,,,,,,,,,,,,,,,,,,,,,,,,,,,,,,,,,,,,,,,,,,,,,,,,,,,,,,,,,,,,,,,,,,,,,
,,5ddd1dd2b48da3c63a3ccdbb,2022-09-08_14h09.58.238,CGTgamblingSpanTasks,2022.2.1,Win32,15.0060024,,,,,,,,2.619,,,,,,,,,,,,,,1,v,1.381,18.20422443,1,3.619,1,,,,,,18.20422443,0,1.635040165,,,,,,,,,,,,,0,7,7,82,1,0.525708991,1,,,,,,,,,,,,,,,,,,,,,,,,,,,,,,,,,,,,,,,,,,,,,,,,,,,,,,,,,,,,,,,,,,,,,,,,,,,,,,,,
,,5ddd1dd2b48da3c63a3ccdbb,2022-09-08_14h09.58.238,CGTgamblingSpanTasks,2022.2.1,Win32,15.0060024,,,,,,,,2.702,,,,,,,,,,,,,,2,v,1.298,7.850775577,0,3.702,1,,,,,,4.622707531,0,7.850775577,,,,,,,,,,,,,0,8,8,6,1,0.017737407,0,,,,,,,,,,,,,,,,,,,,,,,,,,,,,,,,,,,,,,,,,,,,,,,,,,,,,,,,,,,,,,,,,,,,,,,,,,,,,,,,
,,5ddd1dd2b48da3c63a3ccdbb,2022-09-08_14h09.58.238,CGTgamblingSpanTasks,2022.2.1,Win32,15.0060024,,,,,,,,2.69,,,,,,,,,,,,,,1,v,1.31,22.72923833,1,3.69,1,,,,,,22.72923833,0,0.067170781,,,,,,,,,,,,,0,9,9,86,1,0.907226703,0,,,,,,,,,,,,,,,,,,,,,,,,,,,,,,,,,,,,,,,,,,,,,,,,,,,,,,,,,,,,,,,,,,,,,,,,,,,,,,,,
,,5ddd1dd2b48da3c63a3ccdbb,2022-09-08_14h09.58.238,CGTgamblingSpanTasks,2022.2.1,Win32,15.0060024,,,,,,,,2.767,,,,,,,,,,,,,,2,v,1.233,8.579385201,0,4.267,1.5,,,,,,14.11762686,0,8.579385201,,,,,,,,,,,,,0,10,10,60,1,0.073886959,0,,,,,,,,,,,,,,,,,,,,,,,,,,,,,,,,,,,,,,,,,,,,,,,,,,,,,,,,,,,,,,,,,,,,,,,,,,,,,,,,
,,5ddd1dd2b48da3c63a3ccdbb,2022-09-08_14h09.58.238,CGTgamblingSpanTasks,2022.2.1,Win32,15.0060024,,,,,,,,2.79,,,,,,,,,,,,,,2,n,1.21,27.38828234,1,3.79,1,,,,,,27.38828234,0,0.0639233,,,,,,,,,,,,,0,11,11,43,1,0.914010176,0,,,,,,,,,,,,,,,,,,,,,,,,,,,,,,,,,,,,,,,,,,,,,,,,,,,,,,,,,,,,,,,,,,,,,,,,,,,,,,,,
,,5ddd1dd2b48da3c63a3ccdbb,2022-09-08_14h09.58.238,CGTgamblingSpanTasks,2022.2.1,Win32,15.0060024,,,,,,,,2.933,,,,,,,,,,,,,,2,n,1.067,0,1,4.433,1.5,,,,,,26.11188619,0,0.081942421,,,,,,,,,,,,,0,12,12,105,1,0.905343856,0,,,,,,,,,,,,,,,,,,,,,,,,,,,,,,,,,,,,,,,,,,,,,,,,,,,,,,,,,,,,,,,,,,,,,,,,,,,,,,,,
,,5ddd1dd2b48da3c63a3ccdbb,2022-09-08_14h09.58.238,CGTgamblingSpanTasks,2022.2.1,Win32,15.0060024,,,,,,,,2.704,,,,,,,,,,,,,,2,v,1.296,3.877530383,0,3.704,1,,,,,,3.471484939,0,3.877530383,,,,,,,,,,,,,0,13,13,40,1,0.02623078,0,,,,,,,,,,,,,,,,,,,,,,,,,,,,,,,,,,,,,,,,,,,,,,,,,,,,,,,,,,,,,,,,,,,,,,,,,,,,,,,,
,,5ddd1dd2b48da3c63a3ccdbb,2022-09-08_14h09.58.238,CGTgamblingSpanTasks,2022.2.1,Win32,15.0060024,,,,,,,,2.687,,,,,,,,,,,,,,1,n,1.313,11.41737518,0,3.687,1,,,,,,18.11029021,0,11.41737518,,,,,,,,,,,,,0,14,14,48,1,0.069445859,0,,,,,,,,,,,,,,,,,,,,,,,,,,,,,,,,,,,,,,,,,,,,,,,,,,,,,,,,,,,,,,,,,,,,,,,,,,,,,,,,
,,5ddd1dd2b48da3c63a3ccdbb,2022-09-08_14h09.58.238,CGTgamblingSpanTasks,2022.2.1,Win32,15.0060024,,,,,,,,2.941,,,,,,,,,,,,,,2,n,1.059,0,1,3.941,1,,,,,,19.36415485,0,1.966229494,,,,,,,,,,,,,0,15,15,96,1,0.493893111,1,,,,,,,,,,,,,,,,,,,,,,,,,,,,,,,,,,,,,,,,,,,,,,,,,,,,,,,,,,,,,,,,,,,,,,,,,,,,,,,,
,,5ddd1dd2b48da3c63a3ccdbb,2022-09-08_14h09.58.238,CGTgamblingSpanTasks,2022.2.1,Win32,15.0060024,,,,,,,,2.978,,,,,,,,,,,,,,1,v,1.022,18.16238569,1,4.478,1.5,,,,,,18.16238569,0,1.540604093,,,,,,,,,,,,,0,16,16,34,1,0.540092491,1,,,,,,,,,,,,,,,,,,,,,,,,,,,,,,,,,,,,,,,,,,,,,,,,,,,,,,,,,,,,,,,,,,,,,,,,,,,,,,,,
,,5ddd1dd2b48da3c63a3ccdbb,2022-09-08_14h09.58.238,CGTgamblingSpanTasks,2022.2.1,Win32,15.0060024,,,,,,,,3.001,,,,,,,,,,,,,,1,v,0.999,0,1,4.501,1.5,,,,,,6.662965216,0,6.091504705,,,,,,,,,,,,,0,17,17,102,1,0.035087099,0,,,,,,,,,,,,,,,,,,,,,,,,,,,,,,,,,,,,,,,,,,,,,,,,,,,,,,,,,,,,,,,,,,,,,,,,,,,,,,,,
,,5ddd1dd2b48da3c63a3ccdbb,2022-09-08_14h09.58.238,CGTgamblingSpanTasks,2022.2.1,Win32,15.0060024,,,,,,,,2.838,,,,,,,,,,,,,,1,v,1.162,0,1,4.338,1.5,,,,,,17.23907308,0,2.055848574,,,,,,,,,,,,,0,18,18,66,1,0.450504458,1,,,,,,,,,,,,,,,,,,,,,,,,,,,,,,,,,,,,,,,,,,,,,,,,,,,,,,,,,,,,,,,,,,,,,,,,,,,,,,,,
,,5ddd1dd2b48da3c63a3ccdbb,2022-09-08_14h09.58.238,CGTgamblingSpanTasks,2022.2.1,Win32,15.0060024,,,,,,,,2.896,,,,,,,,,,,,,,2,v,1.104,4.904872644,0,3.896,1,,,,,,4.698775357,0,4.904872644,,,,,,,,,,,,,0,19,19,75,1,0.028064484,0,,,,,,,,,,,,,,,,,,,,,,,,,,,,,,,,,,,,,,,,,,,,,,,,,,,,,,,,,,,,,,,,,,,,,,,,,,,,,,,,
,,5ddd1dd2b48da3c63a3ccdbb,2022-09-08_14h09.58.238,CGTgamblingSpanTasks,2022.2.1,Win32,15.0060024,,,,,,,,2.724,,,,,,,,,,,,,,1,v,1.276,17.30137174,1,4.224,1.5,,,,,,17.30137174,0,1.716380842,,,,,,,,,,,,,0,20,20,20,1,0.500020285,1,,,,,,,,,,,,,,,,,,,,,,,,,,,,,,,,,,,,,,,,,,,,,,,,,,,,,,,,,,,,,,,,,,,,,,,,,,,,,,,,
,,5ddd1dd2b48da3c63a3ccdbb,2022-09-08_14h09.58.238,CGTgamblingSpanTasks,2022.2.1,Win32,15.0060024,,,,,,,,2.951,,,,,,,,,,,,,,1,v,1.049,0,1,3.951,1,,,,,,27.88092897,0,2.771762788,,,,,,,,,,,,,0,21,21,117,1,0.499466648,1,,,,,,,,,,,,,,,,,,,,,,,,,,,,,,,,,,,,,,,,,,,,,,,,,,,,,,,,,,,,,,,,,,,,,,,,,,,,,,,,
,,5ddd1dd2b48da3c63a3ccdbb,2022-09-08_14h09.58.238,CGTgamblingSpanTasks,2022.2.1,Win32,15.0060024,,,,,,,,2.706,,,,,,,,,,,,,,2,n,1.294,0,1,3.706,1,,,,,,24.66627941,0,2.765426402,,,,,,,,,,,,,0,22,22,24,1,0.467360588,1,,,,,,,,,,,,,,,,,,,,,,,,,,,,,,,,,,,,,,,,,,,,,,,,,,,,,,,,,,,,,,,,,,,,,,,,,,,,,,,,
,,5ddd1dd2b48da3c63a3ccdbb,2022-09-08_14h09.58.238,CGTgamblingSpanTasks,2022.2.1,Win32,15.0060024,,,,,,,,2.654,,,,,,,,,,,,,,1,v,1.346,0,1,3.654,1,,,,,,23.0613391,0,2.387726776,,,,,,,,,,,,,0,23,23,69,1,0.488727763,1,,,,,,,,,,,,,,,,,,,,,,,,,,,,,,,,,,,,,,,,,,,,,,,,,,,,,,,,,,,,,,,,,,,,,,,,,,,,,,,,
,,5ddd1dd2b48da3c63a3ccdbb,2022-09-08_14h09.58.238,CGTgamblingSpanTasks,2022.2.1,Win32,15.0060024,,,,,,,,2.688,,,,,,,,,,,,,,2,n,1.312,0,1,4.188,1.5,,,,,,27.37527992,0,2.860319095,,,,,,,,,,,,,0,24,24,39,1,0.486304156,1,,,,,,,,,,,,,,,,,,,,,,,,,,,,,,,,,,,,,,,,,,,,,,,,,,,,,,,,,,,,,,,,,,,,,,,,,,,,,,,,
,,5ddd1dd2b48da3c63a3ccdbb,2022-09-08_14h09.58.238,CGTgamblingSpanTasks,2022.2.1,Win32,15.0060024,,,,,,,,2.968,,,,,,,,,,,,,,1,v,1.032,22.86604061,1,3.968,1,,,,,,22.86604061,0,2.293289792,,,,,,,,,,,,,0,25,25,51,1,0.49715382,1,,,,,,,,,,,,,,,,,,,,,,,,,,,,,,,,,,,,,,,,,,,,,,,,,,,,,,,,,,,,,,,,,,,,,,,,,,,,,,,,
,,5ddd1dd2b48da3c63a3ccdbb,2022-09-08_14h09.58.238,CGTgamblingSpanTasks,2022.2.1,Win32,15.0060024,,,,,,,,2.734,,,,,,,,,,,,,,1,v,1.266,0,1,4.234,1.5,,,,,,27.93093084,0,0.050207531,,,,,,,,,,,,,0,26,26,83,1,0.920505936,0,,,,,,,,,,,,,,,,,,,,,,,,,,,,,,,,,,,,,,,,,,,,,,,,,,,,,,,,,,,,,,,,,,,,,,,,,,,,,,,,
,,5ddd1dd2b48da3c63a3ccdbb,2022-09-08_14h09.58.238,CGTgamblingSpanTasks,2022.2.1,Win32,15.0060024,,,,,,,,2.944,,,,,,,,,,,,,,2,n,1.056,21.00799273,1,3.944,1,,,,,,21.00799273,0,0.067969053,,,,,,,,,,,,,0,27,27,92,1,0.904360262,0,,,,,,,,,,,,,,,,,,,,,,,,,,,,,,,,,,,,,,,,,,,,,,,,,,,,,,,,,,,,,,,,,,,,,,,,,,,,,,,,
,,5ddd1dd2b48da3c63a3ccdbb,2022-09-08_14h09.58.238,CGTgamblingSpanTasks,2022.2.1,Win32,15.0060024,,,,,,,,2.974,,,,,,,,,,,,,,1,v,1.026,0,1,3.974,1,,,,,,21.46599803,0,0.059789256,,,,,,,,,,,,,0,28,28,8,1,0.909019081,0,,,,,,,,,,,,,,,,,,,,,,,,,,,,,,,,,,,,,,,,,,,,,,,,,,,,,,,,,,,,,,,,,,,,,,,,,,,,,,,,
,,5ddd1dd2b48da3c63a3ccdbb,2022-09-08_14h09.58.238,CGTgamblingSpanTasks,2022.2.1,Win32,15.0060024,,,,,,,,2.878,,,,,,,,,,,,,,1,n,1.122,7.646213173,0,3.878,1,,,,,,2.042350179,0,7.646213173,,,,,,,,,,,,,0,29,29,53,1,0.009522273,0,,,,,,,,,,,,,,,,,,,,,,,,,,,,,,,,,,,,,,,,,,,,,,,,,,,,,,,,,,,,,,,,,,,,,,,,,,,,,,,,
,,5ddd1dd2b48da3c63a3ccdbb,2022-09-08_14h09.58.238,CGTgamblingSpanTasks,2022.2.1,Win32,15.0060024,,,,,,,,3.07,,,,,,,,,,,,,,1,v,0.93,0,1,4.07,1,,,,,,27.2532142,0,0.08089327,,,,,,,,,,,,,0,30,30,119,1,0.907091845,0,,,,,,,,,,,,,,,,,,,,,,,,,,,,,,,,,,,,,,,,,,,,,,,,,,,,,,,,,,,,,,,,,,,,,,,,,,,,,,,,
,,5ddd1dd2b48da3c63a3ccdbb,2022-09-08_14h09.58.238,CGTgamblingSpanTasks,2022.2.1,Win32,15.0060024,,,,,,,,2.97,,,,,,,,,,,,,,2,n,1.03,13.4287264,1,4.47,1.5,,,,,,13.4287264,0,1.317368801,,,,,,,,,,,,,0,31,31,100,1,0.502953125,1,,,,,,,,,,,,,,,,,,,,,,,,,,,,,,,,,,,,,,,,,,,,,,,,,,,,,,,,,,,,,,,,,,,,,,,,,,,,,,,,
,,5ddd1dd2b48da3c63a3ccdbb,2022-09-08_14h09.58.238,CGTgamblingSpanTasks,2022.2.1,Win32,15.0060024,,,,,,,,2.808,,,,,,,,,,,,,,1,v,1.192,0,1,4.308,1.5,,,,,,9.012590634,0,1.002188111,,,,,,,,,,,,,0,32,32,12,1,0.46958041,1,,,,,,,,,,,,,,,,,,,,,,,,,,,,,,,,,,,,,,,,,,,,,,,,,,,,,,,,,,,,,,,,,,,,,,,,,,,,,,,,
,,5ddd1dd2b48da3c63a3ccdbb,2022-09-08_14h09.58.238,CGTgamblingSpanTasks,2022.2.1,Win32,15.0060024,,,,,,,,2.935,,,,,,,,,,,,,,2,n,1.065,0,1,3.935,1,,,,,,11.16819157,0,0.941456753,,,,,,,,,,,,,0,33,33,45,1,0.54163803,1,,,,,,,,,,,,,,,,,,,,,,,,,,,,,,,,,,,,,,,,,,,,,,,,,,,,,,,,,,,,,,,,,,,,,,,,,,,,,,,,
,,5ddd1dd2b48da3c63a3ccdbb,2022-09-08_14h09.58.238,CGTgamblingSpanTasks,2022.2.1,Win32,15.0060024,,,,,,,,3.13,,,,,,,,,,,,,,1,v,0.87,21.48443242,1,4.63,1.5,,,,,,21.48443242,0,2.229247341,,,,,,,,,,,,,0,34,34,63,1,0.488155912,1,,,,,,,,,,,,,,,,,,,,,,,,,,,,,,,,,,,,,,,,,,,,,,,,,,,,,,,,,,,,,,,,,,,,,,,,,,,,,,,,
,,5ddd1dd2b48da3c63a3ccdbb,2022-09-08_14h09.58.238,CGTgamblingSpanTasks,2022.2.1,Win32,15.0060024,,,,,,,,2.798,,,,,,,,,,,,,,1,n,1.202,4.251676631,0,3.798,1,,,,,,3.395192929,0,4.251676631,,,,,,,,,,,,,0,35,35,7,1,0.023467153,0,,,,,,,,,,,,,,,,,,,,,,,,,,,,,,,,,,,,,,,,,,,,,,,,,,,,,,,,,,,,,,,,,,,,,,,,,,,,,,,,
,,5ddd1dd2b48da3c63a3ccdbb,2022-09-08_14h09.58.238,CGTgamblingSpanTasks,2022.2.1,Win32,15.0060024,,,,,,,,2.922,,,,,,,,,,,,,,2,n,1.078,0,1,3.922,1,,,,,,15.21435748,0,10.3417501,,,,,,,,,,,,,0,36,36,72,1,0.060969226,0,,,,,,,,,,,,,,,,,,,,,,,,,,,,,,,,,,,,,,,,,,,,,,,,,,,,,,,,,,,,,,,,,,,,,,,,,,,,,,,,
,,5ddd1dd2b48da3c63a3ccdbb,2022-09-08_14h09.58.238,CGTgamblingSpanTasks,2022.2.1,Win32,15.0060024,,,,,,,,2.954,,,,,,,,,,,,,,1,v,1.046,0,1,4.454,1.5,,,,,,28.9381277,0,2.663622024,,,,,,,,,,,,,0,37,37,103,1,0.519453367,1,,,,,,,,,,,,,,,,,,,,,,,,,,,,,,,,,,,,,,,,,,,,,,,,,,,,,,,,,,,,,,,,,,,,,,,,,,,,,,,,
,,5ddd1dd2b48da3c63a3ccdbb,2022-09-08_14h09.58.238,CGTgamblingSpanTasks,2022.2.1,Win32,15.0060024,,,,,,,,2.795,,,,,,,,,,,,,,1,v,1.205,17.67865084,1,3.795,1,,,,,,17.67865084,0,11.35147481,,,,,,,,,,,,,0,38,38,91,1,0.067304606,0,,,,,,,,,,,,,,,,,,,,,,,,,,,,,,,,,,,,,,,,,,,,,,,,,,,,,,,,,,,,,,,,,,,,,,,,,,,,,,,,
,,5ddd1dd2b48da3c63a3ccdbb,2022-09-08_14h09.58.238,CGTgamblingSpanTasks,2022.2.1,Win32,15.0060024,,,,,,,,2.972,,,,,,,,,,,,,,1,v,1.028,21.17800335,1,4.472,1.5,,,,,,21.17800335,0,0.059830985,,,,,,,,,,,,,0,39,39,67,1,0.908594974,0,,,,,,,,,,,,,,,,,,,,,,,,,,,,,,,,,,,,,,,,,,,,,,,,,,,,,,,,,,,,,,,,,,,,,,,,,,,,,,,,
,,5ddd1dd2b48da3c63a3ccdbb,2022-09-08_14h09.58.238,CGTgamblingSpanTasks,2022.2.1,Win32,15.0060024,,,,,,,,2.965,,,,,,,,,,,,,,1,v,1.035,24.57684014,1,4.465,1.5,,,,,,24.57684014,0,0.061756244,,,,,,,,,,,,,0,40,40,68,1,0.911988903,0,,,,,,,,,,,,,,,,,,,,,,,,,,,,,,,,,,,,,,,,,,,,,,,,,,,,,,,,,,,,,,,,,,,,,,,,,,,,,,,,
,,5ddd1dd2b48da3c63a3ccdbb,2022-09-08_14h09.58.238,CGTgamblingSpanTasks,2022.2.1,Win32,15.0060024,,,,,,,,2.644,,,,,,,,,,,,,,2,n,1.356,28.94627214,1,4.144,1.5,,,,,,28.94627214,0,2.701896413,,,,,,,,,,,,,0,41,41,111,1,0.515860759,1,,,,,,,,,,,,,,,,,,,,,,,,,,,,,,,,,,,,,,,,,,,,,,,,,,,,,,,,,,,,,,,,,,,,,,,,,,,,,,,,
,,5ddd1dd2b48da3c63a3ccdbb,2022-09-08_14h09.58.238,CGTgamblingSpanTasks,2022.2.1,Win32,15.0060024,,,,,,,,2.955,,,,,,,,,,,,,,2,n,1.045,27.12325385,1,3.955,1,,,,,,27.12325385,0,0.080932047,,,,,,,,,,,,,0,42,42,14,1,0.906929184,0,,,,,,,,,,,,,,,,,,,,,,,,,,,,,,,,,,,,,,,,,,,,,,,,,,,,,,,,,,,,,,,,,,,,,,,,,,,,,,,,
,,5ddd1dd2b48da3c63a3ccdbb,2022-09-08_14h09.58.238,CGTgamblingSpanTasks,2022.2.1,Win32,15.0060024,,,,,,,,2.646,,,,,,,,,,,,,,1,v,1.354,0,1,4.146,1.5,,,,,,19.68065872,0,1.843597162,,,,,,,,,,,,,0,43,43,80,1,0.514941058,1,,,,,,,,,,,,,,,,,,,,,,,,,,,,,,,,,,,,,,,,,,,,,,,,,,,,,,,,,,,,,,,,,,,,,,,,,,,,,,,,
,,5ddd1dd2b48da3c63a3ccdbb,2022-09-08_14h09.58.238,CGTgamblingSpanTasks,2022.2.1,Win32,15.0060024,,,,,,,,2.978,,,,,,,,,,,,,,2,n,1.022,0,1,4.478,1.5,,,,,,25.65316415,0,0.079652925,,,,,,,,,,,,,0,44,44,109,1,0.90568168,0,,,,,,,,,,,,,,,,,,,,,,,,,,,,,,,,,,,,,,,,,,,,,,,,,,,,,,,,,,,,,,,,,,,,,,,,,,,,,,,,
,,5ddd1dd2b48da3c63a3ccdbb,2022-09-08_14h09.58.238,CGTgamblingSpanTasks,2022.2.1,Win32,15.0060024,,,,,,,,2.908,,,,,,,,,,,,,,1,v,1.092,20.31034258,1,3.908,1,,,,,,20.31034258,0,1.870404296,,,,,,,,,,,,,0,45,45,85,1,0.519325853,1,,,,,,,,,,,,,,,,,,,,,,,,,,,,,,,,,,,,,,,,,,,,,,,,,,,,,,,,,,,,,,,,,,,,,,,,,,,,,,,,
,,5ddd1dd2b48da3c63a3ccdbb,2022-09-08_14h09.58.238,CGTgamblingSpanTasks,2022.2.1,Win32,15.0060024,,,,,,,,2.947,,,,,,,,,,,,,,2,n,1.053,0,1,3.947,1,,,,,,14.3363647,0,1.396635362,,,,,,,,,,,,,0,46,46,78,1,0.504775474,1,,,,,,,,,,,,,,,,,,,,,,,,,,,,,,,,,,,,,,,,,,,,,,,,,,,,,,,,,,,,,,,,,,,,,,,,,,,,,,,,
,,5ddd1dd2b48da3c63a3ccdbb,2022-09-08_14h09.58.238,CGTgamblingSpanTasks,2022.2.1,Win32,15.0060024,,,,,,,,2.873,,,,,,,,,,,,,,1,v,1.127,0,1,4.373,1.5,,,,,,27.60724521,0,0.088432325,,,,,,,,,,,,,0,47,47,17,1,0.904684186,0,,,,,,,,,,,,,,,,,,,,,,,,,,,,,,,,,,,,,,,,,,,,,,,,,,,,,,,,,,,,,,,,,,,,,,,,,,,,,,,,
,,5ddd1dd2b48da3c63a3ccdbb,2022-09-08_14h09.58.238,CGTgamblingSpanTasks,2022.2.1,Win32,15.0060024,,,,,,,,2.969,,,,,,,,,,,,,,1,n,1.031,4.462262453,0,3.969,1,,,,,,0.192759042,0,4.462262453,,,,,,,,,,,,,0,48,48,52,1,0.003553223,0,,,,,,,,,,,,,,,,,,,,,,,,,,,,,,,,,,,,,,,,,,,,,,,,,,,,,,,,,,,,,,,,,,,,,,,,,,,,,,,,
,,5ddd1dd2b48da3c63a3ccdbb,2022-09-08_14h09.58.238,CGTgamblingSpanTasks,2022.2.1,Win32,15.0060024,,,,,,,,2.878,,,,,,,,,,,,,,2,n,1.122,0,1,4.378,1.5,,,,,,17.5608285,0,1.825111303,,,,,,,,,,,,,0,49,49,104,1,0.487721116,1,,,,,,,,,,,,,,,,,,,,,,,,,,,,,,,,,,,,,,,,,,,,,,,,,,,,,,,,,,,,,,,,,,,,,,,,,,,,,,,,
,,5ddd1dd2b48da3c63a3ccdbb,2022-09-08_14h09.58.238,CGTgamblingSpanTasks,2022.2.1,Win32,15.0060024,,,,,,,,2.95,,,,,,,,,,,,,,2,n,1.05,23.24777057,1,3.95,1,,,,,,23.24777057,0,2.003482335,,,,,,,,,,,,,0,50,50,59,1,0.536135174,1,,,,,,,,,,,,,,,,,,,,,,,,,,,,,,,,,,,,,,,,,,,,,,,,,,,,,,,,,,,,,,,,,,,,,,,,,,,,,,,,
,,5ddd1dd2b48da3c63a3ccdbb,2022-09-08_14h09.58.238,CGTgamblingSpanTasks,2022.2.1,Win32,15.0060024,,,,,,,,2.858,,,,,,,,,,,,,,1,n,1.142,8.512335864,0,3.858,1,,,,,,10.05300841,0,8.512335864,,,,,,,,,,,,,0,51,51,74,1,0.040729225,0,,,,,,,,,,,,,,,,,,,,,,,,,,,,,,,,,,,,,,,,,,,,,,,,,,,,,,,,,,,,,,,,,,,,,,,,,,,,,,,,
,,5ddd1dd2b48da3c63a3ccdbb,2022-09-08_14h09.58.238,CGTgamblingSpanTasks,2022.2.1,Win32,15.0060024,,,,,,,,2.791,,,,,,,,,,,,,,1,v,1.209,29.77342428,1,4.291,1.5,,,,,,29.77342428,0,2.838865588,,,,,,,,,,,,,0,52,52,57,1,0.510363415,1,,,,,,,,,,,,,,,,,,,,,,,,,,,,,,,,,,,,,,,,,,,,,,,,,,,,,,,,,,,,,,,,,,,,,,,,,,,,,,,,
,,5ddd1dd2b48da3c63a3ccdbb,2022-09-08_14h09.58.238,CGTgamblingSpanTasks,2022.2.1,Win32,15.0060024,,,,,,,,2.96,,,,,,,,,,,,,,2,n,1.04,23.59556381,1,3.96,1,,,,,,23.59556381,0,2.464662219,,,,,,,,,,,,,0,53,53,22,1,0.486383205,1,,,,,,,,,,,,,,,,,,,,,,,,,,,,,,,,,,,,,,,,,,,,,,,,,,,,,,,,,,,,,,,,,,,,,,,,,,,,,,,,
,,5ddd1dd2b48da3c63a3ccdbb,2022-09-08_14h09.58.238,CGTgamblingSpanTasks,2022.2.1,Win32,15.0060024,,,,,,,,2.876,,,,,,,,,,,,,,1,v,1.124,0,1,3.876,1,,,,,,25.76582409,0,2.393193076,,,,,,,,,,,,,0,54,54,46,1,0.517129855,1,,,,,,,,,,,,,,,,,,,,,,,,,,,,,,,,,,,,,,,,,,,,,,,,,,,,,,,,,,,,,,,,,,,,,,,,,,,,,,,,
,,5ddd1dd2b48da3c63a3ccdbb,2022-09-08_14h09.58.238,CGTgamblingSpanTasks,2022.2.1,Win32,15.0060024,,,,,,,,3.044,,,,,,,,,,,,,,2,v,0.956,10.68505773,0,4.544,1.5,,,,,,17.64114152,0,10.68505773,,,,,,,,,,,,,0,55,55,98,1,0.074299362,0,,,,,,,,,,,,,,,,,,,,,,,,,,,,,,,,,,,,,,,,,,,,,,,,,,,,,,,,,,,,,,,,,,,,,,,,,,,,,,,,
,,5ddd1dd2b48da3c63a3ccdbb,2022-09-08_14h09.58.238,CGTgamblingSpanTasks,2022.2.1,Win32,15.0060024,,,,,,,,2.778,,,,,,,,,,,,,,1,v,1.222,0,1,4.278,1.5,,,,,,25.54604005,0,0.088845411,,,,,,,,,,,,,0,56,56,79,1,0.901957831,0,,,,,,,,,,,,,,,,,,,,,,,,,,,,,,,,,,,,,,,,,,,,,,,,,,,,,,,,,,,,,,,,,,,,,,,,,,,,,,,,
,,5ddd1dd2b48da3c63a3ccdbb,2022-09-08_14h09.58.238,CGTgamblingSpanTasks,2022.2.1,Win32,15.0060024,,,,,,,,3.058,,,,,,,,,,,,,,2,n,0.942,28.33977875,1,4.558,1.5,,,,,,28.33977875,0,2.768313633,,,,,,,,,,,,,0,57,57,116,1,0.50406901,1,,,,,,,,,,,,,,,,,,,,,,,,,,,,,,,,,,,,,,,,,,,,,,,,,,,,,,,,,,,,,,,,,,,,,,,,,,,,,,,,
,,5ddd1dd2b48da3c63a3ccdbb,2022-09-08_14h09.58.238,CGTgamblingSpanTasks,2022.2.1,Win32,15.0060024,,,,,,,,3.149,,,,,,,,,,,,,,2,n,0.851,0,1,4.649,1.5,,,,,,26.4985979,0,0.051324376,,,,,,,,,,,,,0,58,58,106,1,0.918747215,0,,,,,,,,,,,,,,,,,,,,,,,,,,,,,,,,,,,,,,,,,,,,,,,,,,,,,,,,,,,,,,,,,,,,,,,,,,,,,,,,
,,5ddd1dd2b48da3c63a3ccdbb,2022-09-08_14h09.58.238,CGTgamblingSpanTasks,2022.2.1,Win32,15.0060024,,,,,,,,2.752,,,,,,,,,,,,,,1,n,1.248,6.833409611,0,3.752,1,,,,,,6.325091157,0,6.833409611,,,,,,,,,,,,,0,59,59,58,1,0.027113638,0,,,,,,,,,,,,,,,,,,,,,,,,,,,,,,,,,,,,,,,,,,,,,,,,,,,,,,,,,,,,,,,,,,,,,,,,,,,,,,,,
,,5ddd1dd2b48da3c63a3ccdbb,2022-09-08_14h09.58.238,CGTgamblingSpanTasks,2022.2.1,Win32,15.0060024,,,,,,,,2.551,,,,,,,,,,,,,,1,v,1.449,0,1,4.051,1.5,,,,,,22.62475578,0,2.397643354,,,,,,,,,,,,,0,60,60,93,1,0.482527609,1,,,,,,,,,,,,,,,,,,,,,,,,,,,,,,,,,,,,,,,,,,,,,,,,,,,,,,,,,,,,,,,,,,,,,,,,,,,,,,,,
,,5ddd1dd2b48da3c63a3ccdbb,2022-09-08_14h09.58.238,CGTgamblingSpanTasks,2022.2.1,Win32,15.0060024,,,,,,,,3.013,,,,,,,,,,,,,,1,n,0.987,10.41201161,0,4.513,1.5,,,,,,6.307062696,0,10.41201161,,,,,,,,,,,,,0,61,61,23,1,0.018187109,0,,,,,,,,,,,,,,,,,,,,,,,,,,,,,,,,,,,,,,,,,,,,,,,,,,,,,,,,,,,,,,,,,,,,,,,,,,,,,,,,
,,5ddd1dd2b48da3c63a3ccdbb,2022-09-08_14h09.58.238,CGTgamblingSpanTasks,2022.2.1,Win32,15.0060024,,,,,,,,3.065,,,,,,,,,,,,,,2,v,0.935,2.067660742,0,4.565,1.5,,,,,,21.2188881,0,2.067660742,,,,,,,,,,,,,0,62,62,107,1,0.50470775,1,,,,,,,,,,,,,,,,,,,,,,,,,,,,,,,,,,,,,,,,,,,,,,,,,,,,,,,,,,,,,,,,,,,,,,,,,,,,,,,,
,,5ddd1dd2b48da3c63a3ccdbb,2022-09-08_14h09.58.238,CGTgamblingSpanTasks,2022.2.1,Win32,15.0060024,,,,,,,,2.842,,,,,,,,,,,,,,1,v,1.158,28.18900855,1,4.342,1.5,,,,,,28.18900855,0,0.05384276,,,,,,,,,,,,,0,63,63,55,1,0.919081308,0,,,,,,,,,,,,,,,,,,,,,,,,,,,,,,,,,,,,,,,,,,,,,,,,,,,,,,,,,,,,,,,,,,,,,,,,,,,,,,,,
,,5ddd1dd2b48da3c63a3ccdbb,2022-09-08_14h09.58.238,CGTgamblingSpanTasks,2022.2.1,Win32,15.0060024,,,,,,,,2.785,,,,,,,,,,,,,,2,n,1.215,28.14876717,1,3.785,1,,,,,,28.14876717,0,3.117906378,,,,,,,,,,,,,0,64,64,76,1,0.470636736,1,,,,,,,,,,,,,,,,,,,,,,,,,,,,,,,,,,,,,,,,,,,,,,,,,,,,,,,,,,,,,,,,,,,,,,,,,,,,,,,,
,,5ddd1dd2b48da3c63a3ccdbb,2022-09-08_14h09.58.238,CGTgamblingSpanTasks,2022.2.1,Win32,15.0060024,,,,,,,,2.555,,,,,,,,,,,,,,2,v,1.445,11.61882862,0,3.555,1,,,,,,4.022743614,0,11.61882862,,,,,,,,,,,,,0,65,65,38,1,0.011499376,0,,,,,,,,,,,,,,,,,,,,,,,,,,,,,,,,,,,,,,,,,,,,,,,,,,,,,,,,,,,,,,,,,,,,,,,,,,,,,,,,
,,5ddd1dd2b48da3c63a3ccdbb,2022-09-08_14h09.58.238,CGTgamblingSpanTasks,2022.2.1,Win32,15.0060024,,,,,,,,2.671,,,,,,,,,,,,,,1,v,1.329,26.36733703,1,3.671,1,,,,,,26.36733703,0,2.201057101,,,,,,,,,,,,,0,66,66,90,1,0.544064207,1,,,,,,,,,,,,,,,,,,,,,,,,,,,,,,,,,,,,,,,,,,,,,,,,,,,,,,,,,,,,,,,,,,,,,,,,,,,,,,,,
,,5ddd1dd2b48da3c63a3ccdbb,2022-09-08_14h09.58.238,CGTgamblingSpanTasks,2022.2.1,Win32,15.0060024,,,,,,,,2.791,,,,,,,,,,,,,,1,v,1.209,0,1,4.291,1.5,,,,,,28.13634754,0,2.532806323,,,,,,,,,,,,,0,67,67,28,1,0.525136524,1,,,,,,,,,,,,,,,,,,,,,,,,,,,,,,,,,,,,,,,,,,,,,,,,,,,,,,,,,,,,,,,,,,,,,,,,,,,,,,,,
,,5ddd1dd2b48da3c63a3ccdbb,2022-09-08_14h09.58.238,CGTgamblingSpanTasks,2022.2.1,Win32,15.0060024,,,,,,,,2.887,,,,,,,,,,,,,,2,n,1.113,27.94544945,1,3.887,1,,,,,,27.94544945,0,2.32030209,,,,,,,,,,,,,0,68,68,115,1,0.545390564,1,,,,,,,,,,,,,,,,,,,,,,,,,,,,,,,,,,,,,,,,,,,,,,,,,,,,,,,,,,,,,,,,,,,,,,,,,,,,,,,,
,,5ddd1dd2b48da3c63a3ccdbb,2022-09-08_14h09.58.238,CGTgamblingSpanTasks,2022.2.1,Win32,15.0060024,,,,,,,,2.967,,,,,,,,,,,,,,2,n,1.033,27.53810185,1,3.967,1,,,,,,27.53810185,0,0.097022401,,,,,,,,,,,,,0,69,69,50,1,0.901515865,0,,,,,,,,,,,,,,,,,,,,,,,,,,,,,,,,,,,,,,,,,,,,,,,,,,,,,,,,,,,,,,,,,,,,,,,,,,,,,,,,
,,5ddd1dd2b48da3c63a3ccdbb,2022-09-08_14h09.58.238,CGTgamblingSpanTasks,2022.2.1,Win32,15.0060024,,,,,,,,2.42,,,,,,,,,,,,,,1,v,1.58,0,1,3.92,1.5,,,,,,20.97851654,0,11.39288827,,,,,,,,,,,,,0,70,70,2,1,0.088791079,0,,,,,,,,,,,,,,,,,,,,,,,,,,,,,,,,,,,,,,,,,,,,,,,,,,,,,,,,,,,,,,,,,,,,,,,,,,,,,,,,
,,5ddd1dd2b48da3c63a3ccdbb,2022-09-08_14h09.58.238,CGTgamblingSpanTasks,2022.2.1,Win32,15.0060024,,,,,,,,2.877,,,,,,,,,,,,,,1,v,1.123,24.479109,1,3.877,1,,,,,,24.479109,0,0.089582697,,,,,,,,,,,,,0,71,71,89,1,0.900200232,0,,,,,,,,,,,,,,,,,,,,,,,,,,,,,,,,,,,,,,,,,,,,,,,,,,,,,,,,,,,,,,,,,,,,,,,,,,,,,,,,
,,5ddd1dd2b48da3c63a3ccdbb,2022-09-08_14h09.58.238,CGTgamblingSpanTasks,2022.2.1,Win32,15.0060024,,,,,,,,2.714,,,,,,,,,,,,,,1,v,1.286,0,1,4.214,1.5,,,,,,19.58698544,0,9.936178001,,,,,,,,,,,,,0,72,72,77,1,0.098812204,0,,,,,,,,,,,,,,,,,,,,,,,,,,,,,,,,,,,,,,,,,,,,,,,,,,,,,,,,,,,,,,,,,,,,,,,,,,,,,,,,
,,5ddd1dd2b48da3c63a3ccdbb,2022-09-08_14h09.58.238,CGTgamblingSpanTasks,2022.2.1,Win32,15.0060024,,,,,,,,3.147,,,,,,,,,,,,,,2,n,0.853,7.066129113,1,4.647,1.5,,,,,,7.066129113,0,0.585581699,,,,,,,,,,,,,0,73,73,19,1,0.545860632,1,,,,,,,,,,,,,,,,,,,,,,,,,,,,,,,,,,,,,,,,,,,,,,,,,,,,,,,,,,,,,,,,,,,,,,,,,,,,,,,,
,,5ddd1dd2b48da3c63a3ccdbb,2022-09-08_14h09.58.238,CGTgamblingSpanTasks,2022.2.1,Win32,15.0060024,,,,,,,,2.893,,,,,,,,,,,,,,2,n,1.107,0,1,3.893,1,,,,,,27.4965044,0,2.461467004,,,,,,,,,,,,,0,74,74,36,1,0.526550878,1,,,,,,,,,,,,,,,,,,,,,,,,,,,,,,,,,,,,,,,,,,,,,,,,,,,,,,,,,,,,,,,,,,,,,,,,,,,,,,,,
,,5ddd1dd2b48da3c63a3ccdbb,2022-09-08_14h09.58.238,CGTgamblingSpanTasks,2022.2.1,Win32,15.0060024,,,,,,,,3.057,,,,,,,,,,,,,,2,n,0.943,0,1,4.057,1,,,,,,18.50662664,0,0.052546026,,,,,,,,,,,,,0,75,75,112,1,0.908444837,0,,,,,,,,,,,,,,,,,,,,,,,,,,,,,,,,,,,,,,,,,,,,,,,,,,,,,,,,,,,,,,,,,,,,,,,,,,,,,,,,
,,5ddd1dd2b48da3c63a3ccdbb,2022-09-08_14h09.58.238,CGTgamblingSpanTasks,2022.2.1,Win32,15.0060024,,,,,,,,2.947,,,,,,,,,,,,,,1,v,1.053,25.21882231,1,3.947,1,,,,,,25.21882231,0,0.085746782,,,,,,,,,,,,,0,76,76,64,1,0.90272076,0,,,,,,,,,,,,,,,,,,,,,,,,,,,,,,,,,,,,,,,,,,,,,,,,,,,,,,,,,,,,,,,,,,,,,,,,,,,,,,,,
,,5ddd1dd2b48da3c63a3ccdbb,2022-09-08_14h09.58.238,CGTgamblingSpanTasks,2022.2.1,Win32,15.0060024,,,,,,,,2.719,,,,,,,,,,,,,,1,v,1.281,17.85020524,1,4.219,1.5,,,,,,17.85020524,0,2.058701084,,,,,,,,,,,,,0,77,77,25,1,0.459662216,1,,,,,,,,,,,,,,,,,,,,,,,,,,,,,,,,,,,,,,,,,,,,,,,,,,,,,,,,,,,,,,,,,,,,,,,,,,,,,,,,
,,5ddd1dd2b48da3c63a3ccdbb,2022-09-08_14h09.58.238,CGTgamblingSpanTasks,2022.2.1,Win32,15.0060024,,,,,,,,3.042,,,,,,,,,,,,,,2,n,0.958,0,1,4.542,1.5,,,,,,19.5450126,0,2.123581464,,,,,,,,,,,,,0,78,78,65,1,0.475836144,1,,,,,,,,,,,,,,,,,,,,,,,,,,,,,,,,,,,,,,,,,,,,,,,,,,,,,,,,,,,,,,,,,,,,,,,,,,,,,,,,
,,5ddd1dd2b48da3c63a3ccdbb,2022-09-08_14h09.58.238,CGTgamblingSpanTasks,2022.2.1,Win32,15.0060024,,,,,,,,2.673,,,,,,,,,,,,,,1,n,1.327,8.653432553,0,4.173,1.5,,,,,,15.13999312,0,8.653432553,,,,,,,,,,,,,0,79,79,54,1,0.081767484,0,,,,,,,,,,,,,,,,,,,,,,,,,,,,,,,,,,,,,,,,,,,,,,,,,,,,,,,,,,,,,,,,,,,,,,,,,,,,,,,,
,,5ddd1dd2b48da3c63a3ccdbb,2022-09-08_14h09.58.238,CGTgamblingSpanTasks,2022.2.1,Win32,15.0060024,,,,,,,,3.074,,,,,,,,,,,,,,1,v,0.926,21.16780451,1,4.574,1.5,,,,,,21.16780451,0,2.469465385,,,,,,,,,,,,,0,80,80,32,1,0.456531699,1,,,,,,,,,,,,,,,,,,,,,,,,,,,,,,,,,,,,,,,,,,,,,,,,,,,,,,,,,,,,,,,,,,,,,,,,,,,,,,,,
,,5ddd1dd2b48da3c63a3ccdbb,2022-09-08_14h09.58.238,CGTgamblingSpanTasks,2022.2.1,Win32,15.0060024,,,,,,,,3.042,,,,,,,,,,,,,,1,v,0.958,28.68598705,1,4.042,1,,,,,,28.68598705,0,0.050674956,,,,,,,,,,,,,0,81,81,62,1,0.920905497,0,,,,,,,,,,,,,,,,,,,,,,,,,,,,,,,,,,,,,,,,,,,,,,,,,,,,,,,,,,,,,,,,,,,,,,,,,,,,,,,,
,,5ddd1dd2b48da3c63a3ccdbb,2022-09-08_14h09.58.238,CGTgamblingSpanTasks,2022.2.1,Win32,15.0060024,,,,,,,,2.823,,,,,,,,,,,,,,2,n,1.177,8.670591867,1,4.323,1.5,,,,,,8.670591867,0,1.025847652,,,,,,,,,,,,,0,82,82,18,1,0.452680459,1,,,,,,,,,,,,,,,,,,,,,,,,,,,,,,,,,,,,,,,,,,,,,,,,,,,,,,,,,,,,,,,,,,,,,,,,,,,,,,,,
,,5ddd1dd2b48da3c63a3ccdbb,2022-09-08_14h09.58.238,CGTgamblingSpanTasks,2022.2.1,Win32,15.0060024,,,,,,,,2.521,,,,,,,,,,,,,,1,n,1.479,7.50753835,0,4.021,1.5,,,,,,2.231316635,0,7.50753835,,,,,,,,,,,,,0,83,83,29,1,0.010273427,0,,,,,,,,,,,,,,,,,,,,,,,,,,,,,,,,,,,,,,,,,,,,,,,,,,,,,,,,,,,,,,,,,,,,,,,,,,,,,,,,
,,5ddd1dd2b48da3c63a3ccdbb,2022-09-08_14h09.58.238,CGTgamblingSpanTasks,2022.2.1,Win32,15.0060024,,,,,,,,2.842,,,,,,,,,,,,,,1,v,1.158,21.39646914,1,4.342,1.5,,,,,,21.39646914,0,0.072474078,,,,,,,,,,,,,0,84,84,3,1,0.902848133,0,,,,,,,,,,,,,,,,,,,,,,,,,,,,,,,,,,,,,,,,,,,,,,,,,,,,,,,,,,,,,,,,,,,,,,,,,,,,,,,,
,,5ddd1dd2b48da3c63a3ccdbb,2022-09-08_14h09.58.238,CGTgamblingSpanTasks,2022.2.1,Win32,15.0060024,,,,,,,,2.862,,,,,,,,,,,,,,2,n,1.138,0,1,4.362,1.5,,,,,,25.0707644,0,0.067651625,,,,,,,,,,,,,0,85,85,70,1,0.909952349,0,,,,,,,,,,,,,,,,,,,,,,,,,,,,,,,,,,,,,,,,,,,,,,,,,,,,,,,,,,,,,,,,,,,,,,,,,,,,,,,,
,,5ddd1dd2b48da3c63a3ccdbb,2022-09-08_14h09.58.238,CGTgamblingSpanTasks,2022.2.1,Win32,15.0060024,,,,,,,,2.908,,,,,,,,,,,,,,1,v,1.092,0,1,4.408,1.5,,,,,,27.57491653,0,2.99133314,,,,,,,,,,,,,0,86,86,10,1,0.47625893,1,,,,,,,,,,,,,,,,,,,,,,,,,,,,,,,,,,,,,,,,,,,,,,,,,,,,,,,,,,,,,,,,,,,,,,,,,,,,,,,,
,,5ddd1dd2b48da3c63a3ccdbb,2022-09-08_14h09.58.238,CGTgamblingSpanTasks,2022.2.1,Win32,15.0060024,,,,,,,,2.925,,,,,,,,,,,,,,2,n,1.075,0,1,3.925,1,,,,,,8.217594828,0,0.951019374,,,,,,,,,,,,,0,87,87,87,1,0.458722936,1,,,,,,,,,,,,,,,,,,,,,,,,,,,,,,,,,,,,,,,,,,,,,,,,,,,,,,,,,,,,,,,,,,,,,,,,,,,,,,,,
,,5ddd1dd2b48da3c63a3ccdbb,2022-09-08_14h09.58.238,CGTgamblingSpanTasks,2022.2.1,Win32,15.0060024,,,,,,,,3.018,,,,,,,,,,,,,,1,v,0.982,0,1,4.018,1,,,,,,27.39221343,0,2.743407746,,,,,,,,,,,,,0,88,88,47,1,0.49752044,1,,,,,,,,,,,,,,,,,,,,,,,,,,,,,,,,,,,,,,,,,,,,,,,,,,,,,,,,,,,,,,,,,,,,,,,,,,,,,,,,
,,5ddd1dd2b48da3c63a3ccdbb,2022-09-08_14h09.58.238,CGTgamblingSpanTasks,2022.2.1,Win32,15.0060024,,,,,,,,3.139,,,,,,,,,,,,,,1,v,0.861,0,1,4.639,1.5,,,,,,24.8002852,0,0.071848086,,,,,,,,,,,,,0,89,89,16,1,0.90783559,0,,,,,,,,,,,,,,,,,,,,,,,,,,,,,,,,,,,,,,,,,,,,,,,,,,,,,,,,,,,,,,,,,,,,,,,,,,,,,,,,
,,5ddd1dd2b48da3c63a3ccdbb,2022-09-08_14h09.58.238,CGTgamblingSpanTasks,2022.2.1,Win32,15.0060024,,,,,,,,2.964,,,,,,,,,,,,,,1,n,1.036,11.19311486,0,3.964,1,,,,,,8.17598802,0,11.19311486,,,,,,,,,,,,,0,90,90,110,1,0.021568003,0,,,,,,,,,,,,,,,,,,,,,,,,,,,,,,,,,,,,,,,,,,,,,,,,,,,,,,,,,,,,,,,,,,,,,,,,,,,,,,,,
,,5ddd1dd2b48da3c63a3ccdbb,2022-09-08_14h09.58.238,CGTgamblingSpanTasks,2022.2.1,Win32,15.0060024,,,,,,,,2.496,,,,,,,,,,,,,,2,v,1.504,8.42547829,0,3.496,1,,,,,,15.87668502,0,8.42547829,,,,,,,,,,,,,0,91,91,56,1,0.092099462,0,,,,,,,,,,,,,,,,,,,,,,,,,,,,,,,,,,,,,,,,,,,,,,,,,,,,,,,,,,,,,,,,,,,,,,,,,,,,,,,,
,,5ddd1dd2b48da3c63a3ccdbb,2022-09-08_14h09.58.238,CGTgamblingSpanTasks,2022.2.1,Win32,15.0060024,,,,,,,,3.033,,,,,,,,,,,,,,2,n,0.967,0,1,4.533,1.5,,,,,,29.30724159,0,3.247012935,,,,,,,,,,,,,0,92,92,71,1,0.470571125,1,,,,,,,,,,,,,,,,,,,,,,,,,,,,,,,,,,,,,,,,,,,,,,,,,,,,,,,,,,,,,,,,,,,,,,,,,,,,,,,,
,,5ddd1dd2b48da3c63a3ccdbb,2022-09-08_14h09.58.238,CGTgamblingSpanTasks,2022.2.1,Win32,15.0060024,,,,,,,,2.951,,,,,,,,,,,,,,2,n,1.049,0,1,4.451,1.5,,,,,,22.25959835,0,0.065383587,,,,,,,,,,,,,0,93,93,97,1,0.907413875,0,,,,,,,,,,,,,,,,,,,,,,,,,,,,,,,,,,,,,,,,,,,,,,,,,,,,,,,,,,,,,,,,,,,,,,,,,,,,,,,,
,,5ddd1dd2b48da3c63a3ccdbb,2022-09-08_14h09.58.238,CGTgamblingSpanTasks,2022.2.1,Win32,15.0060024,,,,,,,,2.42,,,,,,,,,,,,,,2,n,1.58,0,1,3.92,1.5,,,,,,29.76099779,0,0.095763086,,,,,,,,,,,,,0,94,94,35,1,0.904537896,0,,,,,,,,,,,,,,,,,,,,,,,,,,,,,,,,,,,,,,,,,,,,,,,,,,,,,,,,,,,,,,,,,,,,,,,,,,,,,,,,
,,5ddd1dd2b48da3c63a3ccdbb,2022-09-08_14h09.58.238,CGTgamblingSpanTasks,2022.2.1,Win32,15.0060024,,,,,,,,2.954,,,,,,,,,,,,,,2,n,1.046,27.77179191,1,3.954,1,,,,,,27.77179191,0,0.074524436,,,,,,,,,,,,,0,95,95,99,1,0.910114387,0,,,,,,,,,,,,,,,,,,,,,,,,,,,,,,,,,,,,,,,,,,,,,,,,,,,,,,,,,,,,,,,,,,,,,,,,,,,,,,,,
,,5ddd1dd2b48da3c63a3ccdbb,2022-09-08_14h09.58.238,CGTgamblingSpanTasks,2022.2.1,Win32,15.0060024,,,,,,,,2.756,,,,,,,,,,,,,,1,n,1.244,5.526483034,0,4.256,1.5,,,,,,9.725876653,0,5.526483034,,,,,,,,,,,,,0,96,96,44,1,0.082550696,0,,,,,,,,,,,,,,,,,,,,,,,,,,,,,,,,,,,,,,,,,,,,,,,,,,,,,,,,,,,,,,,,,,,,,,,,,,,,,,,,
,,5ddd1dd2b48da3c63a3ccdbb,2022-09-08_14h09.58.238,CGTgamblingSpanTasks,2022.2.1,Win32,15.0060024,,,,,,,,2.851,,,,,,,,,,,,,,2,n,1.149,0,1,3.851,1,,,,,,23.4214135,0,2.485985001,,,,,,,,,,,,,0,97,97,81,1,0.482105905,1,,,,,,,,,,,,,,,,,,,,,,,,,,,,,,,,,,,,,,,,,,,,,,,,,,,,,,,,,,,,,,,,,,,,,,,,,,,,,,,,
,,5ddd1dd2b48da3c63a3ccdbb,2022-09-08_14h09.58.238,CGTgamblingSpanTasks,2022.2.1,Win32,15.0060024,,,,,,,,2.866,,,,,,,,,,,,,,2,n,1.134,22.87092517,1,4.366,1.5,,,,,,22.87092517,0,0.059276504,,,,,,,,,,,,,0,98,98,27,1,0.911114935,0,,,,,,,,,,,,,,,,,,,,,,,,,,,,,,,,,,,,,,,,,,,,,,,,,,,,,,,,,,,,,,,,,,,,,,,,,,,,,,,,
,,5ddd1dd2b48da3c63a3ccdbb,2022-09-08_14h09.58.238,CGTgamblingSpanTasks,2022.2.1,Win32,15.0060024,,,,,,,,2.804,,,,,,,,,,,,,,2,n,1.196,22.0050376,1,4.304,1.5,,,,,,22.0050376,0,2.257683666,,,,,,,,,,,,,0,99,99,4,1,0.491147312,1,,,,,,,,,,,,,,,,,,,,,,,,,,,,,,,,,,,,,,,,,,,,,,,,,,,,,,,,,,,,,,,,,,,,,,,,,,,,,,,,
,,5ddd1dd2b48da3c63a3ccdbb,2022-09-08_14h09.58.238,CGTgamblingSpanTasks,2022.2.1,Win32,15.0060024,,,,,,,,2.797,,,,,,,,,,,,,,1,v,1.203,0,1,3.797,1,,,,,,21.7711579,0,2.502728921,,,,,,,,,,,,,0,100,100,101,1,0.460552621,1,,,,,,,,,,,,,,,,,,,,,,,,,,,,,,,,,,,,,,,,,,,,,,,,,,,,,,,,,,,,,,,,,,,,,,,,,,,,,,,,
,,5ddd1dd2b48da3c63a3ccdbb,2022-09-08_14h09.58.238,CGTgamblingSpanTasks,2022.2.1,Win32,15.0060024,,,,,,,,2.749,,,,,,,,,,,,,,1,n,1.251,5.683635938,0,3.749,1,,,,,,4.941039335,0,5.683635938,,,,,,,,,,,,,0,101,101,9,1,0.025481984,0,,,,,,,,,,,,,,,,,,,,,,,,,,,,,,,,,,,,,,,,,,,,,,,,,,,,,,,,,,,,,,,,,,,,,,,,,,,,,,,,
,,5ddd1dd2b48da3c63a3ccdbb,2022-09-08_14h09.58.238,CGTgamblingSpanTasks,2022.2.1,Win32,15.0060024,,,,,,,,2.948,,,,,,,,,,,,,,2,n,1.052,27.76752685,1,3.948,1,,,,,,27.76752685,0,0.083968035,,,,,,,,,,,,,0,102,102,13,1,0.906513967,0,,,,,,,,,,,,,,,,,,,,,,,,,,,,,,,,,,,,,,,,,,,,,,,,,,,,,,,,,,,,,,,,,,,,,,,,,,,,,,,,
,,5ddd1dd2b48da3c63a3ccdbb,2022-09-08_14h09.58.238,CGTgamblingSpanTasks,2022.2.1,Win32,15.0060024,,,,,,,,2.502,,,,,,,,,,,,,,1,v,1.498,0,1,3.502,1,,,,,,19.3050342,0,2.030232342,,,,,,,,,,,,,0,103,103,73,1,0.484573227,1,,,,,,,,,,,,,,,,,,,,,,,,,,,,,,,,,,,,,,,,,,,,,,,,,,,,,,,,,,,,,,,,,,,,,,,,,,,,,,,,
,,5ddd1dd2b48da3c63a3ccdbb,2022-09-08_14h09.58.238,CGTgamblingSpanTasks,2022.2.1,Win32,15.0060024,,,,,,,,2.805,,,,,,,,,,,,,,2,n,1.195,0,1,4.305,1.5,,,,,,11.08143071,0,1.207538756,,,,,,,,,,,,,0,104,104,84,1,0.475047453,1,,,,,,,,,,,,,,,,,,,,,,,,,,,,,,,,,,,,,,,,,,,,,,,,,,,,,,,,,,,,,,,,,,,,,,,,,,,,,,,,
,,5ddd1dd2b48da3c63a3ccdbb,2022-09-08_14h09.58.238,CGTgamblingSpanTasks,2022.2.1,Win32,15.0060024,,,,,,,,2.718,,,,,,,,,,,,,,1,n,1.282,11.42134125,0,3.718,1,,,,,,12.9904115,0,11.42134125,,,,,,,,,,,,,0,105,105,118,1,0.037876033,0,,,,,,,,,,,,,,,,,,,,,,,,,,,,,,,,,,,,,,,,,,,,,,,,,,,,,,,,,,,,,,,,,,,,,,,,,,,,,,,,
,,5ddd1dd2b48da3c63a3ccdbb,2022-09-08_14h09.58.238,CGTgamblingSpanTasks,2022.2.1,Win32,15.0060024,,,,,,,,2.634,,,,,,,,,,,,,,1,v,1.366,0,1,4.134,1.5,,,,,,15.43649625,0,1.65459324,,,,,,,,,,,,,0,106,106,33,1,0.479480163,1,,,,,,,,,,,,,,,,,,,,,,,,,,,,,,,,,,,,,,,,,,,,,,,,,,,,,,,,,,,,,,,,,,,,,,,,,,,,,,,,
,,5ddd1dd2b48da3c63a3ccdbb,2022-09-08_14h09.58.238,CGTgamblingSpanTasks,2022.2.1,Win32,15.0060024,,,,,,,,2.62,,,,,,,,,,,,,,1,v,1.38,0,1,4.12,1.5,,,,,,7.534278541,0,0.747140182,,,,,,,,,,,,,0,107,107,37,1,0.50012466,1,,,,,,,,,,,,,,,,,,,,,,,,,,,,,,,,,,,,,,,,,,,,,,,,,,,,,,,,,,,,,,,,,,,,,,,,,,,,,,,,
,,5ddd1dd2b48da3c63a3ccdbb,2022-09-08_14h09.58.238,CGTgamblingSpanTasks,2022.2.1,Win32,15.0060024,,,,,,,,3.057,,,,,,,,,,,,,,2,v,0.943,6.781500919,0,4.557,1.5,,,,,,8.363821911,0,6.781500919,,,,,,,,,,,,,0,108,108,61,1,0.044227959,0,,,,,,,,,,,,,,,,,,,,,,,,,,,,,,,,,,,,,,,,,,,,,,,,,,,,,,,,,,,,,,,,,,,,,,,,,,,,,,,,
,,5ddd1dd2b48da3c63a3ccdbb,2022-09-08_14h09.58.238,CGTgamblingSpanTasks,2022.2.1,Win32,15.0060024,,,,,,,,3.053,,,,,,,,,,,,,,2,v,0.947,11.6744431,0,4.553,1.5,,,,,,10.43004651,0,11.6744431,,,,,,,,,,,,,0,109,109,15,1,0.026176489,0,,,,,,,,,,,,,,,,,,,,,,,,,,,,,,,,,,,,,,,,,,,,,,,,,,,,,,,,,,,,,,,,,,,,,,,,,,,,,,,,
,,5ddd1dd2b48da3c63a3ccdbb,2022-09-08_14h09.58.238,CGTgamblingSpanTasks,2022.2.1,Win32,15.0060024,,,,,,,,2.946,,,,,,,,,,,,,,1,v,1.054,0,1,3.946,1,,,,,,25.56803059,0,2.543951743,,,,,,,,,,,,,0,110,110,41,1,0.499247217,1,,,,,,,,,,,,,,,,,,,,,,,,,,,,,,,,,,,,,,,,,,,,,,,,,,,,,,,,,,,,,,,,,,,,,,,,,,,,,,,,
,,5ddd1dd2b48da3c63a3ccdbb,2022-09-08_14h09.58.238,CGTgamblingSpanTasks,2022.2.1,Win32,15.0060024,,,,,,,,2.951,,,,,,,,,,,,,,1,v,1.049,17.92584289,1,4.451,1.5,,,,,,17.92584289,0,1.878232496,,,,,,,,,,,,,0,111,111,5,1,0.485559263,1,,,,,,,,,,,,,,,,,,,,,,,,,,,,,,,,,,,,,,,,,,,,,,,,,,,,,,,,,,,,,,,,,,,,,,,,,,,,,,,,
,,5ddd1dd2b48da3c63a3ccdbb,2022-09-08_14h09.58.238,CGTgamblingSpanTasks,2022.2.1,Win32,15.0060024,,,,,,,,2.755,,,,,,,,,,,,,,2,n,1.245,0,1,4.255,1.5,,,,,,18.51345298,0,1.932334278,,,,,,,,,,,,,0,112,112,31,1,0.48658696,1,,,,,,,,,,,,,,,,,,,,,,,,,,,,,,,,,,,,,,,,,,,,,,,,,,,,,,,,,,,,,,,,,,,,,,,,,,,,,,,,
,,5ddd1dd2b48da3c63a3ccdbb,2022-09-08_14h09.58.238,CGTgamblingSpanTasks,2022.2.1,Win32,15.0060024,,,,,,,,2.983,,,,,,,,,,,,,,2,n,1.017,26.16821818,1,3.983,1,,,,,,26.16821818,0,0.093528069,,,,,,,,,,,,,0,113,113,42,1,0.901022427,0,,,,,,,,,,,,,,,,,,,,,,,,,,,,,,,,,,,,,,,,,,,,,,,,,,,,,,,,,,,,,,,,,,,,,,,,,,,,,,,,
,,5ddd1dd2b48da3c63a3ccdbb,2022-09-08_14h09.58.238,CGTgamblingSpanTasks,2022.2.1,Win32,15.0060024,,,,,,,,2.969,,,,,,,,,,,,,,2,n,1.031,24.35708027,1,3.969,1,,,,,,24.35708027,0,2.738695417,,,,,,,,,,,,,0,114,114,114,1,0.466573634,1,,,,,,,,,,,,,,,,,,,,,,,,,,,,,,,,,,,,,,,,,,,,,,,,,,,,,,,,,,,,,,,,,,,,,,,,,,,,,,,,
,,5ddd1dd2b48da3c63a3ccdbb,2022-09-08_14h09.58.238,CGTgamblingSpanTasks,2022.2.1,Win32,15.0060024,,,,,,,,2.968,,,,,,,,,,,,,,1,v,1.032,28.9323758,1,3.968,1,,,,,,28.9323758,0,2.893007023,,,,,,,,,,,,,0,115,115,11,1,0.497943321,1,,,,,,,,,,,,,,,,,,,,,,,,,,,,,,,,,,,,,,,,,,,,,,,,,,,,,,,,,,,,,,,,,,,,,,,,,,,,,,,,
,,5ddd1dd2b48da3c63a3ccdbb,2022-09-08_14h09.58.238,CGTgamblingSpanTasks,2022.2.1,Win32,15.0060024,,,,,,,,3.062,,,,,,,,,,,,,,2,n,0.938,0,1,4.062,1,,,,,,20.5726842,0,0.073558523,,,,,,,,,,,,,0,116,116,26,1,0.901008565,0,,,,,,,,,,,,,,,,,,,,,,,,,,,,,,,,,,,,,,,,,,,,,,,,,,,,,,,,,,,,,,,,,,,,,,,,,,,,,,,,
,,5ddd1dd2b48da3c63a3ccdbb,2022-09-08_14h09.58.238,CGTgamblingSpanTasks,2022.2.1,Win32,15.0060024,,,,,,,,3.116,,,,,,,,,,,,,,2,n,0.884,0,1,4.616,1.5,,,,,,14.20587264,0,11.93550497,,,,,,,,,,,,,0,117,117,21,1,0.041340301,0,,,,,,,,,,,,,,,,,,,,,,,,,,,,,,,,,,,,,,,,,,,,,,,,,,,,,,,,,,,,,,,,,,,,,,,,,,,,,,,,
,,5ddd1dd2b48da3c63a3ccdbb,2022-09-08_14h09.58.238,CGTgamblingSpanTasks,2022.2.1,Win32,15.0060024,,,,,,,,2.802,,,,,,,,,,,,,,1,v,1.198,13.84410806,1,3.802,1,,,,,,13.84410806,0,1.535873964,,,,,,,,,,,,,0,118,118,88,1,0.470209002,1,,,,,,,,,,,,,,,,,,,,,,,,,,,,,,,,,,,,,,,,,,,,,,,,,,,,,,,,,,,,,,,,,,,,,,,,,,,,,,,,
,,5ddd1dd2b48da3c63a3ccdbb,2022-09-08_14h09.58.238,CGTgamblingSpanTasks,2022.2.1,Win32,15.0060024,,,,,,,,2.188,,,,,,,,,,,,,,2,v,1.812,8.830252162,0,3.188,1,,,,,,15.73000491,0,8.830252162,,,,,,,,,,,,,0,119,119,95,1,0.084193143,0,,,,,,,,,,,,,,,,,,,,,,,,,,,,,,,,,,,,,,,,,,,,,,,,,,,,,,,,,,,,,,,,,,,,,,,,,,,,,,,,
,,5ddd1dd2b48da3c63a3ccdbb,2022-09-08_14h09.58.238,CGTgamblingSpanTasks,2022.2.1,Win32,15.0060024,,,,,,,,,,,,,,,,,,,,,,,,,,,,,,,,,,,,,,,,,,,,,,,,,,,,,,,,return,26.949,,,,,,,,,,,,,,,,,,,,,,,,,,,,,,,,,,,,,,,,,,,,,,,,,,,,,,,,,,,,,,,,,,,,,,,,,,,,,,
,,5ddd1dd2b48da3c63a3ccdbb,2022-09-08_14h09.58.238,CGTgamblingSpanTasks,2022.2.1,Win32,15.0060024,,,,,,,,,,,,,,,,,,,,,,,,,,,,,,,,,,,,,,,,,,,,,,,,,,,,,,,,,,return,327.685,,,,,,,,,,,,,,,,,,,,,,,,,,,,,,,,,,,,,,,,,,,,,,,,,,,,,,,,,,,,,,,,,,,,,,,,,,,,
,,5ddd1dd2b48da3c63a3ccdbb,2022-09-08_14h09.58.238,CGTgamblingSpanTasks,2022.2.1,Win32,15.0060024,,,,,,,,,,,,,,,,,,,,,,,,,,,,,,,,,,,,,,,,,,,,,,,,,,,,,,,,,,,,return,77.817,,,,,,,,,,,,,,,,,,,,,,,,,,,,,,,,,,,,,,,,,,,,,,,,,,,,,,,,,,,,,,,,,,,,,,,,,,
,,5ddd1dd2b48da3c63a3ccdbb,2022-09-08_14h09.58.238,CGTgamblingSpanTasks,2022.2.1,Win32,15.0060024,,,,,,,,,,,,,,,,,,,,,,,,,,,,,,,,,,,,,,,,,,,,,,,,,,,,,,,,,,,,,,342,1,-0.100740741,-0.398518519,1,0,0,cont_buttonPractice,0,0,0,0,1,3,342,24,2,42,,,,,,,,,,,,,,,,,,,,,,,,,,,,,,,,,,,,,,,,,,,,,,,,,,,,,,,,
,,5ddd1dd2b48da3c63a3ccdbb,2022-09-08_14h09.58.238,CGTgamblingSpanTasks,2022.2.1,Win32,15.0060024,,,,,,,,,,,,,,,,,,,,,,,,,,,,,,,,,,,,,,,,,,,,,,,,,,,,,,,,,,,,,,937,1,-0.034814815,-0.399259259,1,0,0,cont_buttonPractice,0,1,1,1,1,3,937,73,2,37,,,,,,,,,,,,,,,,,,,,,,,,,,,,,,,,,,,,,,,,,,,,,,,,,,,,,,,,
,,5ddd1dd2b48da3c63a3ccdbb,2022-09-08_14h09.58.238,CGTgamblingSpanTasks,2022.2.1,Win32,15.0060024,,,,,,,,,,,,,,,,,,,,,,,,,,,,,,,,,,,,,,,,,,,,,,,,,,,,,,,,,,,,,,,,,,,,,,,,,,,,,,,,return,32.283,,,,,,,,,,,,,,,,,,,,,,,,,,,,,,,,,,,,,,,,,,,,,,,,,,,,,,
,,5ddd1dd2b48da3c63a3ccdbb,2022-09-08_14h09.58.238,CGTgamblingSpanTasks,2022.2.1,Win32,15.0060024,,,,,,,,,,,,,,,,,,,,,,,,,,,,,,,,,,,,,,,,,,,,,,,,,,,,,,,,,,,,,,,,,,,,,,,,,,,,,,,,,,"[9,4,1]",0,0,0,0,1,,,,,,,,,,,,,,,,,,,,,,,,,,,,,,,,,,,,,,,,,,,,,,,,
,,5ddd1dd2b48da3c63a3ccdbb,2022-09-08_14h09.58.238,CGTgamblingSpanTasks,2022.2.1,Win32,15.0060024,,,,,,,,,,,,,,,,,,,,,,,,,,,,,,,,,,,,,,,,,,,,,,,,,,,,,,,,,,,,,,,,,,,,,,,,,,,,,,,,,,"[9,4,1]",1,0,1,0,1,,,,,,,,,,,,,,,,,,,,,,,,,,,,,,,,,,,,,,,,,,,,,,,,
,,5ddd1dd2b48da3c63a3ccdbb,2022-09-08_14h09.58.238,CGTgamblingSpanTasks,2022.2.1,Win32,15.0060024,,,,,,,,,,,,,,,,,,,,,,,,,,,,,,,,,,,,,,,,,,,,,,,,,,,,,,,,,,,,,,,,,,,,,,,,,,,,,,,,,,"[9,4,1]",2,0,2,0,1,,,,,,,,,,,,,,,,,,,,,,,,,,,,,,,,,,,,,,,,,,,,,,,,
,,5ddd1dd2b48da3c63a3ccdbb,2022-09-08_14h09.58.238,CGTgamblingSpanTasks,2022.2.1,Win32,15.0060024,,,,,,,,,,,,,,,,,,,,,,,,,,,,,,,,,,,,,,,,,,,,,,,,,,,,,,,,,,,,,,,1,,,,,,,,,,,,,,,,,,,,,,,,,941,-0.04962963,-0.406666667,1,0,0,cont_button,0,0,0,0,1,1,,,,,,,,,,,,,,,,,,,,,,,,,,,,,,,,,,,
,,5ddd1dd2b48da3c63a3ccdbb,2022-09-08_14h09.58.238,CGTgamblingSpanTasks,2022.2.1,Win32,15.0060024,,,,,,,,,,,,,,,,,,,,,,,,,,,,,,,,,,,,,,,,,,,,,,,,,,,,,,,,,,,,,,,,,,,,,,,,,,,,,,,,,,"[8,5,7,4]",0,0,0,0,1,,,,,,,,,,,,,,,,,,,,,,,,,,,,,,,,,,,,,,,,,,,,,,,,
,,5ddd1dd2b48da3c63a3ccdbb,2022-09-08_14h09.58.238,CGTgamblingSpanTasks,2022.2.1,Win32,15.0060024,,,,,,,,,,,,,,,,,,,,,,,,,,,,,,,,,,,,,,,,,,,,,,,,,,,,,,,,,,,,,,,,,,,,,,,,,,,,,,,,,,"[8,5,7,4]",1,0,1,0,1,,,,,,,,,,,,,,,,,,,,,,,,,,,,,,,,,,,,,,,,,,,,,,,,
,,5ddd1dd2b48da3c63a3ccdbb,2022-09-08_14h09.58.238,CGTgamblingSpanTasks,2022.2.1,Win32,15.0060024,,,,,,,,,,,,,,,,,,,,,,,,,,,,,,,,,,,,,,,,,,,,,,,,,,,,,,,,,,,,,,,,,,,,,,,,,,,,,,,,,,"[8,5,7,4]",2,0,2,0,1,,,,,,,,,,,,,,,,,,,,,,,,,,,,,,,,,,,,,,,,,,,,,,,,
,,5ddd1dd2b48da3c63a3ccdbb,2022-09-08_14h09.58.238,CGTgamblingSpanTasks,2022.2.1,Win32,15.0060024,,,,,,,,,,,,,,,,,,,,,,,,,,,,,,,,,,,,,,,,,,,,,,,,,,,,,,,,,,,,,,,,,,,,,,,,,,,,,,,,,,"[8,5,7,4]",3,0,3,0,1,,,,,,,,,,,,,,,,,,,,,,,,,,,,,,,,,,,,,,,,,,,,,,,,
,,5ddd1dd2b48da3c63a3ccdbb,2022-09-08_14h09.58.238,CGTgamblingSpanTasks,2022.2.1,Win32,15.0060024,,,,,,,,,,,,,,,,,,,,,,,,,,,,,,,,,,,,,,,,,,,,,,,,,,,,,,,,,,,,,,,1,,,,,,,,,,,,,,,,,,,,,,,,,8574,-0.051111111,-0.417777778,1,0,0,cont_button,0,1,1,1,1,2,,,,,,,,,,,,,,,,,,,,,,,,,,,,,,,,,,,
,,5ddd1dd2b48da3c63a3ccdbb,2022-09-08_14h09.58.238,CGTgamblingSpanTasks,2022.2.1,Win32,15.0060024,,,,,,,,,,,,,,,,,,,,,,,,,,,,,,,,,,,,,,,,,,,,,,,,,,,,,,,,,,,,,,,,,,,,,,,,,,,,,,,,,,"[1,9,2,3,6]",0,0,0,0,1,,,,,,,,,,,,,,,,,,,,,,,,,,,,,,,,,,,,,,,,,,,,,,,,
,,5ddd1dd2b48da3c63a3ccdbb,2022-09-08_14h09.58.238,CGTgamblingSpanTasks,2022.2.1,Win32,15.0060024,,,,,,,,,,,,,,,,,,,,,,,,,,,,,,,,,,,,,,,,,,,,,,,,,,,,,,,,,,,,,,,,,,,,,,,,,,,,,,,,,,"[1,9,2,3,6]",1,0,1,0,1,,,,,,,,,,,,,,,,,,,,,,,,,,,,,,,,,,,,,,,,,,,,,,,,
,,5ddd1dd2b48da3c63a3ccdbb,2022-09-08_14h09.58.238,CGTgamblingSpanTasks,2022.2.1,Win32,15.0060024,,,,,,,,,,,,,,,,,,,,,,,,,,,,,,,,,,,,,,,,,,,,,,,,,,,,,,,,,,,,,,,,,,,,,,,,,,,,,,,,,,"[1,9,2,3,6]",2,0,2,0,1,,,,,,,,,,,,,,,,,,,,,,,,,,,,,,,,,,,,,,,,,,,,,,,,
,,5ddd1dd2b48da3c63a3ccdbb,2022-09-08_14h09.58.238,CGTgamblingSpanTasks,2022.2.1,Win32,15.0060024,,,,,,,,,,,,,,,,,,,,,,,,,,,,,,,,,,,,,,,,,,,,,,,,,,,,,,,,,,,,,,,,,,,,,,,,,,,,,,,,,,"[1,9,2,3,6]",3,0,3,0,1,,,,,,,,,,,,,,,,,,,,,,,,,,,,,,,,,,,,,,,,,,,,,,,,
,,5ddd1dd2b48da3c63a3ccdbb,2022-09-08_14h09.58.238,CGTgamblingSpanTasks,2022.2.1,Win32,15.0060024,,,,,,,,,,,,,,,,,,,,,,,,,,,,,,,,,,,,,,,,,,,,,,,,,,,,,,,,,,,,,,,,,,,,,,,,,,,,,,,,,,"[1,9,2,3,6]",4,0,4,0,1,,,,,,,,,,,,,,,,,,,,,,,,,,,,,,,,,,,,,,,,,,,,,,,,
,,5ddd1dd2b48da3c63a3ccdbb,2022-09-08_14h09.58.238,CGTgamblingSpanTasks,2022.2.1,Win32,15.0060024,,,,,,,,,,,,,,,,,,,,,,,,,,,,,,,,,,,,,,,,,,,,,,,,,,,,,,,,,,,,,,,1,,,,,,,,,,,,,,,,,,,,,,,,,19236,-0.022962963,-0.394814815,1,0,0,cont_button,0,2,2,2,1,3,,,,,,,,,,,,,,,,,,,,,,,,,,,,,,,,,,,
,,5ddd1dd2b48da3c63a3ccdbb,2022-09-08_14h09.58.238,CGTgamblingSpanTasks,2022.2.1,Win32,15.0060024,,,,,,,,,,,,,,,,,,,,,,,,,,,,,,,,,,,,,,,,,,,,,,,,,,,,,,,,,,,,,,,,,,,,,,,,,,,,,,,,,,"[2,1,8,7,4,6]",0,0,0,0,1,,,,,,,,,,,,,,,,,,,,,,,,,,,,,,,,,,,,,,,,,,,,,,,,
,,5ddd1dd2b48da3c63a3ccdbb,2022-09-08_14h09.58.238,CGTgamblingSpanTasks,2022.2.1,Win32,15.0060024,,,,,,,,,,,,,,,,,,,,,,,,,,,,,,,,,,,,,,,,,,,,,,,,,,,,,,,,,,,,,,,,,,,,,,,,,,,,,,,,,,"[2,1,8,7,4,6]",1,0,1,0,1,,,,,,,,,,,,,,,,,,,,,,,,,,,,,,,,,,,,,,,,,,,,,,,,
,,5ddd1dd2b48da3c63a3ccdbb,2022-09-08_14h09.58.238,CGTgamblingSpanTasks,2022.2.1,Win32,15.0060024,,,,,,,,,,,,,,,,,,,,,,,,,,,,,,,,,,,,,,,,,,,,,,,,,,,,,,,,,,,,,,,,,,,,,,,,,,,,,,,,,,"[2,1,8,7,4,6]",2,0,2,0,1,,,,,,,,,,,,,,,,,,,,,,,,,,,,,,,,,,,,,,,,,,,,,,,,
,,5ddd1dd2b48da3c63a3ccdbb,2022-09-08_14h09.58.238,CGTgamblingSpanTasks,2022.2.1,Win32,15.0060024,,,,,,,,,,,,,,,,,,,,,,,,,,,,,,,,,,,,,,,,,,,,,,,,,,,,,,,,,,,,,,,,,,,,,,,,,,,,,,,,,,"[2,1,8,7,4,6]",3,0,3,0,1,,,,,,,,,,,,,,,,,,,,,,,,,,,,,,,,,,,,,,,,,,,,,,,,
,,5ddd1dd2b48da3c63a3ccdbb,2022-09-08_14h09.58.238,CGTgamblingSpanTasks,2022.2.1,Win32,15.0060024,,,,,,,,,,,,,,,,,,,,,,,,,,,,,,,,,,,,,,,,,,,,,,,,,,,,,,,,,,,,,,,,,,,,,,,,,,,,,,,,,,"[2,1,8,7,4,6]",4,0,4,0,1,,,,,,,,,,,,,,,,,,,,,,,,,,,,,,,,,,,,,,,,,,,,,,,,
,,5ddd1dd2b48da3c63a3ccdbb,2022-09-08_14h09.58.238,CGTgamblingSpanTasks,2022.2.1,Win32,15.0060024,,,,,,,,,,,,,,,,,,,,,,,,,,,,,,,,,,,,,,,,,,,,,,,,,,,,,,,,,,,,,,,,,,,,,,,,,,,,,,,,,,"[2,1,8,7,4,6]",5,0,5,0,1,,,,,,,,,,,,,,,,,,,,,,,,,,,,,,,,,,,,,,,,,,,,,,,,
,,5ddd1dd2b48da3c63a3ccdbb,2022-09-08_14h09.58.238,CGTgamblingSpanTasks,2022.2.1,Win32,15.0060024,,,,,,,,,,,,,,,,,,,,,,,,,,,,,,,,,,,,,,,,,,,,,,,,,,,,,,,,,,,,,,,1,,,,,,,,,,,,,,,,,,,,,,,,,218746,-0.103703704,-0.417037037,1,0,0,cont_button,0,3,3,3,1,4,,,,,,,,,,,,,,,,,,,,,,,,,,,,,,,,,,,
,,5ddd1dd2b48da3c63a3ccdbb,2022-09-08_14h09.58.238,CGTgamblingSpanTasks,2022.2.1,Win32,15.0060024,,,,,,,,,,,,,,,,,,,,,,,,,,,,,,,,,,,,,,,,,,,,,,,,,,,,,,,,,,,,,,,,,,,,,,,,,,,,,,,,,,"[8,4,1,7,5,3,6]",0,0,0,0,1,,,,,,,,,,,,,,,,,,,,,,,,,,,,,,,,,,,,,,,,,,,,,,,,
,,5ddd1dd2b48da3c63a3ccdbb,2022-09-08_14h09.58.238,CGTgamblingSpanTasks,2022.2.1,Win32,15.0060024,,,,,,,,,,,,,,,,,,,,,,,,,,,,,,,,,,,,,,,,,,,,,,,,,,,,,,,,,,,,,,,,,,,,,,,,,,,,,,,,,,"[8,4,1,7,5,3,6]",1,0,1,0,1,,,,,,,,,,,,,,,,,,,,,,,,,,,,,,,,,,,,,,,,,,,,,,,,
,,5ddd1dd2b48da3c63a3ccdbb,2022-09-08_14h09.58.238,CGTgamblingSpanTasks,2022.2.1,Win32,15.0060024,,,,,,,,,,,,,,,,,,,,,,,,,,,,,,,,,,,,,,,,,,,,,,,,,,,,,,,,,,,,,,,,,,,,,,,,,,,,,,,,,,"[8,4,1,7,5,3,6]",2,0,2,0,1,,,,,,,,,,,,,,,,,,,,,,,,,,,,,,,,,,,,,,,,,,,,,,,,
,,5ddd1dd2b48da3c63a3ccdbb,2022-09-08_14h09.58.238,CGTgamblingSpanTasks,2022.2.1,Win32,15.0060024,,,,,,,,,,,,,,,,,,,,,,,,,,,,,,,,,,,,,,,,,,,,,,,,,,,,,,,,,,,,,,,,,,,,,,,,,,,,,,,,,,"[8,4,1,7,5,3,6]",3,0,3,0,1,,,,,,,,,,,,,,,,,,,,,,,,,,,,,,,,,,,,,,,,,,,,,,,,
,,5ddd1dd2b48da3c63a3ccdbb,2022-09-08_14h09.58.238,CGTgamblingSpanTasks,2022.2.1,Win32,15.0060024,,,,,,,,,,,,,,,,,,,,,,,,,,,,,,,,,,,,,,,,,,,,,,,,,,,,,,,,,,,,,,,,,,,,,,,,,,,,,,,,,,"[8,4,1,7,5,3,6]",4,0,4,0,1,,,,,,,,,,,,,,,,,,,,,,,,,,,,,,,,,,,,,,,,,,,,,,,,
,,5ddd1dd2b48da3c63a3ccdbb,2022-09-08_14h09.58.238,CGTgamblingSpanTasks,2022.2.1,Win32,15.0060024,,,,,,,,,,,,,,,,,,,,,,,,,,,,,,,,,,,,,,,,,,,,,,,,,,,,,,,,,,,,,,,,,,,,,,,,,,,,,,,,,,"[8,4,1,7,5,3,6]",5,0,5,0,1,,,,,,,,,,,,,,,,,,,,,,,,,,,,,,,,,,,,,,,,,,,,,,,,
,,5ddd1dd2b48da3c63a3ccdbb,2022-09-08_14h09.58.238,CGTgamblingSpanTasks,2022.2.1,Win32,15.0060024,,,,,,,,,,,,,,,,,,,,,,,,,,,,,,,,,,,,,,,,,,,,,,,,,,,,,,,,,,,,,,,,,,,,,,,,,,,,,,,,,,"[8,4,1,7,5,3,6]",6,0,6,0,1,,,,,,,,,,,,,,,,,,,,,,,,,,,,,,,,,,,,,,,,,,,,,,,,
,,5ddd1dd2b48da3c63a3ccdbb,2022-09-08_14h09.58.238,CGTgamblingSpanTasks,2022.2.1,Win32,15.0060024,,,,,,,,,,,,,,,,,,,,,,,,,,,,,,,,,,,,,,,,,,,,,,,,,,,,,,,,,,,,,,,1,,,,,,,,,,,,,,,,,,,,,,,,,8417536,-0.014074074,-0.392592593,1,0,0,cont_button,0,4,4,4,1,5,,,,,,,,,,,,,,,,,,,,,,,,,,,,,,,,,,,
,,5ddd1dd2b48da3c63a3ccdbb,2022-09-08_14h09.58.238,CGTgamblingSpanTasks,2022.2.1,Win32,15.0060024,,,,,,,,,,,,,,,,,,,,,,,,,,,,,,,,,,,,,,,,,,,,,,,,,,,,,,,,,,,,,,,,,,,,,,,,,,,,,,,,,,"[4,2,9,1,5,6,8,3]",0,0,0,0,1,,,,,,,,,,,,,,,,,,,,,,,,,,,,,,,,,,,,,,,,,,,,,,,,
,,5ddd1dd2b48da3c63a3ccdbb,2022-09-08_14h09.58.238,CGTgamblingSpanTasks,2022.2.1,Win32,15.0060024,,,,,,,,,,,,,,,,,,,,,,,,,,,,,,,,,,,,,,,,,,,,,,,,,,,,,,,,,,,,,,,,,,,,,,,,,,,,,,,,,,"[4,2,9,1,5,6,8,3]",1,0,1,0,1,,,,,,,,,,,,,,,,,,,,,,,,,,,,,,,,,,,,,,,,,,,,,,,,
,,5ddd1dd2b48da3c63a3ccdbb,2022-09-08_14h09.58.238,CGTgamblingSpanTasks,2022.2.1,Win32,15.0060024,,,,,,,,,,,,,,,,,,,,,,,,,,,,,,,,,,,,,,,,,,,,,,,,,,,,,,,,,,,,,,,,,,,,,,,,,,,,,,,,,,"[4,2,9,1,5,6,8,3]",2,0,2,0,1,,,,,,,,,,,,,,,,,,,,,,,,,,,,,,,,,,,,,,,,,,,,,,,,
,,5ddd1dd2b48da3c63a3ccdbb,2022-09-08_14h09.58.238,CGTgamblingSpanTasks,2022.2.1,Win32,15.0060024,,,,,,,,,,,,,,,,,,,,,,,,,,,,,,,,,,,,,,,,,,,,,,,,,,,,,,,,,,,,,,,,,,,,,,,,,,,,,,,,,,"[4,2,9,1,5,6,8,3]",3,0,3,0,1,,,,,,,,,,,,,,,,,,,,,,,,,,,,,,,,,,,,,,,,,,,,,,,,
,,5ddd1dd2b48da3c63a3ccdbb,2022-09-08_14h09.58.238,CGTgamblingSpanTasks,2022.2.1,Win32,15.0060024,,,,,,,,,,,,,,,,,,,,,,,,,,,,,,,,,,,,,,,,,,,,,,,,,,,,,,,,,,,,,,,,,,,,,,,,,,,,,,,,,,"[4,2,9,1,5,6,8,3]",4,0,4,0,1,,,,,,,,,,,,,,,,,,,,,,,,,,,,,,,,,,,,,,,,,,,,,,,,
,,5ddd1dd2b48da3c63a3ccdbb,2022-09-08_14h09.58.238,CGTgamblingSpanTasks,2022.2.1,Win32,15.0060024,,,,,,,,,,,,,,,,,,,,,,,,,,,,,,,,,,,,,,,,,,,,,,,,,,,,,,,,,,,,,,,,,,,,,,,,,,,,,,,,,,"[4,2,9,1,5,6,8,3]",5,0,5,0,1,,,,,,,,,,,,,,,,,,,,,,,,,,,,,,,,,,,,,,,,,,,,,,,,
,,5ddd1dd2b48da3c63a3ccdbb,2022-09-08_14h09.58.238,CGTgamblingSpanTasks,2022.2.1,Win32,15.0060024,,,,,,,,,,,,,,,,,,,,,,,,,,,,,,,,,,,,,,,,,,,,,,,,,,,,,,,,,,,,,,,,,,,,,,,,,,,,,,,,,,"[4,2,9,1,5,6,8,3]",6,0,6,0,1,,,,,,,,,,,,,,,,,,,,,,,,,,,,,,,,,,,,,,,,,,,,,,,,
,,5ddd1dd2b48da3c63a3ccdbb,2022-09-08_14h09.58.238,CGTgamblingSpanTasks,2022.2.1,Win32,15.0060024,,,,,,,,,,,,,,,,,,,,,,,,,,,,,,,,,,,,,,,,,,,,,,,,,,,,,,,,,,,,,,,,,,,,,,,,,,,,,,,,,,"[4,2,9,1,5,6,8,3]",7,0,7,0,1,,,,,,,,,,,,,,,,,,,,,,,,,,,,,,,,,,,,,,,,,,,,,,,,
,,5ddd1dd2b48da3c63a3ccdbb,2022-09-08_14h09.58.238,CGTgamblingSpanTasks,2022.2.1,Win32,15.0060024,,,,,,,,,,,,,,,,,,,,,,,,,,,,,,,,,,,,,,,,,,,,,,,,,,,,,,,,,,,,,,,1,,,,,,,,,,,,,,,,,,,,,,,,,42915683,-0.002962963,-0.413333333,1,0,0,cont_button,0,5,5,5,1,6,,,,,,,,,,,,,,,,,,,,,,,,,,,,,,,,,,,
,,5ddd1dd2b48da3c63a3ccdbb,2022-09-08_14h09.58.238,CGTgamblingSpanTasks,2022.2.1,Win32,15.0060024,,,,,,,,,,,,,,,,,,,,,,,,,,,,,,,,,,,,,,,,,,,,,,,,,,,,,,,,,,,,,,,,,,,,,,,,,,,,,,,,,,"[7,8,1,4,6,9,5,3,2]",0,0,0,0,1,,,,,,,,,,,,,,,,,,,,,,,,,,,,,,,,,,,,,,,,,,,,,,,,
,,5ddd1dd2b48da3c63a3ccdbb,2022-09-08_14h09.58.238,CGTgamblingSpanTasks,2022.2.1,Win32,15.0060024,,,,,,,,,,,,,,,,,,,,,,,,,,,,,,,,,,,,,,,,,,,,,,,,,,,,,,,,,,,,,,,,,,,,,,,,,,,,,,,,,,"[7,8,1,4,6,9,5,3,2]",1,0,1,0,1,,,,,,,,,,,,,,,,,,,,,,,,,,,,,,,,,,,,,,,,,,,,,,,,
,,5ddd1dd2b48da3c63a3ccdbb,2022-09-08_14h09.58.238,CGTgamblingSpanTasks,2022.2.1,Win32,15.0060024,,,,,,,,,,,,,,,,,,,,,,,,,,,,,,,,,,,,,,,,,,,,,,,,,,,,,,,,,,,,,,,,,,,,,,,,,,,,,,,,,,"[7,8,1,4,6,9,5,3,2]",2,0,2,0,1,,,,,,,,,,,,,,,,,,,,,,,,,,,,,,,,,,,,,,,,,,,,,,,,
,,5ddd1dd2b48da3c63a3ccdbb,2022-09-08_14h09.58.238,CGTgamblingSpanTasks,2022.2.1,Win32,15.0060024,,,,,,,,,,,,,,,,,,,,,,,,,,,,,,,,,,,,,,,,,,,,,,,,,,,,,,,,,,,,,,,,,,,,,,,,,,,,,,,,,,"[7,8,1,4,6,9,5,3,2]",3,0,3,0,1,,,,,,,,,,,,,,,,,,,,,,,,,,,,,,,,,,,,,,,,,,,,,,,,
,,5ddd1dd2b48da3c63a3ccdbb,2022-09-08_14h09.58.238,CGTgamblingSpanTasks,2022.2.1,Win32,15.0060024,,,,,,,,,,,,,,,,,,,,,,,,,,,,,,,,,,,,,,,,,,,,,,,,,,,,,,,,,,,,,,,,,,,,,,,,,,,,,,,,,,"[7,8,1,4,6,9,5,3,2]",4,0,4,0,1,,,,,,,,,,,,,,,,,,,,,,,,,,,,,,,,,,,,,,,,,,,,,,,,
,,5ddd1dd2b48da3c63a3ccdbb,2022-09-08_14h09.58.238,CGTgamblingSpanTasks,2022.2.1,Win32,15.0060024,,,,,,,,,,,,,,,,,,,,,,,,,,,,,,,,,,,,,,,,,,,,,,,,,,,,,,,,,,,,,,,,,,,,,,,,,,,,,,,,,,"[7,8,1,4,6,9,5,3,2]",5,0,5,0,1,,,,,,,,,,,,,,,,,,,,,,,,,,,,,,,,,,,,,,,,,,,,,,,,
,,5ddd1dd2b48da3c63a3ccdbb,2022-09-08_14h09.58.238,CGTgamblingSpanTasks,2022.2.1,Win32,15.0060024,,,,,,,,,,,,,,,,,,,,,,,,,,,,,,,,,,,,,,,,,,,,,,,,,,,,,,,,,,,,,,,,,,,,,,,,,,,,,,,,,,"[7,8,1,4,6,9,5,3,2]",6,0,6,0,1,,,,,,,,,,,,,,,,,,,,,,,,,,,,,,,,,,,,,,,,,,,,,,,,
,,5ddd1dd2b48da3c63a3ccdbb,2022-09-08_14h09.58.238,CGTgamblingSpanTasks,2022.2.1,Win32,15.0060024,,,,,,,,,,,,,,,,,,,,,,,,,,,,,,,,,,,,,,,,,,,,,,,,,,,,,,,,,,,,,,,,,,,,,,,,,,,,,,,,,,"[7,8,1,4,6,9,5,3,2]",7,0,7,0,1,,,,,,,,,,,,,,,,,,,,,,,,,,,,,,,,,,,,,,,,,,,,,,,,
,,5ddd1dd2b48da3c63a3ccdbb,2022-09-08_14h09.58.238,CGTgamblingSpanTasks,2022.2.1,Win32,15.0060024,,,,,,,,,,,,,,,,,,,,,,,,,,,,,,,,,,,,,,,,,,,,,,,,,,,,,,,,,,,,,,,,,,,,,,,,,,,,,,,,,,"[7,8,1,4,6,9,5,3,2]",8,0,8,0,1,,,,,,,,,,,,,,,,,,,,,,,,,,,,,,,,,,,,,,,,,,,,,,,,
,,5ddd1dd2b48da3c63a3ccdbb,2022-09-08_14h09.58.238,CGTgamblingSpanTasks,2022.2.1,Win32,15.0060024,,,,,,,,,,,,,,,,,,,,,,,,,,,,,,,,,,,,,,,,,,,,,,,,,,,,,,,,,,,,,,,1,,,,,,,,,,,,,,,,,,,,,,,,,781469532,0.133333333,-0.391851852,1,0,0,cont_button,0,6,6,6,1,7,,,,,,,,,,,,,,,,,,,,,,,,,,,,,,,,,,,
,,5ddd1dd2b48da3c63a3ccdbb,2022-09-08_14h09.58.238,CGTgamblingSpanTasks,2022.2.1,Win32,15.0060024,,,,,,,,,,,,,,,,,,,,,,,,,,,,,,,,,,,,,,,,,,,,,,,,,,,,,,,,,,,,,,,,,,,,,,,,,,,,,,,,,,"[4,9,8,6,5,3,7,2,1,1]",0,0,0,0,1,,,,,,,,,,,,,,,,,,,,,,,,,,,,,,,,,,,,,,,,,,,,,,,,
,,5ddd1dd2b48da3c63a3ccdbb,2022-09-08_14h09.58.238,CGTgamblingSpanTasks,2022.2.1,Win32,15.0060024,,,,,,,,,,,,,,,,,,,,,,,,,,,,,,,,,,,,,,,,,,,,,,,,,,,,,,,,,,,,,,,,,,,,,,,,,,,,,,,,,,"[4,9,8,6,5,3,7,2,1,1]",1,0,1,0,1,,,,,,,,,,,,,,,,,,,,,,,,,,,,,,,,,,,,,,,,,,,,,,,,
,,5ddd1dd2b48da3c63a3ccdbb,2022-09-08_14h09.58.238,CGTgamblingSpanTasks,2022.2.1,Win32,15.0060024,,,,,,,,,,,,,,,,,,,,,,,,,,,,,,,,,,,,,,,,,,,,,,,,,,,,,,,,,,,,,,,,,,,,,,,,,,,,,,,,,,"[4,9,8,6,5,3,7,2,1,1]",2,0,2,0,1,,,,,,,,,,,,,,,,,,,,,,,,,,,,,,,,,,,,,,,,,,,,,,,,
,,5ddd1dd2b48da3c63a3ccdbb,2022-09-08_14h09.58.238,CGTgamblingSpanTasks,2022.2.1,Win32,15.0060024,,,,,,,,,,,,,,,,,,,,,,,,,,,,,,,,,,,,,,,,,,,,,,,,,,,,,,,,,,,,,,,,,,,,,,,,,,,,,,,,,,"[4,9,8,6,5,3,7,2,1,1]",3,0,3,0,1,,,,,,,,,,,,,,,,,,,,,,,,,,,,,,,,,,,,,,,,,,,,,,,,
,,5ddd1dd2b48da3c63a3ccdbb,2022-09-08_14h09.58.238,CGTgamblingSpanTasks,2022.2.1,Win32,15.0060024,,,,,,,,,,,,,,,,,,,,,,,,,,,,,,,,,,,,,,,,,,,,,,,,,,,,,,,,,,,,,,,,,,,,,,,,,,,,,,,,,,"[4,9,8,6,5,3,7,2,1,1]",4,0,4,0,1,,,,,,,,,,,,,,,,,,,,,,,,,,,,,,,,,,,,,,,,,,,,,,,,
,,5ddd1dd2b48da3c63a3ccdbb,2022-09-08_14h09.58.238,CGTgamblingSpanTasks,2022.2.1,Win32,15.0060024,,,,,,,,,,,,,,,,,,,,,,,,,,,,,,,,,,,,,,,,,,,,,,,,,,,,,,,,,,,,,,,,,,,,,,,,,,,,,,,,,,"[4,9,8,6,5,3,7,2,1,1]",5,0,5,0,1,,,,,,,,,,,,,,,,,,,,,,,,,,,,,,,,,,,,,,,,,,,,,,,,
,,5ddd1dd2b48da3c63a3ccdbb,2022-09-08_14h09.58.238,CGTgamblingSpanTasks,2022.2.1,Win32,15.0060024,,,,,,,,,,,,,,,,,,,,,,,,,,,,,,,,,,,,,,,,,,,,,,,,,,,,,,,,,,,,,,,,,,,,,,,,,,,,,,,,,,"[4,9,8,6,5,3,7,2,1,1]",6,0,6,0,1,,,,,,,,,,,,,,,,,,,,,,,,,,,,,,,,,,,,,,,,,,,,,,,,
,,5ddd1dd2b48da3c63a3ccdbb,2022-09-08_14h09.58.238,CGTgamblingSpanTasks,2022.2.1,Win32,15.0060024,,,,,,,,,,,,,,,,,,,,,,,,,,,,,,,,,,,,,,,,,,,,,,,,,,,,,,,,,,,,,,,,,,,,,,,,,,,,,,,,,,"[4,9,8,6,5,3,7,2,1,1]",7,0,7,0,1,,,,,,,,,,,,,,,,,,,,,,,,,,,,,,,,,,,,,,,,,,,,,,,,
,,5ddd1dd2b48da3c63a3ccdbb,2022-09-08_14h09.58.238,CGTgamblingSpanTasks,2022.2.1,Win32,15.0060024,,,,,,,,,,,,,,,,,,,,,,,,,,,,,,,,,,,,,,,,,,,,,,,,,,,,,,,,,,,,,,,,,,,,,,,,,,,,,,,,,,"[4,9,8,6,5,3,7,2,1,1]",8,0,8,0,1,,,,,,,,,,,,,,,,,,,,,,,,,,,,,,,,,,,,,,,,,,,,,,,,
,,5ddd1dd2b48da3c63a3ccdbb,2022-09-08_14h09.58.238,CGTgamblingSpanTasks,2022.2.1,Win32,15.0060024,,,,,,,,,,,,,,,,,,,,,,,,,,,,,,,,,,,,,,,,,,,,,,,,,,,,,,,,,,,,,,,,,,,,,,,,,,,,,,,,,,"[4,9,8,6,5,3,7,2,1,1]",9,0,9,0,1,,,,,,,,,,,,,,,,,,,,,,,,,,,,,,,,,,,,,,,,,,,,,,,,
,,5ddd1dd2b48da3c63a3ccdbb,2022-09-08_14h09.58.238,CGTgamblingSpanTasks,2022.2.1,Win32,15.0060024,,,,,,,,,,,,,,,,,,,,,,,,,,,,,,,,,,,,,,,,,,,,,,,,,,,,,,,,,,,,,,,1,,,,,,,,,,,,,,,,,,,,,,,,,4986537211,0.014074074,-0.382222222,1,0,0,cont_button,0,7,7,7,1,8,,,,,,,,,,,,,,,,,,,,,,,,,,,,,,,,,,,
,,5ddd1dd2b48da3c63a3ccdbb,2022-09-08_14h09.58.238,CGTgamblingSpanTasks,2022.2.1,Win32,15.0060024,,,,,,,,,,,,,,,,,,,,,,,,,,,,,,,,,,,,,,,,,,,,,,,,,,,,,,,,,,,,,,,,,,,,,,,,,,,,,,,,,,"[8,2,9,6,7,5,3,1,4,4,2]",0,0,0,0,1,,,,,,,,,,,,,,,,,,,,,,,,,,,,,,,,,,,,,,,,,,,,,,,,
,,5ddd1dd2b48da3c63a3ccdbb,2022-09-08_14h09.58.238,CGTgamblingSpanTasks,2022.2.1,Win32,15.0060024,,,,,,,,,,,,,,,,,,,,,,,,,,,,,,,,,,,,,,,,,,,,,,,,,,,,,,,,,,,,,,,,,,,,,,,,,,,,,,,,,,"[8,2,9,6,7,5,3,1,4,4,2]",1,0,1,0,1,,,,,,,,,,,,,,,,,,,,,,,,,,,,,,,,,,,,,,,,,,,,,,,,
,,5ddd1dd2b48da3c63a3ccdbb,2022-09-08_14h09.58.238,CGTgamblingSpanTasks,2022.2.1,Win32,15.0060024,,,,,,,,,,,,,,,,,,,,,,,,,,,,,,,,,,,,,,,,,,,,,,,,,,,,,,,,,,,,,,,,,,,,,,,,,,,,,,,,,,"[8,2,9,6,7,5,3,1,4,4,2]",2,0,2,0,1,,,,,,,,,,,,,,,,,,,,,,,,,,,,,,,,,,,,,,,,,,,,,,,,
,,5ddd1dd2b48da3c63a3ccdbb,2022-09-08_14h09.58.238,CGTgamblingSpanTasks,2022.2.1,Win32,15.0060024,,,,,,,,,,,,,,,,,,,,,,,,,,,,,,,,,,,,,,,,,,,,,,,,,,,,,,,,,,,,,,,,,,,,,,,,,,,,,,,,,,"[8,2,9,6,7,5,3,1,4,4,2]",3,0,3,0,1,,,,,,,,,,,,,,,,,,,,,,,,,,,,,,,,,,,,,,,,,,,,,,,,
,,5ddd1dd2b48da3c63a3ccdbb,2022-09-08_14h09.58.238,CGTgamblingSpanTasks,2022.2.1,Win32,15.0060024,,,,,,,,,,,,,,,,,,,,,,,,,,,,,,,,,,,,,,,,,,,,,,,,,,,,,,,,,,,,,,,,,,,,,,,,,,,,,,,,,,"[8,2,9,6,7,5,3,1,4,4,2]",4,0,4,0,1,,,,,,,,,,,,,,,,,,,,,,,,,,,,,,,,,,,,,,,,,,,,,,,,
,,5ddd1dd2b48da3c63a3ccdbb,2022-09-08_14h09.58.238,CGTgamblingSpanTasks,2022.2.1,Win32,15.0060024,,,,,,,,,,,,,,,,,,,,,,,,,,,,,,,,,,,,,,,,,,,,,,,,,,,,,,,,,,,,,,,,,,,,,,,,,,,,,,,,,,"[8,2,9,6,7,5,3,1,4,4,2]",5,0,5,0,1,,,,,,,,,,,,,,,,,,,,,,,,,,,,,,,,,,,,,,,,,,,,,,,,
,,5ddd1dd2b48da3c63a3ccdbb,2022-09-08_14h09.58.238,CGTgamblingSpanTasks,2022.2.1,Win32,15.0060024,,,,,,,,,,,,,,,,,,,,,,,,,,,,,,,,,,,,,,,,,,,,,,,,,,,,,,,,,,,,,,,,,,,,,,,,,,,,,,,,,,"[8,2,9,6,7,5,3,1,4,4,2]",6,0,6,0,1,,,,,,,,,,,,,,,,,,,,,,,,,,,,,,,,,,,,,,,,,,,,,,,,
,,5ddd1dd2b48da3c63a3ccdbb,2022-09-08_14h09.58.238,CGTgamblingSpanTasks,2022.2.1,Win32,15.0060024,,,,,,,,,,,,,,,,,,,,,,,,,,,,,,,,,,,,,,,,,,,,,,,,,,,,,,,,,,,,,,,,,,,,,,,,,,,,,,,,,,"[8,2,9,6,7,5,3,1,4,4,2]",7,0,7,0,1,,,,,,,,,,,,,,,,,,,,,,,,,,,,,,,,,,,,,,,,,,,,,,,,
,,5ddd1dd2b48da3c63a3ccdbb,2022-09-08_14h09.58.238,CGTgamblingSpanTasks,2022.2.1,Win32,15.0060024,,,,,,,,,,,,,,,,,,,,,,,,,,,,,,,,,,,,,,,,,,,,,,,,,,,,,,,,,,,,,,,,,,,,,,,,,,,,,,,,,,"[8,2,9,6,7,5,3,1,4,4,2]",8,0,8,0,1,,,,,,,,,,,,,,,,,,,,,,,,,,,,,,,,,,,,,,,,,,,,,,,,
,,5ddd1dd2b48da3c63a3ccdbb,2022-09-08_14h09.58.238,CGTgamblingSpanTasks,2022.2.1,Win32,15.0060024,,,,,,,,,,,,,,,,,,,,,,,,,,,,,,,,,,,,,,,,,,,,,,,,,,,,,,,,,,,,,,,,,,,,,,,,,,,,,,,,,,"[8,2,9,6,7,5,3,1,4,4,2]",9,0,9,0,1,,,,,,,,,,,,,,,,,,,,,,,,,,,,,,,,,,,,,,,,,,,,,,,,
,,5ddd1dd2b48da3c63a3ccdbb,2022-09-08_14h09.58.238,CGTgamblingSpanTasks,2022.2.1,Win32,15.0060024,,,,,,,,,,,,,,,,,,,,,,,,,,,,,,,,,,,,,,,,,,,,,,,,,,,,,,,,,,,,,,,,,,,,,,,,,,,,,,,,,,"[8,2,9,6,7,5,3,1,4,4,2]",10,0,10,0,1,,,,,,,,,,,,,,,,,,,,,,,,,,,,,,,,,,,,,,,,,,,,,,,,
,,5ddd1dd2b48da3c63a3ccdbb,2022-09-08_14h09.58.238,CGTgamblingSpanTasks,2022.2.1,Win32,15.0060024,,,,,,,,,,,,,,,,,,,,,,,,,,,,,,,,,,,,,,,,,,,,,,,,,,,,,,,,,,,,,,,1,,,,,,,,,,,,,,,,,,,,,,,,,82967531442,0.022962963,-0.40962963,1,0,0,cont_button,0,8,8,8,1,9,,,,,,,,,,,,,,,,,,,,,,,,,,,,,,,,,,,
,,5ddd1dd2b48da3c63a3ccdbb,2022-09-08_14h09.58.238,CGTgamblingSpanTasks,2022.2.1,Win32,15.0060024,,,,,,,,,,,,,,,,,,,,,,,,,,,,,,,,,,,,,,,,,,,,,,,,,,,,,,,,,,,,,,,,,,,,,,,,,,,,,,,,,,"[5,4,8,6,2,7,1,3,9,9,5,3]",0,0,0,0,1,,,,,,,,,,,,,,,,,,,,,,,,,,,,,,,,,,,,,,,,,,,,,,,,
,,5ddd1dd2b48da3c63a3ccdbb,2022-09-08_14h09.58.238,CGTgamblingSpanTasks,2022.2.1,Win32,15.0060024,,,,,,,,,,,,,,,,,,,,,,,,,,,,,,,,,,,,,,,,,,,,,,,,,,,,,,,,,,,,,,,,,,,,,,,,,,,,,,,,,,"[5,4,8,6,2,7,1,3,9,9,5,3]",1,0,1,0,1,,,,,,,,,,,,,,,,,,,,,,,,,,,,,,,,,,,,,,,,,,,,,,,,
,,5ddd1dd2b48da3c63a3ccdbb,2022-09-08_14h09.58.238,CGTgamblingSpanTasks,2022.2.1,Win32,15.0060024,,,,,,,,,,,,,,,,,,,,,,,,,,,,,,,,,,,,,,,,,,,,,,,,,,,,,,,,,,,,,,,,,,,,,,,,,,,,,,,,,,"[5,4,8,6,2,7,1,3,9,9,5,3]",2,0,2,0,1,,,,,,,,,,,,,,,,,,,,,,,,,,,,,,,,,,,,,,,,,,,,,,,,
,,5ddd1dd2b48da3c63a3ccdbb,2022-09-08_14h09.58.238,CGTgamblingSpanTasks,2022.2.1,Win32,15.0060024,,,,,,,,,,,,,,,,,,,,,,,,,,,,,,,,,,,,,,,,,,,,,,,,,,,,,,,,,,,,,,,,,,,,,,,,,,,,,,,,,,"[5,4,8,6,2,7,1,3,9,9,5,3]",3,0,3,0,1,,,,,,,,,,,,,,,,,,,,,,,,,,,,,,,,,,,,,,,,,,,,,,,,
,,5ddd1dd2b48da3c63a3ccdbb,2022-09-08_14h09.58.238,CGTgamblingSpanTasks,2022.2.1,Win32,15.0060024,,,,,,,,,,,,,,,,,,,,,,,,,,,,,,,,,,,,,,,,,,,,,,,,,,,,,,,,,,,,,,,,,,,,,,,,,,,,,,,,,,"[5,4,8,6,2,7,1,3,9,9,5,3]",4,0,4,0,1,,,,,,,,,,,,,,,,,,,,,,,,,,,,,,,,,,,,,,,,,,,,,,,,
,,5ddd1dd2b48da3c63a3ccdbb,2022-09-08_14h09.58.238,CGTgamblingSpanTasks,2022.2.1,Win32,15.0060024,,,,,,,,,,,,,,,,,,,,,,,,,,,,,,,,,,,,,,,,,,,,,,,,,,,,,,,,,,,,,,,,,,,,,,,,,,,,,,,,,,"[5,4,8,6,2,7,1,3,9,9,5,3]",5,0,5,0,1,,,,,,,,,,,,,,,,,,,,,,,,,,,,,,,,,,,,,,,,,,,,,,,,
,,5ddd1dd2b48da3c63a3ccdbb,2022-09-08_14h09.58.238,CGTgamblingSpanTasks,2022.2.1,Win32,15.0060024,,,,,,,,,,,,,,,,,,,,,,,,,,,,,,,,,,,,,,,,,,,,,,,,,,,,,,,,,,,,,,,,,,,,,,,,,,,,,,,,,,"[5,4,8,6,2,7,1,3,9,9,5,3]",6,0,6,0,1,,,,,,,,,,,,,,,,,,,,,,,,,,,,,,,,,,,,,,,,,,,,,,,,
,,5ddd1dd2b48da3c63a3ccdbb,2022-09-08_14h09.58.238,CGTgamblingSpanTasks,2022.2.1,Win32,15.0060024,,,,,,,,,,,,,,,,,,,,,,,,,,,,,,,,,,,,,,,,,,,,,,,,,,,,,,,,,,,,,,,,,,,,,,,,,,,,,,,,,,"[5,4,8,6,2,7,1,3,9,9,5,3]",7,0,7,0,1,,,,,,,,,,,,,,,,,,,,,,,,,,,,,,,,,,,,,,,,,,,,,,,,
,,5ddd1dd2b48da3c63a3ccdbb,2022-09-08_14h09.58.238,CGTgamblingSpanTasks,2022.2.1,Win32,15.0060024,,,,,,,,,,,,,,,,,,,,,,,,,,,,,,,,,,,,,,,,,,,,,,,,,,,,,,,,,,,,,,,,,,,,,,,,,,,,,,,,,,"[5,4,8,6,2,7,1,3,9,9,5,3]",8,0,8,0,1,,,,,,,,,,,,,,,,,,,,,,,,,,,,,,,,,,,,,,,,,,,,,,,,
,,5ddd1dd2b48da3c63a3ccdbb,2022-09-08_14h09.58.238,CGTgamblingSpanTasks,2022.2.1,Win32,15.0060024,,,,,,,,,,,,,,,,,,,,,,,,,,,,,,,,,,,,,,,,,,,,,,,,,,,,,,,,,,,,,,,,,,,,,,,,,,,,,,,,,,"[5,4,8,6,2,7,1,3,9,9,5,3]",9,0,9,0,1,,,,,,,,,,,,,,,,,,,,,,,,,,,,,,,,,,,,,,,,,,,,,,,,
,,5ddd1dd2b48da3c63a3ccdbb,2022-09-08_14h09.58.238,CGTgamblingSpanTasks,2022.2.1,Win32,15.0060024,,,,,,,,,,,,,,,,,,,,,,,,,,,,,,,,,,,,,,,,,,,,,,,,,,,,,,,,,,,,,,,,,,,,,,,,,,,,,,,,,,"[5,4,8,6,2,7,1,3,9,9,5,3]",10,0,10,0,1,,,,,,,,,,,,,,,,,,,,,,,,,,,,,,,,,,,,,,,,,,,,,,,,
,,5ddd1dd2b48da3c63a3ccdbb,2022-09-08_14h09.58.238,CGTgamblingSpanTasks,2022.2.1,Win32,15.0060024,,,,,,,,,,,,,,,,,,,,,,,,,,,,,,,,,,,,,,,,,,,,,,,,,,,,,,,,,,,,,,,,,,,,,,,,,,,,,,,,,,"[5,4,8,6,2,7,1,3,9,9,5,3]",11,0,11,0,1,,,,,,,,,,,,,,,,,,,,,,,,,,,,,,,,,,,,,,,,,,,,,,,,
,,5ddd1dd2b48da3c63a3ccdbb,2022-09-08_14h09.58.238,CGTgamblingSpanTasks,2022.2.1,Win32,15.0060024,,,,,,,,,,,,,,,,,,,,,,,,,,,,,,,,,,,,,,,,,,,,,,,,,,,,,,,,,,,,,,,1,,,,,,,,,,,,,,,,,,,,,,,,,548627139953,0.05037037,-0.38962963,1,0,0,cont_button,0,9,9,9,1,10,,,,,,,,,,,,,,,,,,,,,,,,,,,,,,,,,,,
,,5ddd1dd2b48da3c63a3ccdbb,2022-09-08_14h09.58.238,CGTgamblingSpanTasks,2022.2.1,Win32,15.0060024,,,,,,,,,,,,,,,,,,,,,,,,,,,,,,,,,,,,,,,,,,,,,,,,,,,,,,,,,,,,,,,,,,,,,,,,,,,,,,,,,,"[5,7,9,3,8,4,2,6,1,1,9,6,5]",0,0,0,0,1,,,,,,,,,,,,,,,,,,,,,,,,,,,,,,,,,,,,,,,,,,,,,,,,
,,5ddd1dd2b48da3c63a3ccdbb,2022-09-08_14h09.58.238,CGTgamblingSpanTasks,2022.2.1,Win32,15.0060024,,,,,,,,,,,,,,,,,,,,,,,,,,,,,,,,,,,,,,,,,,,,,,,,,,,,,,,,,,,,,,,,,,,,,,,,,,,,,,,,,,"[5,7,9,3,8,4,2,6,1,1,9,6,5]",1,0,1,0,1,,,,,,,,,,,,,,,,,,,,,,,,,,,,,,,,,,,,,,,,,,,,,,,,
,,5ddd1dd2b48da3c63a3ccdbb,2022-09-08_14h09.58.238,CGTgamblingSpanTasks,2022.2.1,Win32,15.0060024,,,,,,,,,,,,,,,,,,,,,,,,,,,,,,,,,,,,,,,,,,,,,,,,,,,,,,,,,,,,,,,,,,,,,,,,,,,,,,,,,,"[5,7,9,3,8,4,2,6,1,1,9,6,5]",2,0,2,0,1,,,,,,,,,,,,,,,,,,,,,,,,,,,,,,,,,,,,,,,,,,,,,,,,
,,5ddd1dd2b48da3c63a3ccdbb,2022-09-08_14h09.58.238,CGTgamblingSpanTasks,2022.2.1,Win32,15.0060024,,,,,,,,,,,,,,,,,,,,,,,,,,,,,,,,,,,,,,,,,,,,,,,,,,,,,,,,,,,,,,,,,,,,,,,,,,,,,,,,,,"[5,7,9,3,8,4,2,6,1,1,9,6,5]",3,0,3,0,1,,,,,,,,,,,,,,,,,,,,,,,,,,,,,,,,,,,,,,,,,,,,,,,,
,,5ddd1dd2b48da3c63a3ccdbb,2022-09-08_14h09.58.238,CGTgamblingSpanTasks,2022.2.1,Win32,15.0060024,,,,,,,,,,,,,,,,,,,,,,,,,,,,,,,,,,,,,,,,,,,,,,,,,,,,,,,,,,,,,,,,,,,,,,,,,,,,,,,,,,"[5,7,9,3,8,4,2,6,1,1,9,6,5]",4,0,4,0,1,,,,,,,,,,,,,,,,,,,,,,,,,,,,,,,,,,,,,,,,,,,,,,,,
,,5ddd1dd2b48da3c63a3ccdbb,2022-09-08_14h09.58.238,CGTgamblingSpanTasks,2022.2.1,Win32,15.0060024,,,,,,,,,,,,,,,,,,,,,,,,,,,,,,,,,,,,,,,,,,,,,,,,,,,,,,,,,,,,,,,,,,,,,,,,,,,,,,,,,,"[5,7,9,3,8,4,2,6,1,1,9,6,5]",5,0,5,0,1,,,,,,,,,,,,,,,,,,,,,,,,,,,,,,,,,,,,,,,,,,,,,,,,
,,5ddd1dd2b48da3c63a3ccdbb,2022-09-08_14h09.58.238,CGTgamblingSpanTasks,2022.2.1,Win32,15.0060024,,,,,,,,,,,,,,,,,,,,,,,,,,,,,,,,,,,,,,,,,,,,,,,,,,,,,,,,,,,,,,,,,,,,,,,,,,,,,,,,,,"[5,7,9,3,8,4,2,6,1,1,9,6,5]",6,0,6,0,1,,,,,,,,,,,,,,,,,,,,,,,,,,,,,,,,,,,,,,,,,,,,,,,,
,,5ddd1dd2b48da3c63a3ccdbb,2022-09-08_14h09.58.238,CGTgamblingSpanTasks,2022.2.1,Win32,15.0060024,,,,,,,,,,,,,,,,,,,,,,,,,,,,,,,,,,,,,,,,,,,,,,,,,,,,,,,,,,,,,,,,,,,,,,,,,,,,,,,,,,"[5,7,9,3,8,4,2,6,1,1,9,6,5]",7,0,7,0,1,,,,,,,,,,,,,,,,,,,,,,,,,,,,,,,,,,,,,,,,,,,,,,,,
,,5ddd1dd2b48da3c63a3ccdbb,2022-09-08_14h09.58.238,CGTgamblingSpanTasks,2022.2.1,Win32,15.0060024,,,,,,,,,,,,,,,,,,,,,,,,,,,,,,,,,,,,,,,,,,,,,,,,,,,,,,,,,,,,,,,,,,,,,,,,,,,,,,,,,,"[5,7,9,3,8,4,2,6,1,1,9,6,5]",8,0,8,0,1,,,,,,,,,,,,,,,,,,,,,,,,,,,,,,,,,,,,,,,,,,,,,,,,
,,5ddd1dd2b48da3c63a3ccdbb,2022-09-08_14h09.58.238,CGTgamblingSpanTasks,2022.2.1,Win32,15.0060024,,,,,,,,,,,,,,,,,,,,,,,,,,,,,,,,,,,,,,,,,,,,,,,,,,,,,,,,,,,,,,,,,,,,,,,,,,,,,,,,,,"[5,7,9,3,8,4,2,6,1,1,9,6,5]",9,0,9,0,1,,,,,,,,,,,,,,,,,,,,,,,,,,,,,,,,,,,,,,,,,,,,,,,,
,,5ddd1dd2b48da3c63a3ccdbb,2022-09-08_14h09.58.238,CGTgamblingSpanTasks,2022.2.1,Win32,15.0060024,,,,,,,,,,,,,,,,,,,,,,,,,,,,,,,,,,,,,,,,,,,,,,,,,,,,,,,,,,,,,,,,,,,,,,,,,,,,,,,,,,"[5,7,9,3,8,4,2,6,1,1,9,6,5]",10,0,10,0,1,,,,,,,,,,,,,,,,,,,,,,,,,,,,,,,,,,,,,,,,,,,,,,,,
,,5ddd1dd2b48da3c63a3ccdbb,2022-09-08_14h09.58.238,CGTgamblingSpanTasks,2022.2.1,Win32,15.0060024,,,,,,,,,,,,,,,,,,,,,,,,,,,,,,,,,,,,,,,,,,,,,,,,,,,,,,,,,,,,,,,,,,,,,,,,,,,,,,,,,,"[5,7,9,3,8,4,2,6,1,1,9,6,5]",11,0,11,0,1,,,,,,,,,,,,,,,,,,,,,,,,,,,,,,,,,,,,,,,,,,,,,,,,
,,5ddd1dd2b48da3c63a3ccdbb,2022-09-08_14h09.58.238,CGTgamblingSpanTasks,2022.2.1,Win32,15.0060024,,,,,,,,,,,,,,,,,,,,,,,,,,,,,,,,,,,,,,,,,,,,,,,,,,,,,,,,,,,,,,,,,,,,,,,,,,,,,,,,,,"[5,7,9,3,8,4,2,6,1,1,9,6,5]",12,0,12,0,1,,,,,,,,,,,,,,,,,,,,,,,,,,,,,,,,,,,,,,,,,,,,,,,,
,,5ddd1dd2b48da3c63a3ccdbb,2022-09-08_14h09.58.238,CGTgamblingSpanTasks,2022.2.1,Win32,15.0060024,,,,,,,,,,,,,,,,,,,,,,,,,,,,,,,,,,,,,,,,,,,,,,,,,,,,,,,,,,,,,,,1,,,,,,,,,,,,,,,,,,,,,,,,,5793842611965,0.055555556,-0.408148148,1,0,0,cont_button,0,10,10,10,1,11,,,,,,,,,,,,,,,,,,,,,,,,,,,,,,,,,,,
,,5ddd1dd2b48da3c63a3ccdbb,2022-09-08_14h09.58.238,CGTgamblingSpanTasks,2022.2.1,Win32,15.0060024,,,,,,,,,,,,,,,,,,,,,,,,,,,,,,,,,,,,,,,,,,,,,,,,,,,,,,,,,,,,,,,,,,,,,,,,,,,,,,,,,,"[2,1,3,9,4,6,8,7,5,5,4,6,9,7]",0,0,0,0,1,,,,,,,,,,,,,,,,,,,,,,,,,,,,,,,,,,,,,,,,,,,,,,,,
,,5ddd1dd2b48da3c63a3ccdbb,2022-09-08_14h09.58.238,CGTgamblingSpanTasks,2022.2.1,Win32,15.0060024,,,,,,,,,,,,,,,,,,,,,,,,,,,,,,,,,,,,,,,,,,,,,,,,,,,,,,,,,,,,,,,,,,,,,,,,,,,,,,,,,,"[2,1,3,9,4,6,8,7,5,5,4,6,9,7]",1,0,1,0,1,,,,,,,,,,,,,,,,,,,,,,,,,,,,,,,,,,,,,,,,,,,,,,,,
,,5ddd1dd2b48da3c63a3ccdbb,2022-09-08_14h09.58.238,CGTgamblingSpanTasks,2022.2.1,Win32,15.0060024,,,,,,,,,,,,,,,,,,,,,,,,,,,,,,,,,,,,,,,,,,,,,,,,,,,,,,,,,,,,,,,,,,,,,,,,,,,,,,,,,,"[2,1,3,9,4,6,8,7,5,5,4,6,9,7]",2,0,2,0,1,,,,,,,,,,,,,,,,,,,,,,,,,,,,,,,,,,,,,,,,,,,,,,,,
,,5ddd1dd2b48da3c63a3ccdbb,2022-09-08_14h09.58.238,CGTgamblingSpanTasks,2022.2.1,Win32,15.0060024,,,,,,,,,,,,,,,,,,,,,,,,,,,,,,,,,,,,,,,,,,,,,,,,,,,,,,,,,,,,,,,,,,,,,,,,,,,,,,,,,,"[2,1,3,9,4,6,8,7,5,5,4,6,9,7]",3,0,3,0,1,,,,,,,,,,,,,,,,,,,,,,,,,,,,,,,,,,,,,,,,,,,,,,,,
,,5ddd1dd2b48da3c63a3ccdbb,2022-09-08_14h09.58.238,CGTgamblingSpanTasks,2022.2.1,Win32,15.0060024,,,,,,,,,,,,,,,,,,,,,,,,,,,,,,,,,,,,,,,,,,,,,,,,,,,,,,,,,,,,,,,,,,,,,,,,,,,,,,,,,,"[2,1,3,9,4,6,8,7,5,5,4,6,9,7]",4,0,4,0,1,,,,,,,,,,,,,,,,,,,,,,,,,,,,,,,,,,,,,,,,,,,,,,,,
,,5ddd1dd2b48da3c63a3ccdbb,2022-09-08_14h09.58.238,CGTgamblingSpanTasks,2022.2.1,Win32,15.0060024,,,,,,,,,,,,,,,,,,,,,,,,,,,,,,,,,,,,,,,,,,,,,,,,,,,,,,,,,,,,,,,,,,,,,,,,,,,,,,,,,,"[2,1,3,9,4,6,8,7,5,5,4,6,9,7]",5,0,5,0,1,,,,,,,,,,,,,,,,,,,,,,,,,,,,,,,,,,,,,,,,,,,,,,,,
,,5ddd1dd2b48da3c63a3ccdbb,2022-09-08_14h09.58.238,CGTgamblingSpanTasks,2022.2.1,Win32,15.0060024,,,,,,,,,,,,,,,,,,,,,,,,,,,,,,,,,,,,,,,,,,,,,,,,,,,,,,,,,,,,,,,,,,,,,,,,,,,,,,,,,,"[2,1,3,9,4,6,8,7,5,5,4,6,9,7]",6,0,6,0,1,,,,,,,,,,,,,,,,,,,,,,,,,,,,,,,,,,,,,,,,,,,,,,,,
,,5ddd1dd2b48da3c63a3ccdbb,2022-09-08_14h09.58.238,CGTgamblingSpanTasks,2022.2.1,Win32,15.0060024,,,,,,,,,,,,,,,,,,,,,,,,,,,,,,,,,,,,,,,,,,,,,,,,,,,,,,,,,,,,,,,,,,,,,,,,,,,,,,,,,,"[2,1,3,9,4,6,8,7,5,5,4,6,9,7]",7,0,7,0,1,,,,,,,,,,,,,,,,,,,,,,,,,,,,,,,,,,,,,,,,,,,,,,,,
,,5ddd1dd2b48da3c63a3ccdbb,2022-09-08_14h09.58.238,CGTgamblingSpanTasks,2022.2.1,Win32,15.0060024,,,,,,,,,,,,,,,,,,,,,,,,,,,,,,,,,,,,,,,,,,,,,,,,,,,,,,,,,,,,,,,,,,,,,,,,,,,,,,,,,,"[2,1,3,9,4,6,8,7,5,5,4,6,9,7]",8,0,8,0,1,,,,,,,,,,,,,,,,,,,,,,,,,,,,,,,,,,,,,,,,,,,,,,,,
,,5ddd1dd2b48da3c63a3ccdbb,2022-09-08_14h09.58.238,CGTgamblingSpanTasks,2022.2.1,Win32,15.0060024,,,,,,,,,,,,,,,,,,,,,,,,,,,,,,,,,,,,,,,,,,,,,,,,,,,,,,,,,,,,,,,,,,,,,,,,,,,,,,,,,,"[2,1,3,9,4,6,8,7,5,5,4,6,9,7]",9,0,9,0,1,,,,,,,,,,,,,,,,,,,,,,,,,,,,,,,,,,,,,,,,,,,,,,,,
,,5ddd1dd2b48da3c63a3ccdbb,2022-09-08_14h09.58.238,CGTgamblingSpanTasks,2022.2.1,Win32,15.0060024,,,,,,,,,,,,,,,,,,,,,,,,,,,,,,,,,,,,,,,,,,,,,,,,,,,,,,,,,,,,,,,,,,,,,,,,,,,,,,,,,,"[2,1,3,9,4,6,8,7,5,5,4,6,9,7]",10,0,10,0,1,,,,,,,,,,,,,,,,,,,,,,,,,,,,,,,,,,,,,,,,,,,,,,,,
,,5ddd1dd2b48da3c63a3ccdbb,2022-09-08_14h09.58.238,CGTgamblingSpanTasks,2022.2.1,Win32,15.0060024,,,,,,,,,,,,,,,,,,,,,,,,,,,,,,,,,,,,,,,,,,,,,,,,,,,,,,,,,,,,,,,,,,,,,,,,,,,,,,,,,,"[2,1,3,9,4,6,8,7,5,5,4,6,9,7]",11,0,11,0,1,,,,,,,,,,,,,,,,,,,,,,,,,,,,,,,,,,,,,,,,,,,,,,,,
,,5ddd1dd2b48da3c63a3ccdbb,2022-09-08_14h09.58.238,CGTgamblingSpanTasks,2022.2.1,Win32,15.0060024,,,,,,,,,,,,,,,,,,,,,,,,,,,,,,,,,,,,,,,,,,,,,,,,,,,,,,,,,,,,,,,,,,,,,,,,,,,,,,,,,,"[2,1,3,9,4,6,8,7,5,5,4,6,9,7]",12,0,12,0,1,,,,,,,,,,,,,,,,,,,,,,,,,,,,,,,,,,,,,,,,,,,,,,,,
,,5ddd1dd2b48da3c63a3ccdbb,2022-09-08_14h09.58.238,CGTgamblingSpanTasks,2022.2.1,Win32,15.0060024,,,,,,,,,,,,,,,,,,,,,,,,,,,,,,,,,,,,,,,,,,,,,,,,,,,,,,,,,,,,,,,,,,,,,,,,,,,,,,,,,,"[2,1,3,9,4,6,8,7,5,5,4,6,9,7]",13,0,13,0,1,,,,,,,,,,,,,,,,,,,,,,,,,,,,,,,,,,,,,,,,,,,,,,,,
,,5ddd1dd2b48da3c63a3ccdbb,2022-09-08_14h09.58.238,CGTgamblingSpanTasks,2022.2.1,Win32,15.0060024,,,,,,,,,,,,,,,,,,,,,,,,,,,,,,,,,,,,,,,,,,,,,,,,,,,,,,,,,,,,,,,1,,,,,,,,,,,,,,,,,,,,,,,,,21394687554697,0.000740741,-0.432592593,1,0,0,cont_button,0,11,11,11,1,12,,,,,,,,,,,,,,,,,,,,,,,,,,,,,,,,,,,
,,5ddd1dd2b48da3c63a3ccdbb,2022-09-08_14h09.58.238,CGTgamblingSpanTasks,2022.2.1,Win32,15.0060024,,,,,,,,,,,,,,,,,,,,,,,,,,,,,,,,,,,,,,,,,,,,,,,,,,,,,,,,,,,,,,,,,,,,,,,,,,,,,,,,,,"[3,9,6,5,7,1,2,4,8,8,3,6,9,1,7]",0,0,0,0,1,,,,,,,,,,,,,,,,,,,,,,,,,,,,,,,,,,,,,,,,,,,,,,,,
,,5ddd1dd2b48da3c63a3ccdbb,2022-09-08_14h09.58.238,CGTgamblingSpanTasks,2022.2.1,Win32,15.0060024,,,,,,,,,,,,,,,,,,,,,,,,,,,,,,,,,,,,,,,,,,,,,,,,,,,,,,,,,,,,,,,,,,,,,,,,,,,,,,,,,,"[3,9,6,5,7,1,2,4,8,8,3,6,9,1,7]",1,0,1,0,1,,,,,,,,,,,,,,,,,,,,,,,,,,,,,,,,,,,,,,,,,,,,,,,,
,,5ddd1dd2b48da3c63a3ccdbb,2022-09-08_14h09.58.238,CGTgamblingSpanTasks,2022.2.1,Win32,15.0060024,,,,,,,,,,,,,,,,,,,,,,,,,,,,,,,,,,,,,,,,,,,,,,,,,,,,,,,,,,,,,,,,,,,,,,,,,,,,,,,,,,"[3,9,6,5,7,1,2,4,8,8,3,6,9,1,7]",2,0,2,0,1,,,,,,,,,,,,,,,,,,,,,,,,,,,,,,,,,,,,,,,,,,,,,,,,
,,5ddd1dd2b48da3c63a3ccdbb,2022-09-08_14h09.58.238,CGTgamblingSpanTasks,2022.2.1,Win32,15.0060024,,,,,,,,,,,,,,,,,,,,,,,,,,,,,,,,,,,,,,,,,,,,,,,,,,,,,,,,,,,,,,,,,,,,,,,,,,,,,,,,,,"[3,9,6,5,7,1,2,4,8,8,3,6,9,1,7]",3,0,3,0,1,,,,,,,,,,,,,,,,,,,,,,,,,,,,,,,,,,,,,,,,,,,,,,,,
,,5ddd1dd2b48da3c63a3ccdbb,2022-09-08_14h09.58.238,CGTgamblingSpanTasks,2022.2.1,Win32,15.0060024,,,,,,,,,,,,,,,,,,,,,,,,,,,,,,,,,,,,,,,,,,,,,,,,,,,,,,,,,,,,,,,,,,,,,,,,,,,,,,,,,,"[3,9,6,5,7,1,2,4,8,8,3,6,9,1,7]",4,0,4,0,1,,,,,,,,,,,,,,,,,,,,,,,,,,,,,,,,,,,,,,,,,,,,,,,,
,,5ddd1dd2b48da3c63a3ccdbb,2022-09-08_14h09.58.238,CGTgamblingSpanTasks,2022.2.1,Win32,15.0060024,,,,,,,,,,,,,,,,,,,,,,,,,,,,,,,,,,,,,,,,,,,,,,,,,,,,,,,,,,,,,,,,,,,,,,,,,,,,,,,,,,"[3,9,6,5,7,1,2,4,8,8,3,6,9,1,7]",5,0,5,0,1,,,,,,,,,,,,,,,,,,,,,,,,,,,,,,,,,,,,,,,,,,,,,,,,
,,5ddd1dd2b48da3c63a3ccdbb,2022-09-08_14h09.58.238,CGTgamblingSpanTasks,2022.2.1,Win32,15.0060024,,,,,,,,,,,,,,,,,,,,,,,,,,,,,,,,,,,,,,,,,,,,,,,,,,,,,,,,,,,,,,,,,,,,,,,,,,,,,,,,,,"[3,9,6,5,7,1,2,4,8,8,3,6,9,1,7]",6,0,6,0,1,,,,,,,,,,,,,,,,,,,,,,,,,,,,,,,,,,,,,,,,,,,,,,,,
,,5ddd1dd2b48da3c63a3ccdbb,2022-09-08_14h09.58.238,CGTgamblingSpanTasks,2022.2.1,Win32,15.0060024,,,,,,,,,,,,,,,,,,,,,,,,,,,,,,,,,,,,,,,,,,,,,,,,,,,,,,,,,,,,,,,,,,,,,,,,,,,,,,,,,,"[3,9,6,5,7,1,2,4,8,8,3,6,9,1,7]",7,0,7,0,1,,,,,,,,,,,,,,,,,,,,,,,,,,,,,,,,,,,,,,,,,,,,,,,,
,,5ddd1dd2b48da3c63a3ccdbb,2022-09-08_14h09.58.238,CGTgamblingSpanTasks,2022.2.1,Win32,15.0060024,,,,,,,,,,,,,,,,,,,,,,,,,,,,,,,,,,,,,,,,,,,,,,,,,,,,,,,,,,,,,,,,,,,,,,,,,,,,,,,,,,"[3,9,6,5,7,1,2,4,8,8,3,6,9,1,7]",8,0,8,0,1,,,,,,,,,,,,,,,,,,,,,,,,,,,,,,,,,,,,,,,,,,,,,,,,
,,5ddd1dd2b48da3c63a3ccdbb,2022-09-08_14h09.58.238,CGTgamblingSpanTasks,2022.2.1,Win32,15.0060024,,,,,,,,,,,,,,,,,,,,,,,,,,,,,,,,,,,,,,,,,,,,,,,,,,,,,,,,,,,,,,,,,,,,,,,,,,,,,,,,,,"[3,9,6,5,7,1,2,4,8,8,3,6,9,1,7]",9,0,9,0,1,,,,,,,,,,,,,,,,,,,,,,,,,,,,,,,,,,,,,,,,,,,,,,,,
,,5ddd1dd2b48da3c63a3ccdbb,2022-09-08_14h09.58.238,CGTgamblingSpanTasks,2022.2.1,Win32,15.0060024,,,,,,,,,,,,,,,,,,,,,,,,,,,,,,,,,,,,,,,,,,,,,,,,,,,,,,,,,,,,,,,,,,,,,,,,,,,,,,,,,,"[3,9,6,5,7,1,2,4,8,8,3,6,9,1,7]",10,0,10,0,1,,,,,,,,,,,,,,,,,,,,,,,,,,,,,,,,,,,,,,,,,,,,,,,,
,,5ddd1dd2b48da3c63a3ccdbb,2022-09-08_14h09.58.238,CGTgamblingSpanTasks,2022.2.1,Win32,15.0060024,,,,,,,,,,,,,,,,,,,,,,,,,,,,,,,,,,,,,,,,,,,,,,,,,,,,,,,,,,,,,,,,,,,,,,,,,,,,,,,,,,"[3,9,6,5,7,1,2,4,8,8,3,6,9,1,7]",11,0,11,0,1,,,,,,,,,,,,,,,,,,,,,,,,,,,,,,,,,,,,,,,,,,,,,,,,
,,5ddd1dd2b48da3c63a3ccdbb,2022-09-08_14h09.58.238,CGTgamblingSpanTasks,2022.2.1,Win32,15.0060024,,,,,,,,,,,,,,,,,,,,,,,,,,,,,,,,,,,,,,,,,,,,,,,,,,,,,,,,,,,,,,,,,,,,,,,,,,,,,,,,,,"[3,9,6,5,7,1,2,4,8,8,3,6,9,1,7]",12,0,12,0,1,,,,,,,,,,,,,,,,,,,,,,,,,,,,,,,,,,,,,,,,,,,,,,,,
,,5ddd1dd2b48da3c63a3ccdbb,2022-09-08_14h09.58.238,CGTgamblingSpanTasks,2022.2.1,Win32,15.0060024,,,,,,,,,,,,,,,,,,,,,,,,,,,,,,,,,,,,,,,,,,,,,,,,,,,,,,,,,,,,,,,,,,,,,,,,,,,,,,,,,,"[3,9,6,5,7,1,2,4,8,8,3,6,9,1,7]",13,0,13,0,1,,,,,,,,,,,,,,,,,,,,,,,,,,,,,,,,,,,,,,,,,,,,,,,,
,,5ddd1dd2b48da3c63a3ccdbb,2022-09-08_14h09.58.238,CGTgamblingSpanTasks,2022.2.1,Win32,15.0060024,,,,,,,,,,,,,,,,,,,,,,,,,,,,,,,,,,,,,,,,,,,,,,,,,,,,,,,,,,,,,,,,,,,,,,,,,,,,,,,,,,"[3,9,6,5,7,1,2,4,8,8,3,6,9,1,7]",14,0,14,0,1,,,,,,,,,,,,,,,,,,,,,,,,,,,,,,,,,,,,,,,,,,,,,,,,
,,5ddd1dd2b48da3c63a3ccdbb,2022-09-08_14h09.58.238,CGTgamblingSpanTasks,2022.2.1,Win32,15.0060024,,,,,,,,,,,,,,,,,,,,,,,,,,,,,,,,,,,,,,,,,,,,,,,,,,,,,,,,,,,,,,,0,,,,,,,,,,,,,,,,,,,,,,,,,3965712448836917,-0.074074074,-0.402962963,1,0,0,cont_button,0,12,12,12,1,13,,,,,,,,,,,,,,,,,,,,,,,,,,,,,,,,,,,
,,5ddd1dd2b48da3c63a3ccdbb,2022-09-08_14h09.58.238,CGTgamblingSpanTasks,2022.2.1,Win32,15.0060024,,,,,,,,,,,,,,,,,,,,,,,,,,,,,,,,,,,,,,,,,,,,,,,,,,,,,,,,,,,,,,,,,,,,,,,,,,,,,,,,,,"[5,3,6,2,9,4,8,7,1,1,6,4,9,3,7]",0,0,0,0,1,,,,,,,,,,,,,,,,,,,,,,,,,,,,,,,,,,,,,,,,,,,,,,,,
,,5ddd1dd2b48da3c63a3ccdbb,2022-09-08_14h09.58.238,CGTgamblingSpanTasks,2022.2.1,Win32,15.0060024,,,,,,,,,,,,,,,,,,,,,,,,,,,,,,,,,,,,,,,,,,,,,,,,,,,,,,,,,,,,,,,,,,,,,,,,,,,,,,,,,,"[5,3,6,2,9,4,8,7,1,1,6,4,9,3,7]",1,0,1,0,1,,,,,,,,,,,,,,,,,,,,,,,,,,,,,,,,,,,,,,,,,,,,,,,,
,,5ddd1dd2b48da3c63a3ccdbb,2022-09-08_14h09.58.238,CGTgamblingSpanTasks,2022.2.1,Win32,15.0060024,,,,,,,,,,,,,,,,,,,,,,,,,,,,,,,,,,,,,,,,,,,,,,,,,,,,,,,,,,,,,,,,,,,,,,,,,,,,,,,,,,"[5,3,6,2,9,4,8,7,1,1,6,4,9,3,7]",2,0,2,0,1,,,,,,,,,,,,,,,,,,,,,,,,,,,,,,,,,,,,,,,,,,,,,,,,
,,5ddd1dd2b48da3c63a3ccdbb,2022-09-08_14h09.58.238,CGTgamblingSpanTasks,2022.2.1,Win32,15.0060024,,,,,,,,,,,,,,,,,,,,,,,,,,,,,,,,,,,,,,,,,,,,,,,,,,,,,,,,,,,,,,,,,,,,,,,,,,,,,,,,,,"[5,3,6,2,9,4,8,7,1,1,6,4,9,3,7]",3,0,3,0,1,,,,,,,,,,,,,,,,,,,,,,,,,,,,,,,,,,,,,,,,,,,,,,,,
,,5ddd1dd2b48da3c63a3ccdbb,2022-09-08_14h09.58.238,CGTgamblingSpanTasks,2022.2.1,Win32,15.0060024,,,,,,,,,,,,,,,,,,,,,,,,,,,,,,,,,,,,,,,,,,,,,,,,,,,,,,,,,,,,,,,,,,,,,,,,,,,,,,,,,,"[5,3,6,2,9,4,8,7,1,1,6,4,9,3,7]",4,0,4,0,1,,,,,,,,,,,,,,,,,,,,,,,,,,,,,,,,,,,,,,,,,,,,,,,,
,,5ddd1dd2b48da3c63a3ccdbb,2022-09-08_14h09.58.238,CGTgamblingSpanTasks,2022.2.1,Win32,15.0060024,,,,,,,,,,,,,,,,,,,,,,,,,,,,,,,,,,,,,,,,,,,,,,,,,,,,,,,,,,,,,,,,,,,,,,,,,,,,,,,,,,"[5,3,6,2,9,4,8,7,1,1,6,4,9,3,7]",5,0,5,0,1,,,,,,,,,,,,,,,,,,,,,,,,,,,,,,,,,,,,,,,,,,,,,,,,
,,5ddd1dd2b48da3c63a3ccdbb,2022-09-08_14h09.58.238,CGTgamblingSpanTasks,2022.2.1,Win32,15.0060024,,,,,,,,,,,,,,,,,,,,,,,,,,,,,,,,,,,,,,,,,,,,,,,,,,,,,,,,,,,,,,,,,,,,,,,,,,,,,,,,,,"[5,3,6,2,9,4,8,7,1,1,6,4,9,3,7]",6,0,6,0,1,,,,,,,,,,,,,,,,,,,,,,,,,,,,,,,,,,,,,,,,,,,,,,,,
,,5ddd1dd2b48da3c63a3ccdbb,2022-09-08_14h09.58.238,CGTgamblingSpanTasks,2022.2.1,Win32,15.0060024,,,,,,,,,,,,,,,,,,,,,,,,,,,,,,,,,,,,,,,,,,,,,,,,,,,,,,,,,,,,,,,,,,,,,,,,,,,,,,,,,,"[5,3,6,2,9,4,8,7,1,1,6,4,9,3,7]",7,0,7,0,1,,,,,,,,,,,,,,,,,,,,,,,,,,,,,,,,,,,,,,,,,,,,,,,,
,,5ddd1dd2b48da3c63a3ccdbb,2022-09-08_14h09.58.238,CGTgamblingSpanTasks,2022.2.1,Win32,15.0060024,,,,,,,,,,,,,,,,,,,,,,,,,,,,,,,,,,,,,,,,,,,,,,,,,,,,,,,,,,,,,,,,,,,,,,,,,,,,,,,,,,"[5,3,6,2,9,4,8,7,1,1,6,4,9,3,7]",8,0,8,0,1,,,,,,,,,,,,,,,,,,,,,,,,,,,,,,,,,,,,,,,,,,,,,,,,
,,5ddd1dd2b48da3c63a3ccdbb,2022-09-08_14h09.58.238,CGTgamblingSpanTasks,2022.2.1,Win32,15.0060024,,,,,,,,,,,,,,,,,,,,,,,,,,,,,,,,,,,,,,,,,,,,,,,,,,,,,,,,,,,,,,,,,,,,,,,,,,,,,,,,,,"[5,3,6,2,9,4,8,7,1,1,6,4,9,3,7]",9,0,9,0,1,,,,,,,,,,,,,,,,,,,,,,,,,,,,,,,,,,,,,,,,,,,,,,,,
,,5ddd1dd2b48da3c63a3ccdbb,2022-09-08_14h09.58.238,CGTgamblingSpanTasks,2022.2.1,Win32,15.0060024,,,,,,,,,,,,,,,,,,,,,,,,,,,,,,,,,,,,,,,,,,,,,,,,,,,,,,,,,,,,,,,,,,,,,,,,,,,,,,,,,,"[5,3,6,2,9,4,8,7,1,1,6,4,9,3,7]",10,0,10,0,1,,,,,,,,,,,,,,,,,,,,,,,,,,,,,,,,,,,,,,,,,,,,,,,,
,,5ddd1dd2b48da3c63a3ccdbb,2022-09-08_14h09.58.238,CGTgamblingSpanTasks,2022.2.1,Win32,15.0060024,,,,,,,,,,,,,,,,,,,,,,,,,,,,,,,,,,,,,,,,,,,,,,,,,,,,,,,,,,,,,,,,,,,,,,,,,,,,,,,,,,"[5,3,6,2,9,4,8,7,1,1,6,4,9,3,7]",11,0,11,0,1,,,,,,,,,,,,,,,,,,,,,,,,,,,,,,,,,,,,,,,,,,,,,,,,
,,5ddd1dd2b48da3c63a3ccdbb,2022-09-08_14h09.58.238,CGTgamblingSpanTasks,2022.2.1,Win32,15.0060024,,,,,,,,,,,,,,,,,,,,,,,,,,,,,,,,,,,,,,,,,,,,,,,,,,,,,,,,,,,,,,,,,,,,,,,,,,,,,,,,,,"[5,3,6,2,9,4,8,7,1,1,6,4,9,3,7]",12,0,12,0,1,,,,,,,,,,,,,,,,,,,,,,,,,,,,,,,,,,,,,,,,,,,,,,,,
,,5ddd1dd2b48da3c63a3ccdbb,2022-09-08_14h09.58.238,CGTgamblingSpanTasks,2022.2.1,Win32,15.0060024,,,,,,,,,,,,,,,,,,,,,,,,,,,,,,,,,,,,,,,,,,,,,,,,,,,,,,,,,,,,,,,,,,,,,,,,,,,,,,,,,,"[5,3,6,2,9,4,8,7,1,1,6,4,9,3,7]",13,0,13,0,1,,,,,,,,,,,,,,,,,,,,,,,,,,,,,,,,,,,,,,,,,,,,,,,,
,,5ddd1dd2b48da3c63a3ccdbb,2022-09-08_14h09.58.238,CGTgamblingSpanTasks,2022.2.1,Win32,15.0060024,,,,,,,,,,,,,,,,,,,,,,,,,,,,,,,,,,,,,,,,,,,,,,,,,,,,,,,,,,,,,,,,,,,,,,,,,,,,,,,,,,"[5,3,6,2,9,4,8,7,1,1,6,4,9,3,7]",14,0,14,0,1,,,,,,,,,,,,,,,,,,,,,,,,,,,,,,,,,,,,,,,,,,,,,,,,
,,5ddd1dd2b48da3c63a3ccdbb,2022-09-08_14h09.58.238,CGTgamblingSpanTasks,2022.2.1,Win32,15.0060024,,,,,,,,,,,,,,,,,,,,,,,,,,,,,,,,,,,,,,,,,,,,,,,,,,,,,,,,,,,,,,,1,,,,,,,,,,,,,,,,,,,,,,,,,536294871164937,-0.044444444,-0.402962963,1,0,0,cont_button,0,13,13,13,1,14,,,,,,,,,,,,,,,,,,,,,,,,,,,,,,,,,,,
,,5ddd1dd2b48da3c63a3ccdbb,2022-09-08_14h09.58.238,CGTgamblingSpanTasks,2022.2.1,Win32,15.0060024,,,,,,,,,,,,,,,,,,,,,,,,,,,,,,,,,,,,,,,,,,,,,,,,,,,,,,,,,,,,,,,,,,,,,,,,,,,,,,,,,,,,,,,,,,,,,,,,,,,,,return,38.601,,,,,,,,,,,,,,,,,,,,,,,,,,,,,,,,,
,,5ddd1dd2b48da3c63a3ccdbb,2022-09-08_14h09.58.238,CGTgamblingSpanTasks,2022.2.1,Win32,15.0060024,,,,,,,,,,,,,,,,,,,,,,,,,,,,,,,,,,,,,,,,,,,,,,,,,,,,,,,,,,,,,,,,,,,,,,,,,,,,,,,,,,,,,,,,,,,,,,,,,,,,,,,return,61.129,,,,,,,,,,,,,,,,,,,,,,,,,,,,,,,
,,5ddd1dd2b48da3c63a3ccdbb,2022-09-08_14h09.58.238,CGTgamblingSpanTasks,2022.2.1,Win32,15.0060024,,,,,,,,,,,,,,,,,,,,,,,,,,,,,,,,,,,,,,,,,,,,,,,,,,,,,,,,,,,,,,,1,,,,,,,,,,,,3,342,24,2,42,,,,,,,,,,,,,,,,,,,,,,,,,,42,-0.025185185,-0.38962963,1,0,0,cont_buttonPractice_2,0,0,0,0,1,,,,,,,,,,,,,,,,,,,
,,5ddd1dd2b48da3c63a3ccdbb,2022-09-08_14h09.58.238,CGTgamblingSpanTasks,2022.2.1,Win32,15.0060024,,,,,,,,,,,,,,,,,,,,,,,,,,,,,,,,,,,,,,,,,,,,,,,,,,,,,,,,,,,,,,,1,,,,,,,,,,,,3,937,73,2,37,,,,,,,,,,,,,,,,,,,,,,,,,,37,-0.067407407,-0.38962963,1,0,0,cont_buttonPractice_2,0,1,1,1,1,,,,,,,,,,,,,,,,,,,
,,5ddd1dd2b48da3c63a3ccdbb,2022-09-08_14h09.58.238,CGTgamblingSpanTasks,2022.2.1,Win32,15.0060024,,,,,,,,,,,,,,,,,,,,,,,,,,,,,,,,,,,,,,,,,,,,,,,,,,,,,,,,,,,,,,,,,,,,,,,,,,,,,,,,,,,,,,,,,,,,,,,,,,,,,,,,,,,,,,,,,,,,,return,35.481,,,,,,,,,,,,,,,,,
,,5ddd1dd2b48da3c63a3ccdbb,2022-09-08_14h09.58.238,CGTgamblingSpanTasks,2022.2.1,Win32,15.0060024,,,,,,,,,,,,,,,,,,,,,,,,,,,,,,,,,,,,,,,,,,,,,,,,,,,,,,,,,,,,,,,,,,,,,,,,,,,,,,,,,,"[6,8]",,,,,,,,,,,,,,,,,,,,,,,,,,,,,,,,,,,,,0,0,0,0,1,,,,,,,,,,,,
,,5ddd1dd2b48da3c63a3ccdbb,2022-09-08_14h09.58.238,CGTgamblingSpanTasks,2022.2.1,Win32,15.0060024,,,,,,,,,,,,,,,,,,,,,,,,,,,,,,,,,,,,,,,,,,,,,,,,,,,,,,,,,,,,,,,,,,,,,,,,,,,,,,,,,,"[6,8]",,,,,,,,,,,,,,,,,,,,,,,,,,,,,,,,,,,,,1,0,1,0,1,,,,,,,,,,,,
,,5ddd1dd2b48da3c63a3ccdbb,2022-09-08_14h09.58.238,CGTgamblingSpanTasks,2022.2.1,Win32,15.0060024,,,,,,,,,,,,,,,,,,,,,,,,,,,,,,,,,,,,,,,,,,,,,,,,,,,,,,,,,,,,,,,1,,,,,,,,,,,,,,,,,,,,,,,,,,,,,,,,,,,,,1,,,,,,,,,,,,,,,,,,,,,,,,86,-0.044444444,-0.424444444,1,0,0,cont_buttonBS,0,0,0,0,1
,,5ddd1dd2b48da3c63a3ccdbb,2022-09-08_14h09.58.238,CGTgamblingSpanTasks,2022.2.1,Win32,15.0060024,,,,,,,,,,,,,,,,,,,,,,,,,,,,,,,,,,,,,,,,,,,,,,,,,,,,,,,,,,,,,,,,,,,,,,,,,,,,,,,,,,"[6,1,2]",,,,,,,,,,,,,,,,,,,,,,,,,,,,,,,,,,,,,0,0,0,0,1,,,,,,,,,,,,
,,5ddd1dd2b48da3c63a3ccdbb,2022-09-08_14h09.58.238,CGTgamblingSpanTasks,2022.2.1,Win32,15.0060024,,,,,,,,,,,,,,,,,,,,,,,,,,,,,,,,,,,,,,,,,,,,,,,,,,,,,,,,,,,,,,,,,,,,,,,,,,,,,,,,,,"[6,1,2]",,,,,,,,,,,,,,,,,,,,,,,,,,,,,,,,,,,,,1,0,1,0,1,,,,,,,,,,,,
,,5ddd1dd2b48da3c63a3ccdbb,2022-09-08_14h09.58.238,CGTgamblingSpanTasks,2022.2.1,Win32,15.0060024,,,,,,,,,,,,,,,,,,,,,,,,,,,,,,,,,,,,,,,,,,,,,,,,,,,,,,,,,,,,,,,,,,,,,,,,,,,,,,,,,,"[6,1,2]",,,,,,,,,,,,,,,,,,,,,,,,,,,,,,,,,,,,,2,0,2,0,1,,,,,,,,,,,,
,,5ddd1dd2b48da3c63a3ccdbb,2022-09-08_14h09.58.238,CGTgamblingSpanTasks,2022.2.1,Win32,15.0060024,,,,,,,,,,,,,,,,,,,,,,,,,,,,,,,,,,,,,,,,,,,,,,,,,,,,,,,,,,,,,,,1,,,,,,,,,,,,,,,,,,,,,,,,,,,,,,,,,,,,,2,,,,,,,,,,,,,,,,,,,,,,,,216,0.017777778,-0.40962963,1,0,0,cont_buttonBS,0,1,1,1,1
,,5ddd1dd2b48da3c63a3ccdbb,2022-09-08_14h09.58.238,CGTgamblingSpanTasks,2022.2.1,Win32,15.0060024,,,,,,,,,,,,,,,,,,,,,,,,,,,,,,,,,,,,,,,,,,,,,,,,,,,,,,,,,,,,,,,,,,,,,,,,,,,,,,,,,,"[4,5,9,7]",,,,,,,,,,,,,,,,,,,,,,,,,,,,,,,,,,,,,0,0,0,0,1,,,,,,,,,,,,
