initITIstatic,initITIdynamic,participant,date,expName,psychopyVersion,OS,frameRate,inst1.keys,inst1.rt,startPracResp.keys,startPracResp.rt,choice1.keys,choice1.rt,outcome,extraITI,trials.thisRepN,trials.thisTrialN,trials.thisN,trials.thisIndex,trials.ran,riskyGain,riskyLoss,alternative,isi,iti,loc,postPractResp.keys,postPractResp.rt,realloc,realChoice.keys,realChoice.rt,outcomes,choices,actualITI,init ITI,staticRDM.thisRepN,staticRDM.thisTrialN,staticRDM.thisN,staticRDM.thisIndex,staticRDM.ran,riskyoption1,riskyoption2,safeoption,ischecktrial,dynamicChoiceSetName,dynamicChoiceSetPath,bestRho,bestMu,trials_2.thisRepN,trials_2.thisTrialN,trials_2.thisN,trials_2.thisIndex,trials_2.ran,key_resp.keys,key_resp.rt,dynamicRDM.thisRepN,dynamicRDM.thisTrialN,dynamicRDM.thisN,dynamicRDM.thisIndex,dynamicRDM.ran,choiceP,easy0difficult1,stopBreak.keys,stopBreak.rt,movealong.keys,movealong.rt,startPractice.keys,startPractice.rt,textboxPractice.text,correct,mousePractice.x,mousePractice.y,mousePractice.leftButton,mousePractice.midButton,mousePractice.rightButton,mousePractice.clicked_name,trialFSPractice.thisRepN,trialFSPractice.thisTrialN,trialFSPractice.thisN,trialFSPractice.thisIndex,trialFSPractice.ran,digitSpanForward,digits,digitsReverse,digitSpanReverse,digitsReverseCorrAnswer,startFSreal.keys,startFSreal.rt,digitsForTrial,digitLoop.thisRepN,digitLoop.thisTrialN,digitLoop.thisN,digitLoop.thisIndex,digitLoop.ran,textbox.text,mouse_3.x,mouse_3.y,mouse_3.leftButton,mouse_3.midButton,mouse_3.rightButton,mouse_3.clicked_name,trialsFS.thisRepN,trialsFS.thisTrialN,trialsFS.thisN,trialsFS.thisIndex,trialsFS.ran,trialNumber,moveToBS.keys,moveToBS.rt,startBSprac.keys,startBSprac.rt,textboxPractice_2.text,mousePractice_2.x,mousePractice_2.y,mousePractice_2.leftButton,mousePractice_2.midButton,mousePractice_2.rightButton,mousePractice_2.clicked_name,trialsPracticeBS.thisRepN,trialsPracticeBS.thisTrialN,trialsPracticeBS.thisN,trialsPracticeBS.thisIndex,trialsPracticeBS.ran,startBSreal.keys,startBSreal.rt,digitLoopBS.thisRepN,digitLoopBS.thisTrialN,digitLoopBS.thisN,digitLoopBS.thisIndex,digitLoopBS.ran,textboxBS.text,mouseBS.x,mouseBS.y,mouseBS.leftButton,mouseBS.midButton,mouseBS.rightButton,mouseBS.clicked_name,trialsBS.thisRepN,trialsBS.thisTrialN,trialsBS.thisN,trialsBS.thisIndex,trialsBS.ran
"[1.5,1,1,1,1.5,1.5,1.5,1,1.5,1.5,1.5,1.5,1,1.5,1.5,1,1,1.5,1,1.5,1,1.5,1,1.5,1.5,1,1.5,1.5,1,1,1.5,1.5,1,1,1,1.5,1,1.5,1,1.5,1,1,1.5,1,1,1,1,1,1.5,1.5]","[1,1,1.5,1,1,1.5,1.5,1,1.5,1.5,1.5,1,1.5,1.5,1,1.5,1,1,1.5,1,1.5,1,1.5,1.5,1.5,1.5,1,1,1,1,1.5,1.5,1,1.5,1.5,1.5,1.5,1.5,1.5,1,1.5,1,1.5,1,1.5,1,1,1,1.5,1,1.5,1.5,1,1,1,1.5,1.5,1.5,1,1.5,1.5,1,1.5,1,1.5,1.5,1.5,1,1.5,1.5,1.5,1.5,1.5,1,1.5,1,1,1.5,1,1.5,1,1,1,1,1,1,1,1,1,1.5,1.5,1.5,1.5,1,1.5,1,1.5,1,1.5,1,1,1.5,1,1,1,1,1,1,1,1,1.5,1.5,1,1.5,1,1.5,1,1.5,1,1.5]",5ebb96b6cd673a0008ace9ce,2022-09-08_13h16.51.800,CGTgamblingSpanTasks,2022.2.1,Win32,60.0240096,,,,,,,,,,,,,,,,,,,,,,,,,,,,,,,,,,,,,,,,,,,,,,,,,,,,,,,,,,,,,,,,,,,,,,,,,,,,,,,,,,,,,,,,,,,,,,,,,,,,,,,,,,,,,,,,,,,,,,,,,,,,,,,,,,,,,,,
,,5ebb96b6cd673a0008ace9ce,2022-09-08_13h16.51.800,CGTgamblingSpanTasks,2022.2.1,Win32,60.0240096,return,7.959,,,,,,,,,,,,,,,,,,,,,,,,,,,,,,,,,,,,,,,,,,,,,,,,,,,,,,,,,,,,,,,,,,,,,,,,,,,,,,,,,,,,,,,,,,,,,,,,,,,,,,,,,,,,,,,,,,,,,,,,,,,,,,,,,,,,,
,,5ebb96b6cd673a0008ace9ce,2022-09-08_13h16.51.800,CGTgamblingSpanTasks,2022.2.1,Win32,60.0240096,,,v,3.028,,,,,,,,,,,,,,,,,,,,,,,,,,,,,,,,,,,,,,,,,,,,,,,,,,,,,,,,,,,,,,,,,,,,,,,,,,,,,,,,,,,,,,,,,,,,,,,,,,,,,,,,,,,,,,,,,,,,,,,,,,,,,,,,,,,
,,5ebb96b6cd673a0008ace9ce,2022-09-08_13h16.51.800,CGTgamblingSpanTasks,2022.2.1,Win32,60.0240096,,,,,n,2.252,9.45,1.748,0,0,0,0,1,18.23,0,9.45,2,1,1,,,,,,,,,,,,,,,,,,,,,,,,,,,,,,,,,,,,,,,,,,,,,,,,,,,,,,,,,,,,,,,,,,,,,,,,,,,,,,,,,,,,,,,,,,,,,,,,,,,,,,,,,,,,,,,,,,,,
,,5ebb96b6cd673a0008ace9ce,2022-09-08_13h16.51.800,CGTgamblingSpanTasks,2022.2.1,Win32,60.0240096,,,,,v,1.934,0,2.066,0,1,1,1,1,53.27,0,35.16,1,1.5,1,,,,,,,,,,,,,,,,,,,,,,,,,,,,,,,,,,,,,,,,,,,,,,,,,,,,,,,,,,,,,,,,,,,,,,,,,,,,,,,,,,,,,,,,,,,,,,,,,,,,,,,,,,,,,,,,,,,,
,,5ebb96b6cd673a0008ace9ce,2022-09-08_13h16.51.800,CGTgamblingSpanTasks,2022.2.1,Win32,60.0240096,,,,,n,1.484,8.27,2.516,0,2,2,2,1,8.27,0,1.15,1,1.5,2,,,,,,,,,,,,,,,,,,,,,,,,,,,,,,,,,,,,,,,,,,,,,,,,,,,,,,,,,,,,,,,,,,,,,,,,,,,,,,,,,,,,,,,,,,,,,,,,,,,,,,,,,,,,,,,,,,,,
,,5ebb96b6cd673a0008ace9ce,2022-09-08_13h16.51.800,CGTgamblingSpanTasks,2022.2.1,Win32,60.0240096,,,,,n,1.553,40.41,2.447,0,3,3,3,1,45.88,0,40.41,3,1,1,,,,,,,,,,,,,,,,,,,,,,,,,,,,,,,,,,,,,,,,,,,,,,,,,,,,,,,,,,,,,,,,,,,,,,,,,,,,,,,,,,,,,,,,,,,,,,,,,,,,,,,,,,,,,,,,,,,,
,,5ebb96b6cd673a0008ace9ce,2022-09-08_13h16.51.800,CGTgamblingSpanTasks,2022.2.1,Win32,60.0240096,,,,,v,2.003,11.96,1.997,0,4,4,4,1,21.56,0,11.96,1,1.5,2,,,,,,,,,,,,,,,,,,,,,,,,,,,,,,,,,,,,,,,,,,,,,,,,,,,,,,,,,,,,,,,,,,,,,,,,,,,,,,,,,,,,,,,,,,,,,,,,,,,,,,,,,,,,,,,,,,,,
,,5ebb96b6cd673a0008ace9ce,2022-09-08_13h16.51.800,CGTgamblingSpanTasks,2022.2.1,Win32,60.0240096,,,,,,,,,,,,,,,,,,,,v,2.835,,,,,,,,,,,,,,,,,,,,,,,,,,,,,,,,,,,,,,,,,,,,,,,,,,,,,,,,,,,,,,,,,,,,,,,,,,,,,,,,,,,,,,,,,,,,,,,,,,,,,,,,,,,,,,,,,,
,,5ebb96b6cd673a0008ace9ce,2022-09-08_13h16.51.800,CGTgamblingSpanTasks,2022.2.1,Win32,60.0240096,,,,,,,,2.357,,,,,,,,,,,,,,2,v,1.643,6.81,0,3.857,1.5,0,0,0,34,1,10.39,0,6.81,0,,,,,,,,,,,,,,,,,,,,,,,,,,,,,,,,,,,,,,,,,,,,,,,,,,,,,,,,,,,,,,,,,,,,,,,,,,,,,,,,,,,,,,,,,,,,,,,,,,
,,5ebb96b6cd673a0008ace9ce,2022-09-08_13h16.51.800,CGTgamblingSpanTasks,2022.2.1,Win32,60.0240096,,,,,,,,2.595,,,,,,,,,,,,,,1,v,1.405,0,1,3.595,1,0,1,1,16,1,12.36,0,5.82,0,,,,,,,,,,,,,,,,,,,,,,,,,,,,,,,,,,,,,,,,,,,,,,,,,,,,,,,,,,,,,,,,,,,,,,,,,,,,,,,,,,,,,,,,,,,,,,,,,,
,,5ebb96b6cd673a0008ace9ce,2022-09-08_13h16.51.800,CGTgamblingSpanTasks,2022.2.1,Win32,60.0240096,,,,,,,,2.184,,,,,,,,,,,,,,1,v,1.816,12.08,1,3.184,1,0,2,2,18,1,12.08,0,5.96,0,,,,,,,,,,,,,,,,,,,,,,,,,,,,,,,,,,,,,,,,,,,,,,,,,,,,,,,,,,,,,,,,,,,,,,,,,,,,,,,,,,,,,,,,,,,,,,,,,,
,,5ebb96b6cd673a0008ace9ce,2022-09-08_13h16.51.800,CGTgamblingSpanTasks,2022.2.1,Win32,60.0240096,,,,,,,,2.769,,,,,,,,,,,,,,1,n,1.231,6.08,0,3.769,1,0,3,3,20,1,11.84,0,6.08,0,,,,,,,,,,,,,,,,,,,,,,,,,,,,,,,,,,,,,,,,,,,,,,,,,,,,,,,,,,,,,,,,,,,,,,,,,,,,,,,,,,,,,,,,,,,,,,,,,,
,,5ebb96b6cd673a0008ace9ce,2022-09-08_13h16.51.800,CGTgamblingSpanTasks,2022.2.1,Win32,60.0240096,,,,,,,,2.511,,,,,,,,,,,,,,2,n,1.489,10.35,1,4.011,1.5,0,4,4,40,1,10.35,0,0,1,,,,,,,,,,,,,,,,,,,,,,,,,,,,,,,,,,,,,,,,,,,,,,,,,,,,,,,,,,,,,,,,,,,,,,,,,,,,,,,,,,,,,,,,,,,,,,,,,,
,,5ebb96b6cd673a0008ace9ce,2022-09-08_13h16.51.800,CGTgamblingSpanTasks,2022.2.1,Win32,60.0240096,,,,,,,,2.221,,,,,,,,,,,,,,1,n,1.779,6.29,0,3.721,1.5,0,5,5,24,1,11.43,0,6.29,0,,,,,,,,,,,,,,,,,,,,,,,,,,,,,,,,,,,,,,,,,,,,,,,,,,,,,,,,,,,,,,,,,,,,,,,,,,,,,,,,,,,,,,,,,,,,,,,,,,
,,5ebb96b6cd673a0008ace9ce,2022-09-08_13h16.51.800,CGTgamblingSpanTasks,2022.2.1,Win32,60.0240096,,,,,,,,2.953,,,,,,,,,,,,,,1,v,1.047,18.33,1,4.453,1.5,0,6,6,17,1,18.33,0,8.84,0,,,,,,,,,,,,,,,,,,,,,,,,,,,,,,,,,,,,,,,,,,,,,,,,,,,,,,,,,,,,,,,,,,,,,,,,,,,,,,,,,,,,,,,,,,,,,,,,,,
,,5ebb96b6cd673a0008ace9ce,2022-09-08_13h16.51.800,CGTgamblingSpanTasks,2022.2.1,Win32,60.0240096,,,,,,,,2.865,,,,,,,,,,,,,,1,n,1.135,8.61,0,3.865,1,0,7,7,15,1,18.77,0,8.61,0,,,,,,,,,,,,,,,,,,,,,,,,,,,,,,,,,,,,,,,,,,,,,,,,,,,,,,,,,,,,,,,,,,,,,,,,,,,,,,,,,,,,,,,,,,,,,,,,,,
,,5ebb96b6cd673a0008ace9ce,2022-09-08_13h16.51.800,CGTgamblingSpanTasks,2022.2.1,Win32,60.0240096,,,,,,,,3.017,,,,,,,,,,,,,,2,n,0.983,13.94,1,4.517,1.5,0,8,8,8,1,13.94,0,5.03,0,,,,,,,,,,,,,,,,,,,,,,,,,,,,,,,,,,,,,,,,,,,,,,,,,,,,,,,,,,,,,,,,,,,,,,,,,,,,,,,,,,,,,,,,,,,,,,,,,,
,,5ebb96b6cd673a0008ace9ce,2022-09-08_13h16.51.800,CGTgamblingSpanTasks,2022.2.1,Win32,60.0240096,,,,,,,,3.17,,,,,,,,,,,,,,2,n,0.83,0,1,4.67,1.5,0,9,9,41,1,14.26,0,0,1,,,,,,,,,,,,,,,,,,,,,,,,,,,,,,,,,,,,,,,,,,,,,,,,,,,,,,,,,,,,,,,,,,,,,,,,,,,,,,,,,,,,,,,,,,,,,,,,,,
,,5ebb96b6cd673a0008ace9ce,2022-09-08_13h16.51.800,CGTgamblingSpanTasks,2022.2.1,Win32,60.0240096,,,,,,,,2.96,,,,,,,,,,,,,,2,n,1.04,0,1,4.46,1.5,0,10,10,7,1,21.32,0,7.34,0,,,,,,,,,,,,,,,,,,,,,,,,,,,,,,,,,,,,,,,,,,,,,,,,,,,,,,,,,,,,,,,,,,,,,,,,,,,,,,,,,,,,,,,,,,,,,,,,,,
,,5ebb96b6cd673a0008ace9ce,2022-09-08_13h16.51.800,CGTgamblingSpanTasks,2022.2.1,Win32,60.0240096,,,,,,,,2.851,,,,,,,,,,,,,,2,v,1.149,6.63,0,4.351,1.5,0,11,11,30,1,10.73,0,6.63,0,,,,,,,,,,,,,,,,,,,,,,,,,,,,,,,,,,,,,,,,,,,,,,,,,,,,,,,,,,,,,,,,,,,,,,,,,,,,,,,,,,,,,,,,,,,,,,,,,,
,,5ebb96b6cd673a0008ace9ce,2022-09-08_13h16.51.800,CGTgamblingSpanTasks,2022.2.1,Win32,60.0240096,,,,,,,,2.788,,,,,,,,,,,,,,1,v,1.212,0,1,3.788,1,0,12,12,31,1,15.96,0,10.02,0,,,,,,,,,,,,,,,,,,,,,,,,,,,,,,,,,,,,,,,,,,,,,,,,,,,,,,,,,,,,,,,,,,,,,,,,,,,,,,,,,,,,,,,,,,,,,,,,,,
,,5ebb96b6cd673a0008ace9ce,2022-09-08_13h16.51.800,CGTgamblingSpanTasks,2022.2.1,Win32,60.0240096,,,,,,,,3.008,,,,,,,,,,,,,,1,n,0.992,9.2,0,4.508,1.5,0,13,13,21,1,17.59,0,9.2,0,,,,,,,,,,,,,,,,,,,,,,,,,,,,,,,,,,,,,,,,,,,,,,,,,,,,,,,,,,,,,,,,,,,,,,,,,,,,,,,,,,,,,,,,,,,,,,,,,,
,,5ebb96b6cd673a0008ace9ce,2022-09-08_13h16.51.800,CGTgamblingSpanTasks,2022.2.1,Win32,60.0240096,,,,,,,,2.974,,,,,,,,,,,,,,1,v,1.026,20.53,1,4.474,1.5,0,14,14,9,1,20.53,0,7.73,0,,,,,,,,,,,,,,,,,,,,,,,,,,,,,,,,,,,,,,,,,,,,,,,,,,,,,,,,,,,,,,,,,,,,,,,,,,,,,,,,,,,,,,,,,,,,,,,,,,
,,5ebb96b6cd673a0008ace9ce,2022-09-08_13h16.51.800,CGTgamblingSpanTasks,2022.2.1,Win32,60.0240096,,,,,,,,2.623,,,,,,,,,,,,,,1,v,1.377,0,1,3.623,1,0,15,15,39,1,15.09,0,10.46,0,,,,,,,,,,,,,,,,,,,,,,,,,,,,,,,,,,,,,,,,,,,,,,,,,,,,,,,,,,,,,,,,,,,,,,,,,,,,,,,,,,,,,,,,,,,,,,,,,,
,,5ebb96b6cd673a0008ace9ce,2022-09-08_13h16.51.800,CGTgamblingSpanTasks,2022.2.1,Win32,60.0240096,,,,,,,,2.762,,,,,,,,,,,,,,1,n,1.238,8.36,0,3.762,1,0,16,16,13,1,19.28,0,8.36,0,,,,,,,,,,,,,,,,,,,,,,,,,,,,,,,,,,,,,,,,,,,,,,,,,,,,,,,,,,,,,,,,,,,,,,,,,,,,,,,,,,,,,,,,,,,,,,,,,,
,,5ebb96b6cd673a0008ace9ce,2022-09-08_13h16.51.800,CGTgamblingSpanTasks,2022.2.1,Win32,60.0240096,,,,,,,,2.701,,,,,,,,,,,,,,1,v,1.299,14.72,1,4.201,1.5,0,17,17,6,1,14.72,0,4.64,0,,,,,,,,,,,,,,,,,,,,,,,,,,,,,,,,,,,,,,,,,,,,,,,,,,,,,,,,,,,,,,,,,,,,,,,,,,,,,,,,,,,,,,,,,,,,,,,,,,
,,5ebb96b6cd673a0008ace9ce,2022-09-08_13h16.51.800,CGTgamblingSpanTasks,2022.2.1,Win32,60.0240096,,,,,,,,2.747,,,,,,,,,,,,,,1,v,1.253,13.45,1,3.747,1,0,18,18,10,1,13.45,0,5.27,0,,,,,,,,,,,,,,,,,,,,,,,,,,,,,,,,,,,,,,,,,,,,,,,,,,,,,,,,,,,,,,,,,,,,,,,,,,,,,,,,,,,,,,,,,,,,,,,,,,
,,5ebb96b6cd673a0008ace9ce,2022-09-08_13h16.51.800,CGTgamblingSpanTasks,2022.2.1,Win32,60.0240096,,,,,,,,2.792,,,,,,,,,,,,,,1,n,1.208,9.5,0,4.292,1.5,0,19,19,25,1,17,0,9.5,0,,,,,,,,,,,,,,,,,,,,,,,,,,,,,,,,,,,,,,,,,,,,,,,,,,,,,,,,,,,,,,,,,,,,,,,,,,,,,,,,,,,,,,,,,,,,,,,,,,
,,5ebb96b6cd673a0008ace9ce,2022-09-08_13h16.51.800,CGTgamblingSpanTasks,2022.2.1,Win32,60.0240096,,,,,,,,3.084,,,,,,,,,,,,,,1,n,0.916,6.53,0,4.084,1,0,20,20,28,1,10.95,0,6.53,0,,,,,,,,,,,,,,,,,,,,,,,,,,,,,,,,,,,,,,,,,,,,,,,,,,,,,,,,,,,,,,,,,,,,,,,,,,,,,,,,,,,,,,,,,,,,,,,,,,
,,5ebb96b6cd673a0008ace9ce,2022-09-08_13h16.51.800,CGTgamblingSpanTasks,2022.2.1,Win32,60.0240096,,,,,,,,2.818,,,,,,,,,,,,,,1,v,1.182,19.86,1,4.318,1.5,0,21,21,11,1,19.86,0,8.07,0,,,,,,,,,,,,,,,,,,,,,,,,,,,,,,,,,,,,,,,,,,,,,,,,,,,,,,,,,,,,,,,,,,,,,,,,,,,,,,,,,,,,,,,,,,,,,,,,,,
,,5ebb96b6cd673a0008ace9ce,2022-09-08_13h16.51.800,CGTgamblingSpanTasks,2022.2.1,Win32,60.0240096,,,,,,,,2.815,,,,,,,,,,,,,,2,n,1.185,28.21,1,3.815,1,0,22,22,1,1,28.21,0,3.89,0,,,,,,,,,,,,,,,,,,,,,,,,,,,,,,,,,,,,,,,,,,,,,,,,,,,,,,,,,,,,,,,,,,,,,,,,,,,,,,,,,,,,,,,,,,,,,,,,,,
,,5ebb96b6cd673a0008ace9ce,2022-09-08_13h16.51.800,CGTgamblingSpanTasks,2022.2.1,Win32,60.0240096,,,,,,,,2.958,,,,,,,,,,,,,,2,v,1.042,9.92,0,4.458,1.5,0,23,23,49,1,6.79,0,9.92,1,,,,,,,,,,,,,,,,,,,,,,,,,,,,,,,,,,,,,,,,,,,,,,,,,,,,,,,,,,,,,,,,,,,,,,,,,,,,,,,,,,,,,,,,,,,,,,,,,,
,,5ebb96b6cd673a0008ace9ce,2022-09-08_13h16.51.800,CGTgamblingSpanTasks,2022.2.1,Win32,60.0240096,,,,,,,,3.116,,,,,,,,,,,,,,2,n,0.884,0,1,4.616,1.5,0,24,24,36,1,10.24,0,6.88,0,,,,,,,,,,,,,,,,,,,,,,,,,,,,,,,,,,,,,,,,,,,,,,,,,,,,,,,,,,,,,,,,,,,,,,,,,,,,,,,,,,,,,,,,,,,,,,,,,,
,,5ebb96b6cd673a0008ace9ce,2022-09-08_13h16.51.800,CGTgamblingSpanTasks,2022.2.1,Win32,60.0240096,,,,,,,,3.099,,,,,,,,,,,,,,1,n,0.901,10.27,0,4.099,1,0,25,25,35,1,15.47,0,10.27,0,,,,,,,,,,,,,,,,,,,,,,,,,,,,,,,,,,,,,,,,,,,,,,,,,,,,,,,,,,,,,,,,,,,,,,,,,,,,,,,,,,,,,,,,,,,,,,,,,,
,,5ebb96b6cd673a0008ace9ce,2022-09-08_13h16.51.800,CGTgamblingSpanTasks,2022.2.1,Win32,60.0240096,,,,,,,,2.699,,,,,,,,,,,,,,1,v,1.301,11.62,1,4.199,1.5,0,26,26,22,1,11.62,0,6.19,0,,,,,,,,,,,,,,,,,,,,,,,,,,,,,,,,,,,,,,,,,,,,,,,,,,,,,,,,,,,,,,,,,,,,,,,,,,,,,,,,,,,,,,,,,,,,,,,,,,
,,5ebb96b6cd673a0008ace9ce,2022-09-08_13h16.51.800,CGTgamblingSpanTasks,2022.2.1,Win32,60.0240096,,,,,,,,2.783,,,,,,,,,,,,,,2,n,1.217,17.73,1,4.283,1.5,0,27,27,2,1,17.73,0,3.13,0,,,,,,,,,,,,,,,,,,,,,,,,,,,,,,,,,,,,,,,,,,,,,,,,,,,,,,,,,,,,,,,,,,,,,,,,,,,,,,,,,,,,,,,,,,,,,,,,,,
,,5ebb96b6cd673a0008ace9ce,2022-09-08_13h16.51.800,CGTgamblingSpanTasks,2022.2.1,Win32,60.0240096,,,,,,,,2.88,,,,,,,,,,,,,,1,v,1.12,0,1,3.88,1,0,28,28,12,1,13.04,0,5.48,0,,,,,,,,,,,,,,,,,,,,,,,,,,,,,,,,,,,,,,,,,,,,,,,,,,,,,,,,,,,,,,,,,,,,,,,,,,,,,,,,,,,,,,,,,,,,,,,,,,
,,5ebb96b6cd673a0008ace9ce,2022-09-08_13h16.51.800,CGTgamblingSpanTasks,2022.2.1,Win32,60.0240096,,,,,,,,3.137,,,,,,,,,,,,,,2,n,0.863,0,1,4.137,1,0,29,29,29,1,16.26,0,9.87,0,,,,,,,,,,,,,,,,,,,,,,,,,,,,,,,,,,,,,,,,,,,,,,,,,,,,,,,,,,,,,,,,,,,,,,,,,,,,,,,,,,,,,,,,,,,,,,,,,,
,,5ebb96b6cd673a0008ace9ce,2022-09-08_13h16.51.800,CGTgamblingSpanTasks,2022.2.1,Win32,60.0240096,,,,,,,,3.223,,,,,,,,,,,,,,1,v,0.777,0,1,4.723,1.5,0,30,30,19,1,17.94,0,9.03,0,,,,,,,,,,,,,,,,,,,,,,,,,,,,,,,,,,,,,,,,,,,,,,,,,,,,,,,,,,,,,,,,,,,,,,,,,,,,,,,,,,,,,,,,,,,,,,,,,,
,,5ebb96b6cd673a0008ace9ce,2022-09-08_13h16.51.800,CGTgamblingSpanTasks,2022.2.1,Win32,60.0240096,,,,,,,,2.795,,,,,,,,,,,,,,1,v,1.205,20.03,1,4.295,1.5,0,31,31,0,1,20.03,0,1.99,0,,,,,,,,,,,,,,,,,,,,,,,,,,,,,,,,,,,,,,,,,,,,,,,,,,,,,,,,,,,,,,,,,,,,,,,,,,,,,,,,,,,,,,,,,,,,,,,,,,
,,5ebb96b6cd673a0008ace9ce,2022-09-08_13h16.51.800,CGTgamblingSpanTasks,2022.2.1,Win32,60.0240096,,,,,,,,3.022,,,,,,,,,,,,,,1,n,0.978,6.4,0,4.022,1,0,32,32,26,1,11.2,0,6.4,0,,,,,,,,,,,,,,,,,,,,,,,,,,,,,,,,,,,,,,,,,,,,,,,,,,,,,,,,,,,,,,,,,,,,,,,,,,,,,,,,,,,,,,,,,,,,,,,,,,
,,5ebb96b6cd673a0008ace9ce,2022-09-08_13h16.51.800,CGTgamblingSpanTasks,2022.2.1,Win32,60.0240096,,,,,,,,2.91,,,,,,,,,,,,,,1,v,1.09,16,1,3.91,1,0,33,33,4,1,16,0,4,0,,,,,,,,,,,,,,,,,,,,,,,,,,,,,,,,,,,,,,,,,,,,,,,,,,,,,,,,,,,,,,,,,,,,,,,,,,,,,,,,,,,,,,,,,,,,,,,,,,
,,5ebb96b6cd673a0008ace9ce,2022-09-08_13h16.51.800,CGTgamblingSpanTasks,2022.2.1,Win32,60.0240096,,,,,,,,2.741,,,,,,,,,,,,,,1,n,1.259,10.15,0,3.741,1,0,34,34,33,1,15.7,0,10.15,0,,,,,,,,,,,,,,,,,,,,,,,,,,,,,,,,,,,,,,,,,,,,,,,,,,,,,,,,,,,,,,,,,,,,,,,,,,,,,,,,,,,,,,,,,,,,,,,,,,
,,5ebb96b6cd673a0008ace9ce,2022-09-08_13h16.51.800,CGTgamblingSpanTasks,2022.2.1,Win32,60.0240096,,,,,,,,2.728,,,,,,,,,,,,,,1,v,1.272,0,1,4.228,1.5,0,35,35,23,1,17.28,0,9.36,0,,,,,,,,,,,,,,,,,,,,,,,,,,,,,,,,,,,,,,,,,,,,,,,,,,,,,,,,,,,,,,,,,,,,,,,,,,,,,,,,,,,,,,,,,,,,,,,,,,
,,5ebb96b6cd673a0008ace9ce,2022-09-08_13h16.51.800,CGTgamblingSpanTasks,2022.2.1,Win32,60.0240096,,,,,,,,3.175,,,,,,,,,,,,,,2,n,0.825,0,1,4.175,1,0,36,36,14,1,12.68,0,5.66,0,,,,,,,,,,,,,,,,,,,,,,,,,,,,,,,,,,,,,,,,,,,,,,,,,,,,,,,,,,,,,,,,,,,,,,,,,,,,,,,,,,,,,,,,,,,,,,,,,,
,,5ebb96b6cd673a0008ace9ce,2022-09-08_13h16.51.800,CGTgamblingSpanTasks,2022.2.1,Win32,60.0240096,,,,,,,,2.974,,,,,,,,,,,,,,1,n,1.026,6.73,0,4.474,1.5,0,37,37,32,1,10.55,0,6.73,0,,,,,,,,,,,,,,,,,,,,,,,,,,,,,,,,,,,,,,,,,,,,,,,,,,,,,,,,,,,,,,,,,,,,,,,,,,,,,,,,,,,,,,,,,,,,,,,,,,
,,5ebb96b6cd673a0008ace9ce,2022-09-08_13h16.51.800,CGTgamblingSpanTasks,2022.2.1,Win32,60.0240096,,,,,,,,3.184,,,,,,,,,,,,,,2,v,0.816,7.55,0,4.184,1,0,38,38,45,1,0,0,7.55,1,,,,,,,,,,,,,,,,,,,,,,,,,,,,,,,,,,,,,,,,,,,,,,,,,,,,,,,,,,,,,,,,,,,,,,,,,,,,,,,,,,,,,,,,,,,,,,,,,,
,,5ebb96b6cd673a0008ace9ce,2022-09-08_13h16.51.800,CGTgamblingSpanTasks,2022.2.1,Win32,60.0240096,,,,,,,,3.159,,,,,,,,,,,,,,2,n,0.841,0,1,4.659,1.5,0,39,39,42,1,19.86,0,0,1,,,,,,,,,,,,,,,,,,,,,,,,,,,,,,,,,,,,,,,,,,,,,,,,,,,,,,,,,,,,,,,,,,,,,,,,,,,,,,,,,,,,,,,,,,,,,,,,,,
,,5ebb96b6cd673a0008ace9ce,2022-09-08_13h16.51.800,CGTgamblingSpanTasks,2022.2.1,Win32,60.0240096,,,,,,,,3.289,,,,,,,,,,,,,,1,v,0.711,6.99,1,4.289,1,0,40,40,43,1,16.11,6.99,6.99,1,,,,,,,,,,,,,,,,,,,,,,,,,,,,,,,,,,,,,,,,,,,,,,,,,,,,,,,,,,,,,,,,,,,,,,,,,,,,,,,,,,,,,,,,,,,,,,,,,,
,,5ebb96b6cd673a0008ace9ce,2022-09-08_13h16.51.800,CGTgamblingSpanTasks,2022.2.1,Win32,60.0240096,,,,,,,,2.633,,,,,,,,,,,,,,1,v,1.367,13.1,1,3.633,1,0,41,41,44,1,13.1,7.73,4.68,1,,,,,,,,,,,,,,,,,,,,,,,,,,,,,,,,,,,,,,,,,,,,,,,,,,,,,,,,,,,,,,,,,,,,,,,,,,,,,,,,,,,,,,,,,,,,,,,,,,
,,5ebb96b6cd673a0008ace9ce,2022-09-08_13h16.51.800,CGTgamblingSpanTasks,2022.2.1,Win32,60.0240096,,,,,,,,2.904,,,,,,,,,,,,,,2,n,1.096,0,1,4.404,1.5,0,42,42,27,1,16.6,0,9.7,0,,,,,,,,,,,,,,,,,,,,,,,,,,,,,,,,,,,,,,,,,,,,,,,,,,,,,,,,,,,,,,,,,,,,,,,,,,,,,,,,,,,,,,,,,,,,,,,,,,
,,5ebb96b6cd673a0008ace9ce,2022-09-08_13h16.51.800,CGTgamblingSpanTasks,2022.2.1,Win32,60.0240096,,,,,,,,2.883,,,,,,,,,,,,,,2,v,1.117,10.68,0,3.883,1,0,43,43,48,1,10.68,0,10.68,1,,,,,,,,,,,,,,,,,,,,,,,,,,,,,,,,,,,,,,,,,,,,,,,,,,,,,,,,,,,,,,,,,,,,,,,,,,,,,,,,,,,,,,,,,,,,,,,,,,
,,5ebb96b6cd673a0008ace9ce,2022-09-08_13h16.51.800,CGTgamblingSpanTasks,2022.2.1,Win32,60.0240096,,,,,,,,2.638,,,,,,,,,,,,,,2,v,1.362,10.37,0,3.638,1,0,44,44,37,1,15.27,0,10.37,0,,,,,,,,,,,,,,,,,,,,,,,,,,,,,,,,,,,,,,,,,,,,,,,,,,,,,,,,,,,,,,,,,,,,,,,,,,,,,,,,,,,,,,,,,,,,,,,,,,
,,5ebb96b6cd673a0008ace9ce,2022-09-08_13h16.51.800,CGTgamblingSpanTasks,2022.2.1,Win32,60.0240096,,,,,,,,2.679,,,,,,,,,,,,,,1,n,1.321,6.94,0,3.679,1,0,45,45,38,1,10.12,0,6.94,0,,,,,,,,,,,,,,,,,,,,,,,,,,,,,,,,,,,,,,,,,,,,,,,,,,,,,,,,,,,,,,,,,,,,,,,,,,,,,,,,,,,,,,,,,,,,,,,,,,
,,5ebb96b6cd673a0008ace9ce,2022-09-08_13h16.51.800,CGTgamblingSpanTasks,2022.2.1,Win32,60.0240096,,,,,,,,3.01,,,,,,,,,,,,,,1,n,0.99,10.25,0,4.01,1,0,46,46,46,1,0,0,10.25,1,,,,,,,,,,,,,,,,,,,,,,,,,,,,,,,,,,,,,,,,,,,,,,,,,,,,,,,,,,,,,,,,,,,,,,,,,,,,,,,,,,,,,,,,,,,,,,,,,,
,,5ebb96b6cd673a0008ace9ce,2022-09-08_13h16.51.800,CGTgamblingSpanTasks,2022.2.1,Win32,60.0240096,,,,,,,,2.895,,,,,,,,,,,,,,2,n,1.105,25.2,1,3.895,1,0,47,47,3,1,25.2,0,5.4,0,,,,,,,,,,,,,,,,,,,,,,,,,,,,,,,,,,,,,,,,,,,,,,,,,,,,,,,,,,,,,,,,,,,,,,,,,,,,,,,,,,,,,,,,,,,,,,,,,,
,,5ebb96b6cd673a0008ace9ce,2022-09-08_13h16.51.800,CGTgamblingSpanTasks,2022.2.1,Win32,60.0240096,,,,,,,,3.1,,,,,,,,,,,,,,2,v,0.9,3.13,0,4.6,1.5,0,48,48,47,1,0,0,3.13,1,,,,,,,,,,,,,,,,,,,,,,,,,,,,,,,,,,,,,,,,,,,,,,,,,,,,,,,,,,,,,,,,,,,,,,,,,,,,,,,,,,,,,,,,,,,,,,,,,,
,,5ebb96b6cd673a0008ace9ce,2022-09-08_13h16.51.800,CGTgamblingSpanTasks,2022.2.1,Win32,60.0240096,,,,,,,,3.223,,,,,,,,,,,,,,1,v,0.777,0,1,4.723,1.5,0,49,49,5,1,22.97,0,6.51,0,,,,,,,,,,,,,,,,,,,,,,,,,,,,,,,,,,,,,,,,,,,,,,,,,,,,,,,,,,,,,,,,,,,,,,,,,,,,,,,,,,,,,,,,,,,,,,,,,,
,,5ebb96b6cd673a0008ace9ce,2022-09-08_13h16.51.800,CGTgamblingSpanTasks,2022.2.1,Win32,60.0240096,,,,,,,,,,,,,,,,,,,,,,,,,,,,,,,,,,,,,,bespoke_choiceset_rhoInd091_muInd039.csv,bespoke_choicesets/bespoke_choiceset_rhoInd091_muInd039.csv,91,39,0,0,0,0,1,,,,,,,,,,,,,,,,,,,,,,,,,,,,,,,,,,,,,,,,,,,,,,,,,,,,,,,,,,,,,,,,,,,,,,,,,,,,,,,,,,,,,,,,,
,,5ebb96b6cd673a0008ace9ce,2022-09-08_13h16.51.800,CGTgamblingSpanTasks,2022.2.1,Win32,60.0240096,,,,,,,,,,,,,,,,,,,,,,,,,,,,,,,,,,,,,,,,,,,,,,,,,,,,,,,,,,,,,,,,,,,,,,,,,,,,,,,,,,,,,,,,,,,,,,,,,,,,,,,,,,,,,,,,,,,,,,,,,,,,,,,,,,,,,,,
,,5ebb96b6cd673a0008ace9ce,2022-09-08_13h16.51.800,CGTgamblingSpanTasks,2022.2.1,Win32,60.0240096,,,,,,,,,,,,,,,,,,,,,,,,,,,,,,,,,,,,,,,,,,,,,,,v,1.82,,,,,,,,,,,,,,,,,,,,,,,,,,,,,,,,,,,,,,,,,,,,,,,,,,,,,,,,,,,,,,,,,,,,,,,,,,,,,,,,,,,,,,,
,,5ebb96b6cd673a0008ace9ce,2022-09-08_13h16.51.800,CGTgamblingSpanTasks,2022.2.1,Win32,60.0240096,,,,,,,,3.087,,,,,,,,,,,,,,2,n,0.913,0,1,4.087,1,,,,,,26.36733703,0,2.201057101,,,,,,,,,,,,,0,0,0,90,1,0.544064207,1,,,,,,,,,,,,,,,,,,,,,,,,,,,,,,,,,,,,,,,,,,,,,,,,,,,,,,,,,,,,,,,,,,,,,,,,,,,,,,,,
,,5ebb96b6cd673a0008ace9ce,2022-09-08_13h16.51.800,CGTgamblingSpanTasks,2022.2.1,Win32,60.0240096,,,,,,,,2.658,,,,,,,,,,,,,,1,n,1.342,8.830252162,0,3.658,1,,,,,,15.73000491,0,8.830252162,,,,,,,,,,,,,0,1,1,95,1,0.084193143,0,,,,,,,,,,,,,,,,,,,,,,,,,,,,,,,,,,,,,,,,,,,,,,,,,,,,,,,,,,,,,,,,,,,,,,,,,,,,,,,,
,,5ebb96b6cd673a0008ace9ce,2022-09-08_13h16.51.800,CGTgamblingSpanTasks,2022.2.1,Win32,60.0240096,,,,,,,,3.168,,,,,,,,,,,,,,1,n,0.832,11.61882862,0,4.668,1.5,,,,,,4.022743614,0,11.61882862,,,,,,,,,,,,,0,2,2,38,1,0.011499376,0,,,,,,,,,,,,,,,,,,,,,,,,,,,,,,,,,,,,,,,,,,,,,,,,,,,,,,,,,,,,,,,,,,,,,,,,,,,,,,,,
,,5ebb96b6cd673a0008ace9ce,2022-09-08_13h16.51.800,CGTgamblingSpanTasks,2022.2.1,Win32,60.0240096,,,,,,,,3.218,,,,,,,,,,,,,,1,v,0.782,0,1,4.218,1,,,,,,27.60724521,0,0.088432325,,,,,,,,,,,,,0,3,3,17,1,0.904684186,0,,,,,,,,,,,,,,,,,,,,,,,,,,,,,,,,,,,,,,,,,,,,,,,,,,,,,,,,,,,,,,,,,,,,,,,,,,,,,,,,
,,5ebb96b6cd673a0008ace9ce,2022-09-08_13h16.51.800,CGTgamblingSpanTasks,2022.2.1,Win32,60.0240096,,,,,,,,3.213,,,,,,,,,,,,,,2,n,0.787,0,1,4.213,1,,,,,,20.31034258,0,1.870404296,,,,,,,,,,,,,0,4,4,85,1,0.519325853,1,,,,,,,,,,,,,,,,,,,,,,,,,,,,,,,,,,,,,,,,,,,,,,,,,,,,,,,,,,,,,,,,,,,,,,,,,,,,,,,,
,,5ebb96b6cd673a0008ace9ce,2022-09-08_13h16.51.800,CGTgamblingSpanTasks,2022.2.1,Win32,60.0240096,,,,,,,,3.382,,,,,,,,,,,,,,2,n,0.618,24.479109,1,4.882,1.5,,,,,,24.479109,0,0.089582697,,,,,,,,,,,,,0,5,5,89,1,0.900200232,0,,,,,,,,,,,,,,,,,,,,,,,,,,,,,,,,,,,,,,,,,,,,,,,,,,,,,,,,,,,,,,,,,,,,,,,,,,,,,,,,
,,5ebb96b6cd673a0008ace9ce,2022-09-08_13h16.51.800,CGTgamblingSpanTasks,2022.2.1,Win32,60.0240096,,,,,,,,3.34,,,,,,,,,,,,,,1,v,0.66,0,1,4.84,1.5,,,,,,24.35708027,0,2.738695417,,,,,,,,,,,,,0,6,6,114,1,0.466573634,1,,,,,,,,,,,,,,,,,,,,,,,,,,,,,,,,,,,,,,,,,,,,,,,,,,,,,,,,,,,,,,,,,,,,,,,,,,,,,,,,
,,5ebb96b6cd673a0008ace9ce,2022-09-08_13h16.51.800,CGTgamblingSpanTasks,2022.2.1,Win32,60.0240096,,,,,,,,3.337,,,,,,,,,,,,,,1,v,0.663,20.97851654,1,4.337,1,,,,,,20.97851654,0,11.39288827,,,,,,,,,,,,,0,7,7,2,1,0.088791079,0,,,,,,,,,,,,,,,,,,,,,,,,,,,,,,,,,,,,,,,,,,,,,,,,,,,,,,,,,,,,,,,,,,,,,,,,,,,,,,,,
,,5ebb96b6cd673a0008ace9ce,2022-09-08_13h16.51.800,CGTgamblingSpanTasks,2022.2.1,Win32,60.0240096,,,,,,,,2.999,,,,,,,,,,,,,,1,n,1.001,11.19311486,0,4.499,1.5,,,,,,8.17598802,0,11.19311486,,,,,,,,,,,,,0,8,8,110,1,0.021568003,0,,,,,,,,,,,,,,,,,,,,,,,,,,,,,,,,,,,,,,,,,,,,,,,,,,,,,,,,,,,,,,,,,,,,,,,,,,,,,,,,
,,5ebb96b6cd673a0008ace9ce,2022-09-08_13h16.51.800,CGTgamblingSpanTasks,2022.2.1,Win32,60.0240096,,,,,,,,3.164,,,,,,,,,,,,,,2,n,0.836,22.0050376,1,4.664,1.5,,,,,,22.0050376,0,2.257683666,,,,,,,,,,,,,0,9,9,4,1,0.491147312,1,,,,,,,,,,,,,,,,,,,,,,,,,,,,,,,,,,,,,,,,,,,,,,,,,,,,,,,,,,,,,,,,,,,,,,,,,,,,,,,,
,,5ebb96b6cd673a0008ace9ce,2022-09-08_13h16.51.800,CGTgamblingSpanTasks,2022.2.1,Win32,60.0240096,,,,,,,,3.187,,,,,,,,,,,,,,1,v,0.813,0,1,4.687,1.5,,,,,,27.57491653,0,2.99133314,,,,,,,,,,,,,0,10,10,10,1,0.47625893,1,,,,,,,,,,,,,,,,,,,,,,,,,,,,,,,,,,,,,,,,,,,,,,,,,,,,,,,,,,,,,,,,,,,,,,,,,,,,,,,,
,,5ebb96b6cd673a0008ace9ce,2022-09-08_13h16.51.800,CGTgamblingSpanTasks,2022.2.1,Win32,60.0240096,,,,,,,,3.275,,,,,,,,,,,,,,2,n,0.725,21.7711579,1,4.275,1,,,,,,21.7711579,0,2.502728921,,,,,,,,,,,,,0,11,11,101,1,0.460552621,1,,,,,,,,,,,,,,,,,,,,,,,,,,,,,,,,,,,,,,,,,,,,,,,,,,,,,,,,,,,,,,,,,,,,,,,,,,,,,,,,
,,5ebb96b6cd673a0008ace9ce,2022-09-08_13h16.51.800,CGTgamblingSpanTasks,2022.2.1,Win32,60.0240096,,,,,,,,2.977,,,,,,,,,,,,,,1,n,1.023,11.41737518,0,4.477,1.5,,,,,,18.11029021,0,11.41737518,,,,,,,,,,,,,0,12,12,48,1,0.069445859,0,,,,,,,,,,,,,,,,,,,,,,,,,,,,,,,,,,,,,,,,,,,,,,,,,,,,,,,,,,,,,,,,,,,,,,,,,,,,,,,,
,,5ebb96b6cd673a0008ace9ce,2022-09-08_13h16.51.800,CGTgamblingSpanTasks,2022.2.1,Win32,60.0240096,,,,,,,,2.839,,,,,,,,,,,,,,1,v,1.161,14.3363647,1,4.339,1.5,,,,,,14.3363647,0,1.396635362,,,,,,,,,,,,,0,13,13,78,1,0.504775474,1,,,,,,,,,,,,,,,,,,,,,,,,,,,,,,,,,,,,,,,,,,,,,,,,,,,,,,,,,,,,,,,,,,,,,,,,,,,,,,,,
,,5ebb96b6cd673a0008ace9ce,2022-09-08_13h16.51.800,CGTgamblingSpanTasks,2022.2.1,Win32,60.0240096,,,,,,,,3.322,,,,,,,,,,,,,,2,n,0.678,0,1,4.322,1,,,,,,29.30724159,0,3.247012935,,,,,,,,,,,,,0,14,14,71,1,0.470571125,1,,,,,,,,,,,,,,,,,,,,,,,,,,,,,,,,,,,,,,,,,,,,,,,,,,,,,,,,,,,,,,,,,,,,,,,,,,,,,,,,
,,5ebb96b6cd673a0008ace9ce,2022-09-08_13h16.51.800,CGTgamblingSpanTasks,2022.2.1,Win32,60.0240096,,,,,,,,3.453,,,,,,,,,,,,,,1,v,0.547,0,1,4.953,1.5,,,,,,27.53810185,0,0.097022401,,,,,,,,,,,,,0,15,15,50,1,0.901515865,0,,,,,,,,,,,,,,,,,,,,,,,,,,,,,,,,,,,,,,,,,,,,,,,,,,,,,,,,,,,,,,,,,,,,,,,,,,,,,,,,
,,5ebb96b6cd673a0008ace9ce,2022-09-08_13h16.51.800,CGTgamblingSpanTasks,2022.2.1,Win32,60.0240096,,,,,,,,3.362,,,,,,,,,,,,,,1,v,0.638,19.68065872,1,4.362,1,,,,,,19.68065872,0,1.843597162,,,,,,,,,,,,,0,16,16,80,1,0.514941058,1,,,,,,,,,,,,,,,,,,,,,,,,,,,,,,,,,,,,,,,,,,,,,,,,,,,,,,,,,,,,,,,,,,,,,,,,,,,,,,,,
,,5ebb96b6cd673a0008ace9ce,2022-09-08_13h16.51.800,CGTgamblingSpanTasks,2022.2.1,Win32,60.0240096,,,,,,,,3.359,,,,,,,,,,,,,,2,n,0.641,0,1,4.359,1,,,,,,22.62475578,0,2.397643354,,,,,,,,,,,,,0,17,17,93,1,0.482527609,1,,,,,,,,,,,,,,,,,,,,,,,,,,,,,,,,,,,,,,,,,,,,,,,,,,,,,,,,,,,,,,,,,,,,,,,,,,,,,,,,
,,5ebb96b6cd673a0008ace9ce,2022-09-08_13h16.51.800,CGTgamblingSpanTasks,2022.2.1,Win32,60.0240096,,,,,,,,3.417,,,,,,,,,,,,,,1,v,0.583,21.46599803,1,4.917,1.5,,,,,,21.46599803,0,0.059789256,,,,,,,,,,,,,0,18,18,8,1,0.909019081,0,,,,,,,,,,,,,,,,,,,,,,,,,,,,,,,,,,,,,,,,,,,,,,,,,,,,,,,,,,,,,,,,,,,,,,,,,,,,,,,,
,,5ebb96b6cd673a0008ace9ce,2022-09-08_13h16.51.800,CGTgamblingSpanTasks,2022.2.1,Win32,60.0240096,,,,,,,,3.286,,,,,,,,,,,,,,1,v,0.714,4.698775357,1,4.286,1,,,,,,4.698775357,0,4.904872644,,,,,,,,,,,,,0,19,19,75,1,0.028064484,0,,,,,,,,,,,,,,,,,,,,,,,,,,,,,,,,,,,,,,,,,,,,,,,,,,,,,,,,,,,,,,,,,,,,,,,,,,,,,,,,
,,5ebb96b6cd673a0008ace9ce,2022-09-08_13h16.51.800,CGTgamblingSpanTasks,2022.2.1,Win32,60.0240096,,,,,,,,2.853,,,,,,,,,,,,,,1,n,1.147,8.653432553,0,4.353,1.5,,,,,,15.13999312,0,8.653432553,,,,,,,,,,,,,0,20,20,54,1,0.081767484,0,,,,,,,,,,,,,,,,,,,,,,,,,,,,,,,,,,,,,,,,,,,,,,,,,,,,,,,,,,,,,,,,,,,,,,,,,,,,,,,,
,,5ebb96b6cd673a0008ace9ce,2022-09-08_13h16.51.800,CGTgamblingSpanTasks,2022.2.1,Win32,60.0240096,,,,,,,,3.014,,,,,,,,,,,,,,2,n,0.986,17.23907308,1,4.014,1,,,,,,17.23907308,0,2.055848574,,,,,,,,,,,,,0,21,21,66,1,0.450504458,1,,,,,,,,,,,,,,,,,,,,,,,,,,,,,,,,,,,,,,,,,,,,,,,,,,,,,,,,,,,,,,,,,,,,,,,,,,,,,,,,
,,5ebb96b6cd673a0008ace9ce,2022-09-08_13h16.51.800,CGTgamblingSpanTasks,2022.2.1,Win32,60.0240096,,,,,,,,3.313,,,,,,,,,,,,,,1,v,0.687,0,1,4.813,1.5,,,,,,25.56803059,0,2.543951743,,,,,,,,,,,,,0,22,22,41,1,0.499247217,1,,,,,,,,,,,,,,,,,,,,,,,,,,,,,,,,,,,,,,,,,,,,,,,,,,,,,,,,,,,,,,,,,,,,,,,,,,,,,,,,
,,5ebb96b6cd673a0008ace9ce,2022-09-08_13h16.51.800,CGTgamblingSpanTasks,2022.2.1,Win32,60.0240096,,,,,,,,3.171,,,,,,,,,,,,,,1,v,0.829,21.03408097,1,4.671,1.5,,,,,,21.03408097,0,2.208275162,,,,,,,,,,,,,0,23,23,0,1,0.485031246,1,,,,,,,,,,,,,,,,,,,,,,,,,,,,,,,,,,,,,,,,,,,,,,,,,,,,,,,,,,,,,,,,,,,,,,,,,,,,,,,,
,,5ebb96b6cd673a0008ace9ce,2022-09-08_13h16.51.800,CGTgamblingSpanTasks,2022.2.1,Win32,60.0240096,,,,,,,,3.387,,,,,,,,,,,,,,2,n,0.613,0,1,4.887,1.5,,,,,,24.8002852,0,0.071848086,,,,,,,,,,,,,0,24,24,16,1,0.90783559,0,,,,,,,,,,,,,,,,,,,,,,,,,,,,,,,,,,,,,,,,,,,,,,,,,,,,,,,,,,,,,,,,,,,,,,,,,,,,,,,,
,,5ebb96b6cd673a0008ace9ce,2022-09-08_13h16.51.800,CGTgamblingSpanTasks,2022.2.1,Win32,60.0240096,,,,,,,,3.207,,,,,,,,,,,,,,2,n,0.793,14.11762686,1,4.707,1.5,,,,,,14.11762686,0,8.579385201,,,,,,,,,,,,,0,25,25,60,1,0.073886959,0,,,,,,,,,,,,,,,,,,,,,,,,,,,,,,,,,,,,,,,,,,,,,,,,,,,,,,,,,,,,,,,,,,,,,,,,,,,,,,,,
,,5ebb96b6cd673a0008ace9ce,2022-09-08_13h16.51.800,CGTgamblingSpanTasks,2022.2.1,Win32,60.0240096,,,,,,,,3.251,,,,,,,,,,,,,,1,v,0.749,0,1,4.251,1,,,,,,27.94544945,0,2.32030209,,,,,,,,,,,,,0,26,26,115,1,0.545390564,1,,,,,,,,,,,,,,,,,,,,,,,,,,,,,,,,,,,,,,,,,,,,,,,,,,,,,,,,,,,,,,,,,,,,,,,,,,,,,,,,
,,5ebb96b6cd673a0008ace9ce,2022-09-08_13h16.51.800,CGTgamblingSpanTasks,2022.2.1,Win32,60.0240096,,,,,,,,3.396,,,,,,,,,,,,,,2,n,0.604,0,1,4.396,1,,,,,,27.38828234,0,0.0639233,,,,,,,,,,,,,0,27,27,43,1,0.914010176,0,,,,,,,,,,,,,,,,,,,,,,,,,,,,,,,,,,,,,,,,,,,,,,,,,,,,,,,,,,,,,,,,,,,,,,,,,,,,,,,,
,,5ebb96b6cd673a0008ace9ce,2022-09-08_13h16.51.800,CGTgamblingSpanTasks,2022.2.1,Win32,60.0240096,,,,,,,,3.228,,,,,,,,,,,,,,2,n,0.772,0,1,4.228,1,,,,,,17.4320197,0,1.448620949,,,,,,,,,,,,,0,28,28,30,1,0.545178213,1,,,,,,,,,,,,,,,,,,,,,,,,,,,,,,,,,,,,,,,,,,,,,,,,,,,,,,,,,,,,,,,,,,,,,,,,,,,,,,,,
,,5ebb96b6cd673a0008ace9ce,2022-09-08_13h16.51.800,CGTgamblingSpanTasks,2022.2.1,Win32,60.0240096,,,,,,,,3.254,,,,,,,,,,,,,,1,v,0.746,20.5726842,1,4.254,1,,,,,,20.5726842,0,0.073558523,,,,,,,,,,,,,0,29,29,26,1,0.901008565,0,,,,,,,,,,,,,,,,,,,,,,,,,,,,,,,,,,,,,,,,,,,,,,,,,,,,,,,,,,,,,,,,,,,,,,,,,,,,,,,,
,,5ebb96b6cd673a0008ace9ce,2022-09-08_13h16.51.800,CGTgamblingSpanTasks,2022.2.1,Win32,60.0240096,,,,,,,,2.748,,,,,,,,,,,,,,1,n,1.252,5.526483034,0,4.248,1.5,,,,,,9.725876653,0,5.526483034,,,,,,,,,,,,,0,30,30,44,1,0.082550696,0,,,,,,,,,,,,,,,,,,,,,,,,,,,,,,,,,,,,,,,,,,,,,,,,,,,,,,,,,,,,,,,,,,,,,,,,,,,,,,,,
,,5ebb96b6cd673a0008ace9ce,2022-09-08_13h16.51.800,CGTgamblingSpanTasks,2022.2.1,Win32,60.0240096,,,,,,,,3.145,,,,,,,,,,,,,,2,n,0.855,0,1,4.645,1.5,,,,,,17.85020524,0,2.058701084,,,,,,,,,,,,,0,31,31,25,1,0.459662216,1,,,,,,,,,,,,,,,,,,,,,,,,,,,,,,,,,,,,,,,,,,,,,,,,,,,,,,,,,,,,,,,,,,,,,,,,,,,,,,,,
,,5ebb96b6cd673a0008ace9ce,2022-09-08_13h16.51.800,CGTgamblingSpanTasks,2022.2.1,Win32,60.0240096,,,,,,,,3.116,,,,,,,,,,,,,,2,n,0.884,19.36415485,1,4.116,1,,,,,,19.36415485,0,1.966229494,,,,,,,,,,,,,0,32,32,96,1,0.493893111,1,,,,,,,,,,,,,,,,,,,,,,,,,,,,,,,,,,,,,,,,,,,,,,,,,,,,,,,,,,,,,,,,,,,,,,,,,,,,,,,,
,,5ebb96b6cd673a0008ace9ce,2022-09-08_13h16.51.800,CGTgamblingSpanTasks,2022.2.1,Win32,60.0240096,,,,,,,,2.51,,,,,,,,,,,,,,2,n,1.49,0,1,4.01,1.5,,,,,,27.77179191,0,0.074524436,,,,,,,,,,,,,0,33,33,99,1,0.910114387,0,,,,,,,,,,,,,,,,,,,,,,,,,,,,,,,,,,,,,,,,,,,,,,,,,,,,,,,,,,,,,,,,,,,,,,,,,,,,,,,,
,,5ebb96b6cd673a0008ace9ce,2022-09-08_13h16.51.800,CGTgamblingSpanTasks,2022.2.1,Win32,60.0240096,,,,,,,,3.224,,,,,,,,,,,,,,1,v,0.776,0,1,4.724,1.5,,,,,,27.37527992,0,2.860319095,,,,,,,,,,,,,0,34,34,39,1,0.486304156,1,,,,,,,,,,,,,,,,,,,,,,,,,,,,,,,,,,,,,,,,,,,,,,,,,,,,,,,,,,,,,,,,,,,,,,,,,,,,,,,,
,,5ebb96b6cd673a0008ace9ce,2022-09-08_13h16.51.800,CGTgamblingSpanTasks,2022.2.1,Win32,60.0240096,,,,,,,,3.464,,,,,,,,,,,,,,1,v,0.536,27.76752685,1,4.964,1.5,,,,,,27.76752685,0,0.083968035,,,,,,,,,,,,,0,35,35,13,1,0.906513967,0,,,,,,,,,,,,,,,,,,,,,,,,,,,,,,,,,,,,,,,,,,,,,,,,,,,,,,,,,,,,,,,,,,,,,,,,,,,,,,,,
,,5ebb96b6cd673a0008ace9ce,2022-09-08_13h16.51.800,CGTgamblingSpanTasks,2022.2.1,Win32,60.0240096,,,,,,,,3.375,,,,,,,,,,,,,,2,n,0.625,0,1,4.875,1.5,,,,,,29.76099779,0,0.095763086,,,,,,,,,,,,,0,36,36,35,1,0.904537896,0,,,,,,,,,,,,,,,,,,,,,,,,,,,,,,,,,,,,,,,,,,,,,,,,,,,,,,,,,,,,,,,,,,,,,,,,,,,,,,,,
,,5ebb96b6cd673a0008ace9ce,2022-09-08_13h16.51.800,CGTgamblingSpanTasks,2022.2.1,Win32,60.0240096,,,,,,,,3.392,,,,,,,,,,,,,,2,n,0.608,27.12325385,1,4.892,1.5,,,,,,27.12325385,0,0.080932047,,,,,,,,,,,,,0,37,37,14,1,0.906929184,0,,,,,,,,,,,,,,,,,,,,,,,,,,,,,,,,,,,,,,,,,,,,,,,,,,,,,,,,,,,,,,,,,,,,,,,,,,,,,,,,
,,5ebb96b6cd673a0008ace9ce,2022-09-08_13h16.51.800,CGTgamblingSpanTasks,2022.2.1,Win32,60.0240096,,,,,,,,3.346,,,,,,,,,,,,,,1,v,0.654,28.68598705,1,4.846,1.5,,,,,,28.68598705,0,0.050674956,,,,,,,,,,,,,0,38,38,62,1,0.920905497,0,,,,,,,,,,,,,,,,,,,,,,,,,,,,,,,,,,,,,,,,,,,,,,,,,,,,,,,,,,,,,,,,,,,,,,,,,,,,,,,,
,,5ebb96b6cd673a0008ace9ce,2022-09-08_13h16.51.800,CGTgamblingSpanTasks,2022.2.1,Win32,60.0240096,,,,,,,,2.976,,,,,,,,,,,,,,1,n,1.024,10.68505773,0,3.976,1,,,,,,17.64114152,0,10.68505773,,,,,,,,,,,,,0,39,39,98,1,0.074299362,0,,,,,,,,,,,,,,,,,,,,,,,,,,,,,,,,,,,,,,,,,,,,,,,,,,,,,,,,,,,,,,,,,,,,,,,,,,,,,,,,
,,5ebb96b6cd673a0008ace9ce,2022-09-08_13h16.51.800,CGTgamblingSpanTasks,2022.2.1,Win32,60.0240096,,,,,,,,2.896,,,,,,,,,,,,,,1,n,1.104,8.512335864,0,4.396,1.5,,,,,,10.05300841,0,8.512335864,,,,,,,,,,,,,0,40,40,74,1,0.040729225,0,,,,,,,,,,,,,,,,,,,,,,,,,,,,,,,,,,,,,,,,,,,,,,,,,,,,,,,,,,,,,,,,,,,,,,,,,,,,,,,,
,,5ebb96b6cd673a0008ace9ce,2022-09-08_13h16.51.800,CGTgamblingSpanTasks,2022.2.1,Win32,60.0240096,,,,,,,,3.054,,,,,,,,,,,,,,1,n,0.946,0.951019374,0,4.054,1,,,,,,8.217594828,0,0.951019374,,,,,,,,,,,,,0,41,41,87,1,0.458722936,1,,,,,,,,,,,,,,,,,,,,,,,,,,,,,,,,,,,,,,,,,,,,,,,,,,,,,,,,,,,,,,,,,,,,,,,,,,,,,,,,
,,5ebb96b6cd673a0008ace9ce,2022-09-08_13h16.51.800,CGTgamblingSpanTasks,2022.2.1,Win32,60.0240096,,,,,,,,2.5,,,,,,,,,,,,,,2,v,1.5,11.42134125,0,4,1.5,,,,,,12.9904115,0,11.42134125,,,,,,,,,,,,,0,42,42,118,1,0.037876033,0,,,,,,,,,,,,,,,,,,,,,,,,,,,,,,,,,,,,,,,,,,,,,,,,,,,,,,,,,,,,,,,,,,,,,,,,,,,,,,,,
,,5ebb96b6cd673a0008ace9ce,2022-09-08_13h16.51.800,CGTgamblingSpanTasks,2022.2.1,Win32,60.0240096,,,,,,,,3.266,,,,,,,,,,,,,,2,n,0.734,28.33977875,1,4.266,1,,,,,,28.33977875,0,2.768313633,,,,,,,,,,,,,0,43,43,116,1,0.50406901,1,,,,,,,,,,,,,,,,,,,,,,,,,,,,,,,,,,,,,,,,,,,,,,,,,,,,,,,,,,,,,,,,,,,,,,,,,,,,,,,,
,,5ebb96b6cd673a0008ace9ce,2022-09-08_13h16.51.800,CGTgamblingSpanTasks,2022.2.1,Win32,60.0240096,,,,,,,,3.388,,,,,,,,,,,,,,2,n,0.612,25.26994993,1,4.888,1.5,,,,,,25.26994993,0,2.78925142,,,,,,,,,,,,,0,44,44,108,1,0.471582922,1,,,,,,,,,,,,,,,,,,,,,,,,,,,,,,,,,,,,,,,,,,,,,,,,,,,,,,,,,,,,,,,,,,,,,,,,,,,,,,,,
,,5ebb96b6cd673a0008ace9ce,2022-09-08_13h16.51.800,CGTgamblingSpanTasks,2022.2.1,Win32,60.0240096,,,,,,,,3.181,,,,,,,,,,,,,,1,v,0.819,29.75778644,1,4.181,1,,,,,,29.75778644,0,2.810531415,,,,,,,,,,,,,0,45,45,113,1,0.512824233,1,,,,,,,,,,,,,,,,,,,,,,,,,,,,,,,,,,,,,,,,,,,,,,,,,,,,,,,,,,,,,,,,,,,,,,,,,,,,,,,,
,,5ebb96b6cd673a0008ace9ce,2022-09-08_13h16.51.800,CGTgamblingSpanTasks,2022.2.1,Win32,60.0240096,,,,,,,,3.378,,,,,,,,,,,,,,2,n,0.622,0,1,4.378,1,,,,,,22.25959835,0,0.065383587,,,,,,,,,,,,,0,46,46,97,1,0.907413875,0,,,,,,,,,,,,,,,,,,,,,,,,,,,,,,,,,,,,,,,,,,,,,,,,,,,,,,,,,,,,,,,,,,,,,,,,,,,,,,,,
,,5ebb96b6cd673a0008ace9ce,2022-09-08_13h16.51.800,CGTgamblingSpanTasks,2022.2.1,Win32,60.0240096,,,,,,,,3.211,,,,,,,,,,,,,,2,n,0.789,0,1,4.211,1,,,,,,4.941039335,0,5.683635938,,,,,,,,,,,,,0,47,47,9,1,0.025481984,0,,,,,,,,,,,,,,,,,,,,,,,,,,,,,,,,,,,,,,,,,,,,,,,,,,,,,,,,,,,,,,,,,,,,,,,,,,,,,,,,
,,5ebb96b6cd673a0008ace9ce,2022-09-08_13h16.51.800,CGTgamblingSpanTasks,2022.2.1,Win32,60.0240096,,,,,,,,3.295,,,,,,,,,,,,,,1,v,0.705,23.4214135,1,4.795,1.5,,,,,,23.4214135,0,2.485985001,,,,,,,,,,,,,0,48,48,81,1,0.482105905,1,,,,,,,,,,,,,,,,,,,,,,,,,,,,,,,,,,,,,,,,,,,,,,,,,,,,,,,,,,,,,,,,,,,,,,,,,,,,,,,,
,,5ebb96b6cd673a0008ace9ce,2022-09-08_13h16.51.800,CGTgamblingSpanTasks,2022.2.1,Win32,60.0240096,,,,,,,,3.373,,,,,,,,,,,,,,2,n,0.627,26.11188619,1,4.373,1,,,,,,26.11188619,0,0.081942421,,,,,,,,,,,,,0,49,49,105,1,0.905343856,0,,,,,,,,,,,,,,,,,,,,,,,,,,,,,,,,,,,,,,,,,,,,,,,,,,,,,,,,,,,,,,,,,,,,,,,,,,,,,,,,
,,5ebb96b6cd673a0008ace9ce,2022-09-08_13h16.51.800,CGTgamblingSpanTasks,2022.2.1,Win32,60.0240096,,,,,,,,3.416,,,,,,,,,,,,,,2,n,0.584,11.16819157,1,4.916,1.5,,,,,,11.16819157,0,0.941456753,,,,,,,,,,,,,0,50,50,45,1,0.54163803,1,,,,,,,,,,,,,,,,,,,,,,,,,,,,,,,,,,,,,,,,,,,,,,,,,,,,,,,,,,,,,,,,,,,,,,,,,,,,,,,,
,,5ebb96b6cd673a0008ace9ce,2022-09-08_13h16.51.800,CGTgamblingSpanTasks,2022.2.1,Win32,60.0240096,,,,,,,,3.294,,,,,,,,,,,,,,1,v,0.706,0,1,4.794,1.5,,,,,,18.20422443,0,1.635040165,,,,,,,,,,,,,0,51,51,82,1,0.525708991,1,,,,,,,,,,,,,,,,,,,,,,,,,,,,,,,,,,,,,,,,,,,,,,,,,,,,,,,,,,,,,,,,,,,,,,,,,,,,,,,,
,,5ebb96b6cd673a0008ace9ce,2022-09-08_13h16.51.800,CGTgamblingSpanTasks,2022.2.1,Win32,60.0240096,,,,,,,,3.262,,,,,,,,,,,,,,1,v,0.738,0,1,4.262,1,,,,,,27.4965044,0,2.461467004,,,,,,,,,,,,,0,52,52,36,1,0.526550878,1,,,,,,,,,,,,,,,,,,,,,,,,,,,,,,,,,,,,,,,,,,,,,,,,,,,,,,,,,,,,,,,,,,,,,,,,,,,,,,,,
,,5ebb96b6cd673a0008ace9ce,2022-09-08_13h16.51.800,CGTgamblingSpanTasks,2022.2.1,Win32,60.0240096,,,,,,,,3.4,,,,,,,,,,,,,,2,n,0.6,21.48443242,1,4.4,1,,,,,,21.48443242,0,2.229247341,,,,,,,,,,,,,0,53,53,63,1,0.488155912,1,,,,,,,,,,,,,,,,,,,,,,,,,,,,,,,,,,,,,,,,,,,,,,,,,,,,,,,,,,,,,,,,,,,,,,,,,,,,,,,,
,,5ebb96b6cd673a0008ace9ce,2022-09-08_13h16.51.800,CGTgamblingSpanTasks,2022.2.1,Win32,60.0240096,,,,,,,,3.465,,,,,,,,,,,,,,2,n,0.535,0,1,4.465,1,,,,,,23.0613391,0,2.387726776,,,,,,,,,,,,,0,54,54,69,1,0.488727763,1,,,,,,,,,,,,,,,,,,,,,,,,,,,,,,,,,,,,,,,,,,,,,,,,,,,,,,,,,,,,,,,,,,,,,,,,,,,,,,,,
,,5ebb96b6cd673a0008ace9ce,2022-09-08_13h16.51.800,CGTgamblingSpanTasks,2022.2.1,Win32,60.0240096,,,,,,,,3.349,,,,,,,,,,,,,,2,n,0.651,0,1,4.849,1.5,,,,,,18.50662664,0,0.052546026,,,,,,,,,,,,,0,55,55,112,1,0.908444837,0,,,,,,,,,,,,,,,,,,,,,,,,,,,,,,,,,,,,,,,,,,,,,,,,,,,,,,,,,,,,,,,,,,,,,,,,,,,,,,,,
,,5ebb96b6cd673a0008ace9ce,2022-09-08_13h16.51.800,CGTgamblingSpanTasks,2022.2.1,Win32,60.0240096,,,,,,,,3.49,,,,,,,,,,,,,,1,v,0.51,0,1,4.99,1.5,,,,,,17.5608285,0,1.825111303,,,,,,,,,,,,,0,56,56,104,1,0.487721116,1,,,,,,,,,,,,,,,,,,,,,,,,,,,,,,,,,,,,,,,,,,,,,,,,,,,,,,,,,,,,,,,,,,,,,,,,,,,,,,,,
,,5ebb96b6cd673a0008ace9ce,2022-09-08_13h16.51.800,CGTgamblingSpanTasks,2022.2.1,Win32,60.0240096,,,,,,,,3.234,,,,,,,,,,,,,,1,v,0.766,24.66627941,1,4.734,1.5,,,,,,24.66627941,0,2.765426402,,,,,,,,,,,,,0,57,57,24,1,0.467360588,1,,,,,,,,,,,,,,,,,,,,,,,,,,,,,,,,,,,,,,,,,,,,,,,,,,,,,,,,,,,,,,,,,,,,,,,,,,,,,,,,
,,5ebb96b6cd673a0008ace9ce,2022-09-08_13h16.51.800,CGTgamblingSpanTasks,2022.2.1,Win32,60.0240096,,,,,,,,3.217,,,,,,,,,,,,,,1,n,0.783,4.462262453,0,4.217,1,,,,,,0.192759042,0,4.462262453,,,,,,,,,,,,,0,58,58,52,1,0.003553223,0,,,,,,,,,,,,,,,,,,,,,,,,,,,,,,,,,,,,,,,,,,,,,,,,,,,,,,,,,,,,,,,,,,,,,,,,,,,,,,,,
,,5ebb96b6cd673a0008ace9ce,2022-09-08_13h16.51.800,CGTgamblingSpanTasks,2022.2.1,Win32,60.0240096,,,,,,,,3.476,,,,,,,,,,,,,,1,v,0.524,25.65316415,1,4.976,1.5,,,,,,25.65316415,0,0.079652925,,,,,,,,,,,,,0,59,59,109,1,0.90568168,0,,,,,,,,,,,,,,,,,,,,,,,,,,,,,,,,,,,,,,,,,,,,,,,,,,,,,,,,,,,,,,,,,,,,,,,,,,,,,,,,
,,5ebb96b6cd673a0008ace9ce,2022-09-08_13h16.51.800,CGTgamblingSpanTasks,2022.2.1,Win32,60.0240096,,,,,,,,3.187,,,,,,,,,,,,,,2,n,0.813,18.51345298,1,4.687,1.5,,,,,,18.51345298,0,1.932334278,,,,,,,,,,,,,0,60,60,31,1,0.48658696,1,,,,,,,,,,,,,,,,,,,,,,,,,,,,,,,,,,,,,,,,,,,,,,,,,,,,,,,,,,,,,,,,,,,,,,,,,,,,,,,,
,,5ebb96b6cd673a0008ace9ce,2022-09-08_13h16.51.800,CGTgamblingSpanTasks,2022.2.1,Win32,60.0240096,,,,,,,,3.453,,,,,,,,,,,,,,2,n,0.547,15.43649625,1,4.453,1,,,,,,15.43649625,0,1.65459324,,,,,,,,,,,,,0,61,61,33,1,0.479480163,1,,,,,,,,,,,,,,,,,,,,,,,,,,,,,,,,,,,,,,,,,,,,,,,,,,,,,,,,,,,,,,,,,,,,,,,,,,,,,,,,
,,5ebb96b6cd673a0008ace9ce,2022-09-08_13h16.51.800,CGTgamblingSpanTasks,2022.2.1,Win32,60.0240096,,,,,,,,3.405,,,,,,,,,,,,,,2,n,0.595,0,1,4.905,1.5,,,,,,22.87092517,0,0.059276504,,,,,,,,,,,,,0,62,62,27,1,0.911114935,0,,,,,,,,,,,,,,,,,,,,,,,,,,,,,,,,,,,,,,,,,,,,,,,,,,,,,,,,,,,,,,,,,,,,,,,,,,,,,,,,
,,5ebb96b6cd673a0008ace9ce,2022-09-08_13h16.51.800,CGTgamblingSpanTasks,2022.2.1,Win32,60.0240096,,,,,,,,3.482,,,,,,,,,,,,,,2,n,0.518,19.5450126,1,4.482,1,,,,,,19.5450126,0,2.123581464,,,,,,,,,,,,,0,63,63,65,1,0.475836144,1,,,,,,,,,,,,,,,,,,,,,,,,,,,,,,,,,,,,,,,,,,,,,,,,,,,,,,,,,,,,,,,,,,,,,,,,,,,,,,,,
,,5ebb96b6cd673a0008ace9ce,2022-09-08_13h16.51.800,CGTgamblingSpanTasks,2022.2.1,Win32,60.0240096,,,,,,,,3.447,,,,,,,,,,,,,,2,n,0.553,0,1,4.947,1.5,,,,,,21.00799273,0,0.067969053,,,,,,,,,,,,,0,64,64,92,1,0.904360262,0,,,,,,,,,,,,,,,,,,,,,,,,,,,,,,,,,,,,,,,,,,,,,,,,,,,,,,,,,,,,,,,,,,,,,,,,,,,,,,,,
,,5ebb96b6cd673a0008ace9ce,2022-09-08_13h16.51.800,CGTgamblingSpanTasks,2022.2.1,Win32,60.0240096,,,,,,,,3.27,,,,,,,,,,,,,,2,v,0.73,7.646213173,0,4.77,1.5,,,,,,2.042350179,0,7.646213173,,,,,,,,,,,,,0,65,65,53,1,0.009522273,0,,,,,,,,,,,,,,,,,,,,,,,,,,,,,,,,,,,,,,,,,,,,,,,,,,,,,,,,,,,,,,,,,,,,,,,,,,,,,,,,
,,5ebb96b6cd673a0008ace9ce,2022-09-08_13h16.51.800,CGTgamblingSpanTasks,2022.2.1,Win32,60.0240096,,,,,,,,3.256,,,,,,,,,,,,,,2,n,0.744,0,1,4.756,1.5,,,,,,26.16821818,0,0.093528069,,,,,,,,,,,,,0,66,66,42,1,0.901022427,0,,,,,,,,,,,,,,,,,,,,,,,,,,,,,,,,,,,,,,,,,,,,,,,,,,,,,,,,,,,,,,,,,,,,,,,,,,,,,,,,
,,5ebb96b6cd673a0008ace9ce,2022-09-08_13h16.51.800,CGTgamblingSpanTasks,2022.2.1,Win32,60.0240096,,,,,,,,3.304,,,,,,,,,,,,,,2,n,0.696,0,1,4.304,1,,,,,,9.012590634,0,1.002188111,,,,,,,,,,,,,0,67,67,12,1,0.46958041,1,,,,,,,,,,,,,,,,,,,,,,,,,,,,,,,,,,,,,,,,,,,,,,,,,,,,,,,,,,,,,,,,,,,,,,,,,,,,,,,,
,,5ebb96b6cd673a0008ace9ce,2022-09-08_13h16.51.800,CGTgamblingSpanTasks,2022.2.1,Win32,60.0240096,,,,,,,,3.385,,,,,,,,,,,,,,1,v,0.615,0,1,4.885,1.5,,,,,,25.54604005,0,0.088845411,,,,,,,,,,,,,0,68,68,79,1,0.901957831,0,,,,,,,,,,,,,,,,,,,,,,,,,,,,,,,,,,,,,,,,,,,,,,,,,,,,,,,,,,,,,,,,,,,,,,,,,,,,,,,,
,,5ebb96b6cd673a0008ace9ce,2022-09-08_13h16.51.800,CGTgamblingSpanTasks,2022.2.1,Win32,60.0240096,,,,,,,,3.223,,,,,,,,,,,,,,1,v,0.777,0,1,4.723,1.5,,,,,,22.86604061,0,2.293289792,,,,,,,,,,,,,0,69,69,51,1,0.49715382,1,,,,,,,,,,,,,,,,,,,,,,,,,,,,,,,,,,,,,,,,,,,,,,,,,,,,,,,,,,,,,,,,,,,,,,,,,,,,,,,,
,,5ebb96b6cd673a0008ace9ce,2022-09-08_13h16.51.800,CGTgamblingSpanTasks,2022.2.1,Win32,60.0240096,,,,,,,,3.215,,,,,,,,,,,,,,2,v,0.785,3.877530383,0,4.715,1.5,,,,,,3.471484939,0,3.877530383,,,,,,,,,,,,,0,70,70,40,1,0.02623078,0,,,,,,,,,,,,,,,,,,,,,,,,,,,,,,,,,,,,,,,,,,,,,,,,,,,,,,,,,,,,,,,,,,,,,,,,,,,,,,,,
,,5ebb96b6cd673a0008ace9ce,2022-09-08_13h16.51.800,CGTgamblingSpanTasks,2022.2.1,Win32,60.0240096,,,,,,,,3.336,,,,,,,,,,,,,,1,v,0.664,28.13634754,1,4.836,1.5,,,,,,28.13634754,0,2.532806323,,,,,,,,,,,,,0,71,71,28,1,0.525136524,1,,,,,,,,,,,,,,,,,,,,,,,,,,,,,,,,,,,,,,,,,,,,,,,,,,,,,,,,,,,,,,,,,,,,,,,,,,,,,,,,
,,5ebb96b6cd673a0008ace9ce,2022-09-08_13h16.51.800,CGTgamblingSpanTasks,2022.2.1,Win32,60.0240096,,,,,,,,3.03,,,,,,,,,,,,,,2,v,0.97,6.833409611,0,4.53,1.5,,,,,,6.325091157,0,6.833409611,,,,,,,,,,,,,0,72,72,58,1,0.027113638,0,,,,,,,,,,,,,,,,,,,,,,,,,,,,,,,,,,,,,,,,,,,,,,,,,,,,,,,,,,,,,,,,,,,,,,,,,,,,,,,,
,,5ebb96b6cd673a0008ace9ce,2022-09-08_13h16.51.800,CGTgamblingSpanTasks,2022.2.1,Win32,60.0240096,,,,,,,,2.857,,,,,,,,,,,,,,2,n,1.143,19.3050342,1,3.857,1,,,,,,19.3050342,0,2.030232342,,,,,,,,,,,,,0,73,73,73,1,0.484573227,1,,,,,,,,,,,,,,,,,,,,,,,,,,,,,,,,,,,,,,,,,,,,,,,,,,,,,,,,,,,,,,,,,,,,,,,,,,,,,,,,
,,5ebb96b6cd673a0008ace9ce,2022-09-08_13h16.51.800,CGTgamblingSpanTasks,2022.2.1,Win32,60.0240096,,,,,,,,3.295,,,,,,,,,,,,,,1,v,0.705,21.39646914,1,4.795,1.5,,,,,,21.39646914,0,0.072474078,,,,,,,,,,,,,0,74,74,3,1,0.902848133,0,,,,,,,,,,,,,,,,,,,,,,,,,,,,,,,,,,,,,,,,,,,,,,,,,,,,,,,,,,,,,,,,,,,,,,,,,,,,,,,,
,,5ebb96b6cd673a0008ace9ce,2022-09-08_13h16.51.800,CGTgamblingSpanTasks,2022.2.1,Win32,60.0240096,,,,,,,,3.25,,,,,,,,,,,,,,2,v,0.75,7.50753835,0,4.25,1,,,,,,2.231316635,0,7.50753835,,,,,,,,,,,,,0,75,75,29,1,0.010273427,0,,,,,,,,,,,,,,,,,,,,,,,,,,,,,,,,,,,,,,,,,,,,,,,,,,,,,,,,,,,,,,,,,,,,,,,,,,,,,,,,
,,5ebb96b6cd673a0008ace9ce,2022-09-08_13h16.51.800,CGTgamblingSpanTasks,2022.2.1,Win32,60.0240096,,,,,,,,3.154,,,,,,,,,,,,,,1,v,0.846,19.30622782,1,4.154,1,,,,,,19.30622782,0,10.31611309,,,,,,,,,,,,,0,76,76,1,1,0.091105656,0,,,,,,,,,,,,,,,,,,,,,,,,,,,,,,,,,,,,,,,,,,,,,,,,,,,,,,,,,,,,,,,,,,,,,,,,,,,,,,,,
,,5ebb96b6cd673a0008ace9ce,2022-09-08_13h16.51.800,CGTgamblingSpanTasks,2022.2.1,Win32,60.0240096,,,,,,,,3.352,,,,,,,,,,,,,,2,v,0.648,7.850775577,0,4.852,1.5,,,,,,4.622707531,0,7.850775577,,,,,,,,,,,,,0,77,77,6,1,0.017737407,0,,,,,,,,,,,,,,,,,,,,,,,,,,,,,,,,,,,,,,,,,,,,,,,,,,,,,,,,,,,,,,,,,,,,,,,,,,,,,,,,
,,5ebb96b6cd673a0008ace9ce,2022-09-08_13h16.51.800,CGTgamblingSpanTasks,2022.2.1,Win32,60.0240096,,,,,,,,3.334,,,,,,,,,,,,,,1,v,0.666,0,1,4.334,1,,,,,,27.7711693,0,2.320849632,,,,,,,,,,,,,0,78,78,94,1,0.543786368,1,,,,,,,,,,,,,,,,,,,,,,,,,,,,,,,,,,,,,,,,,,,,,,,,,,,,,,,,,,,,,,,,,,,,,,,,,,,,,,,,
,,5ebb96b6cd673a0008ace9ce,2022-09-08_13h16.51.800,CGTgamblingSpanTasks,2022.2.1,Win32,60.0240096,,,,,,,,3.123,,,,,,,,,,,,,,2,v,0.877,6.781500919,0,4.623,1.5,,,,,,8.363821911,0,6.781500919,,,,,,,,,,,,,0,79,79,61,1,0.044227959,0,,,,,,,,,,,,,,,,,,,,,,,,,,,,,,,,,,,,,,,,,,,,,,,,,,,,,,,,,,,,,,,,,,,,,,,,,,,,,,,,
,,5ebb96b6cd673a0008ace9ce,2022-09-08_13h16.51.800,CGTgamblingSpanTasks,2022.2.1,Win32,60.0240096,,,,,,,,3.022,,,,,,,,,,,,,,2,n,0.978,25.76582409,1,4.022,1,,,,,,25.76582409,0,2.393193076,,,,,,,,,,,,,0,80,80,46,1,0.517129855,1,,,,,,,,,,,,,,,,,,,,,,,,,,,,,,,,,,,,,,,,,,,,,,,,,,,,,,,,,,,,,,,,,,,,,,,,,,,,,,,,
,,5ebb96b6cd673a0008ace9ce,2022-09-08_13h16.51.800,CGTgamblingSpanTasks,2022.2.1,Win32,60.0240096,,,,,,,,3.217,,,,,,,,,,,,,,2,n,0.783,0,1,4.217,1,,,,,,15.87668502,0,8.42547829,,,,,,,,,,,,,0,81,81,56,1,0.092099462,0,,,,,,,,,,,,,,,,,,,,,,,,,,,,,,,,,,,,,,,,,,,,,,,,,,,,,,,,,,,,,,,,,,,,,,,,,,,,,,,,
,,5ebb96b6cd673a0008ace9ce,2022-09-08_13h16.51.800,CGTgamblingSpanTasks,2022.2.1,Win32,60.0240096,,,,,,,,3.03,,,,,,,,,,,,,,1,n,0.97,11.6744431,0,4.03,1,,,,,,10.43004651,0,11.6744431,,,,,,,,,,,,,0,82,82,15,1,0.026176489,0,,,,,,,,,,,,,,,,,,,,,,,,,,,,,,,,,,,,,,,,,,,,,,,,,,,,,,,,,,,,,,,,,,,,,,,,,,,,,,,,
,,5ebb96b6cd673a0008ace9ce,2022-09-08_13h16.51.800,CGTgamblingSpanTasks,2022.2.1,Win32,60.0240096,,,,,,,,3.202,,,,,,,,,,,,,,2,n,0.798,0,1,4.202,1,,,,,,27.39221343,0,2.743407746,,,,,,,,,,,,,0,83,83,47,1,0.49752044,1,,,,,,,,,,,,,,,,,,,,,,,,,,,,,,,,,,,,,,,,,,,,,,,,,,,,,,,,,,,,,,,,,,,,,,,,,,,,,,,,
,,5ebb96b6cd673a0008ace9ce,2022-09-08_13h16.51.800,CGTgamblingSpanTasks,2022.2.1,Win32,60.0240096,,,,,,,,3.296,,,,,,,,,,,,,,2,n,0.704,0,1,4.296,1,,,,,,28.9381277,0,2.663622024,,,,,,,,,,,,,0,84,84,103,1,0.519453367,1,,,,,,,,,,,,,,,,,,,,,,,,,,,,,,,,,,,,,,,,,,,,,,,,,,,,,,,,,,,,,,,,,,,,,,,,,,,,,,,,
,,5ebb96b6cd673a0008ace9ce,2022-09-08_13h16.51.800,CGTgamblingSpanTasks,2022.2.1,Win32,60.0240096,,,,,,,,3.368,,,,,,,,,,,,,,1,v,0.632,24.57684014,1,4.368,1,,,,,,24.57684014,0,0.061756244,,,,,,,,,,,,,0,85,85,68,1,0.911988903,0,,,,,,,,,,,,,,,,,,,,,,,,,,,,,,,,,,,,,,,,,,,,,,,,,,,,,,,,,,,,,,,,,,,,,,,,,,,,,,,,
,,5ebb96b6cd673a0008ace9ce,2022-09-08_13h16.51.800,CGTgamblingSpanTasks,2022.2.1,Win32,60.0240096,,,,,,,,3.327,,,,,,,,,,,,,,2,n,0.673,18.16238569,1,4.327,1,,,,,,18.16238569,0,1.540604093,,,,,,,,,,,,,0,86,86,34,1,0.540092491,1,,,,,,,,,,,,,,,,,,,,,,,,,,,,,,,,,,,,,,,,,,,,,,,,,,,,,,,,,,,,,,,,,,,,,,,,,,,,,,,,
,,5ebb96b6cd673a0008ace9ce,2022-09-08_13h16.51.800,CGTgamblingSpanTasks,2022.2.1,Win32,60.0240096,,,,,,,,3.483,,,,,,,,,,,,,,1,v,0.517,28.18900855,1,4.483,1,,,,,,28.18900855,0,0.05384276,,,,,,,,,,,,,0,87,87,55,1,0.919081308,0,,,,,,,,,,,,,,,,,,,,,,,,,,,,,,,,,,,,,,,,,,,,,,,,,,,,,,,,,,,,,,,,,,,,,,,,,,,,,,,,
,,5ebb96b6cd673a0008ace9ce,2022-09-08_13h16.51.800,CGTgamblingSpanTasks,2022.2.1,Win32,60.0240096,,,,,,,,3.466,,,,,,,,,,,,,,1,v,0.534,23.24777057,1,4.466,1,,,,,,23.24777057,0,2.003482335,,,,,,,,,,,,,0,88,88,59,1,0.536135174,1,,,,,,,,,,,,,,,,,,,,,,,,,,,,,,,,,,,,,,,,,,,,,,,,,,,,,,,,,,,,,,,,,,,,,,,,,,,,,,,,
,,5ebb96b6cd673a0008ace9ce,2022-09-08_13h16.51.800,CGTgamblingSpanTasks,2022.2.1,Win32,60.0240096,,,,,,,,3.384,,,,,,,,,,,,,,1,v,0.616,0,1,4.884,1.5,,,,,,21.2188881,0,2.067660742,,,,,,,,,,,,,0,89,89,107,1,0.50470775,1,,,,,,,,,,,,,,,,,,,,,,,,,,,,,,,,,,,,,,,,,,,,,,,,,,,,,,,,,,,,,,,,,,,,,,,,,,,,,,,,
,,5ebb96b6cd673a0008ace9ce,2022-09-08_13h16.51.800,CGTgamblingSpanTasks,2022.2.1,Win32,60.0240096,,,,,,,,3.483,,,,,,,,,,,,,,1,v,0.517,0,1,4.983,1.5,,,,,,27.93093084,0,0.050207531,,,,,,,,,,,,,0,90,90,83,1,0.920505936,0,,,,,,,,,,,,,,,,,,,,,,,,,,,,,,,,,,,,,,,,,,,,,,,,,,,,,,,,,,,,,,,,,,,,,,,,,,,,,,,,
,,5ebb96b6cd673a0008ace9ce,2022-09-08_13h16.51.800,CGTgamblingSpanTasks,2022.2.1,Win32,60.0240096,,,,,,,,3.186,,,,,,,,,,,,,,1,v,0.814,8.670591867,1,4.686,1.5,,,,,,8.670591867,0,1.025847652,,,,,,,,,,,,,0,91,91,18,1,0.452680459,1,,,,,,,,,,,,,,,,,,,,,,,,,,,,,,,,,,,,,,,,,,,,,,,,,,,,,,,,,,,,,,,,,,,,,,,,,,,,,,,,
,,5ebb96b6cd673a0008ace9ce,2022-09-08_13h16.51.800,CGTgamblingSpanTasks,2022.2.1,Win32,60.0240096,,,,,,,,3.377,,,,,,,,,,,,,,2,n,0.623,0,1,4.877,1.5,,,,,,17.30137174,0,1.716380842,,,,,,,,,,,,,0,92,92,20,1,0.500020285,1,,,,,,,,,,,,,,,,,,,,,,,,,,,,,,,,,,,,,,,,,,,,,,,,,,,,,,,,,,,,,,,,,,,,,,,,,,,,,,,,
,,5ebb96b6cd673a0008ace9ce,2022-09-08_13h16.51.800,CGTgamblingSpanTasks,2022.2.1,Win32,60.0240096,,,,,,,,3.392,,,,,,,,,,,,,,2,v,0.608,10.41201161,0,4.392,1,,,,,,6.307062696,0,10.41201161,,,,,,,,,,,,,0,93,93,23,1,0.018187109,0,,,,,,,,,,,,,,,,,,,,,,,,,,,,,,,,,,,,,,,,,,,,,,,,,,,,,,,,,,,,,,,,,,,,,,,,,,,,,,,,
,,5ebb96b6cd673a0008ace9ce,2022-09-08_13h16.51.800,CGTgamblingSpanTasks,2022.2.1,Win32,60.0240096,,,,,,,,3.382,,,,,,,,,,,,,,1,v,0.618,15.21435748,1,4.882,1.5,,,,,,15.21435748,0,10.3417501,,,,,,,,,,,,,0,94,94,72,1,0.060969226,0,,,,,,,,,,,,,,,,,,,,,,,,,,,,,,,,,,,,,,,,,,,,,,,,,,,,,,,,,,,,,,,,,,,,,,,,,,,,,,,,
,,5ebb96b6cd673a0008ace9ce,2022-09-08_13h16.51.800,CGTgamblingSpanTasks,2022.2.1,Win32,60.0240096,,,,,,,,3.031,,,,,,,,,,,,,,1,v,0.969,28.14876717,1,4.031,1,,,,,,28.14876717,0,3.117906378,,,,,,,,,,,,,0,95,95,76,1,0.470636736,1,,,,,,,,,,,,,,,,,,,,,,,,,,,,,,,,,,,,,,,,,,,,,,,,,,,,,,,,,,,,,,,,,,,,,,,,,,,,,,,,
,,5ebb96b6cd673a0008ace9ce,2022-09-08_13h16.51.800,CGTgamblingSpanTasks,2022.2.1,Win32,60.0240096,,,,,,,,3.332,,,,,,,,,,,,,,2,n,0.668,0,1,4.832,1.5,,,,,,29.77342428,0,2.838865588,,,,,,,,,,,,,0,96,96,57,1,0.510363415,1,,,,,,,,,,,,,,,,,,,,,,,,,,,,,,,,,,,,,,,,,,,,,,,,,,,,,,,,,,,,,,,,,,,,,,,,,,,,,,,,
,,5ebb96b6cd673a0008ace9ce,2022-09-08_13h16.51.800,CGTgamblingSpanTasks,2022.2.1,Win32,60.0240096,,,,,,,,2.63,,,,,,,,,,,,,,2,n,1.37,6.662965216,1,3.63,1,,,,,,6.662965216,0,6.091504705,,,,,,,,,,,,,0,97,97,102,1,0.035087099,0,,,,,,,,,,,,,,,,,,,,,,,,,,,,,,,,,,,,,,,,,,,,,,,,,,,,,,,,,,,,,,,,,,,,,,,,,,,,,,,,
,,5ebb96b6cd673a0008ace9ce,2022-09-08_13h16.51.800,CGTgamblingSpanTasks,2022.2.1,Win32,60.0240096,,,,,,,,2.87,,,,,,,,,,,,,,1,v,1.13,7.066129113,1,4.37,1.5,,,,,,7.066129113,0,0.585581699,,,,,,,,,,,,,0,98,98,19,1,0.545860632,1,,,,,,,,,,,,,,,,,,,,,,,,,,,,,,,,,,,,,,,,,,,,,,,,,,,,,,,,,,,,,,,,,,,,,,,,,,,,,,,,
,,5ebb96b6cd673a0008ace9ce,2022-09-08_13h16.51.800,CGTgamblingSpanTasks,2022.2.1,Win32,60.0240096,,,,,,,,3.326,,,,,,,,,,,,,,1,v,0.674,26.4985979,1,4.326,1,,,,,,26.4985979,0,0.051324376,,,,,,,,,,,,,0,99,99,106,1,0.918747215,0,,,,,,,,,,,,,,,,,,,,,,,,,,,,,,,,,,,,,,,,,,,,,,,,,,,,,,,,,,,,,,,,,,,,,,,,,,,,,,,,
,,5ebb96b6cd673a0008ace9ce,2022-09-08_13h16.51.800,CGTgamblingSpanTasks,2022.2.1,Win32,60.0240096,,,,,,,,3.221,,,,,,,,,,,,,,2,n,0.779,0,1,4.221,1,,,,,,21.17800335,0,0.059830985,,,,,,,,,,,,,0,100,100,67,1,0.908594974,0,,,,,,,,,,,,,,,,,,,,,,,,,,,,,,,,,,,,,,,,,,,,,,,,,,,,,,,,,,,,,,,,,,,,,,,,,,,,,,,,
,,5ebb96b6cd673a0008ace9ce,2022-09-08_13h16.51.800,CGTgamblingSpanTasks,2022.2.1,Win32,60.0240096,,,,,,,,3.167,,,,,,,,,,,,,,2,n,0.833,0,1,4.667,1.5,,,,,,27.88092897,0,2.771762788,,,,,,,,,,,,,0,101,101,117,1,0.499466648,1,,,,,,,,,,,,,,,,,,,,,,,,,,,,,,,,,,,,,,,,,,,,,,,,,,,,,,,,,,,,,,,,,,,,,,,,,,,,,,,,
,,5ebb96b6cd673a0008ace9ce,2022-09-08_13h16.51.800,CGTgamblingSpanTasks,2022.2.1,Win32,60.0240096,,,,,,,,3.366,,,,,,,,,,,,,,1,v,0.634,0,1,4.366,1,,,,,,22.72923833,0,0.067170781,,,,,,,,,,,,,0,102,102,86,1,0.907226703,0,,,,,,,,,,,,,,,,,,,,,,,,,,,,,,,,,,,,,,,,,,,,,,,,,,,,,,,,,,,,,,,,,,,,,,,,,,,,,,,,
,,5ebb96b6cd673a0008ace9ce,2022-09-08_13h16.51.800,CGTgamblingSpanTasks,2022.2.1,Win32,60.0240096,,,,,,,,3.35,,,,,,,,,,,,,,1,v,0.65,25.21882231,1,4.35,1,,,,,,25.21882231,0,0.085746782,,,,,,,,,,,,,0,103,103,64,1,0.90272076,0,,,,,,,,,,,,,,,,,,,,,,,,,,,,,,,,,,,,,,,,,,,,,,,,,,,,,,,,,,,,,,,,,,,,,,,,,,,,,,,,
,,5ebb96b6cd673a0008ace9ce,2022-09-08_13h16.51.800,CGTgamblingSpanTasks,2022.2.1,Win32,60.0240096,,,,,,,,3.086,,,,,,,,,,,,,,2,n,0.914,0,1,4.086,1,,,,,,7.534278541,0,0.747140182,,,,,,,,,,,,,0,104,104,37,1,0.50012466,1,,,,,,,,,,,,,,,,,,,,,,,,,,,,,,,,,,,,,,,,,,,,,,,,,,,,,,,,,,,,,,,,,,,,,,,,,,,,,,,,
,,5ebb96b6cd673a0008ace9ce,2022-09-08_13h16.51.800,CGTgamblingSpanTasks,2022.2.1,Win32,60.0240096,,,,,,,,3.39,,,,,,,,,,,,,,1,v,0.61,0,1,4.39,1,,,,,,23.59556381,0,2.464662219,,,,,,,,,,,,,0,105,105,22,1,0.486383205,1,,,,,,,,,,,,,,,,,,,,,,,,,,,,,,,,,,,,,,,,,,,,,,,,,,,,,,,,,,,,,,,,,,,,,,,,,,,,,,,,
,,5ebb96b6cd673a0008ace9ce,2022-09-08_13h16.51.800,CGTgamblingSpanTasks,2022.2.1,Win32,60.0240096,,,,,,,,3.164,,,,,,,,,,,,,,2,n,0.836,17.92584289,1,4.164,1,,,,,,17.92584289,0,1.878232496,,,,,,,,,,,,,0,106,106,5,1,0.485559263,1,,,,,,,,,,,,,,,,,,,,,,,,,,,,,,,,,,,,,,,,,,,,,,,,,,,,,,,,,,,,,,,,,,,,,,,,,,,,,,,,
,,5ebb96b6cd673a0008ace9ce,2022-09-08_13h16.51.800,CGTgamblingSpanTasks,2022.2.1,Win32,60.0240096,,,,,,,,3.199,,,,,,,,,,,,,,1,v,0.801,13.4287264,1,4.199,1,,,,,,13.4287264,0,1.317368801,,,,,,,,,,,,,0,107,107,100,1,0.502953125,1,,,,,,,,,,,,,,,,,,,,,,,,,,,,,,,,,,,,,,,,,,,,,,,,,,,,,,,,,,,,,,,,,,,,,,,,,,,,,,,,
,,5ebb96b6cd673a0008ace9ce,2022-09-08_13h16.51.800,CGTgamblingSpanTasks,2022.2.1,Win32,60.0240096,,,,,,,,3.239,,,,,,,,,,,,,,1,v,0.761,28.94627214,1,4.239,1,,,,,,28.94627214,0,2.701896413,,,,,,,,,,,,,0,108,108,111,1,0.515860759,1,,,,,,,,,,,,,,,,,,,,,,,,,,,,,,,,,,,,,,,,,,,,,,,,,,,,,,,,,,,,,,,,,,,,,,,,,,,,,,,,
,,5ebb96b6cd673a0008ace9ce,2022-09-08_13h16.51.800,CGTgamblingSpanTasks,2022.2.1,Win32,60.0240096,,,,,,,,3.192,,,,,,,,,,,,,,2,n,0.808,0,1,4.192,1,,,,,,28.9323758,0,2.893007023,,,,,,,,,,,,,0,109,109,11,1,0.497943321,1,,,,,,,,,,,,,,,,,,,,,,,,,,,,,,,,,,,,,,,,,,,,,,,,,,,,,,,,,,,,,,,,,,,,,,,,,,,,,,,,
,,5ebb96b6cd673a0008ace9ce,2022-09-08_13h16.51.800,CGTgamblingSpanTasks,2022.2.1,Win32,60.0240096,,,,,,,,3.365,,,,,,,,,,,,,,2,n,0.635,27.2532142,1,4.865,1.5,,,,,,27.2532142,0,0.08089327,,,,,,,,,,,,,0,110,110,119,1,0.907091845,0,,,,,,,,,,,,,,,,,,,,,,,,,,,,,,,,,,,,,,,,,,,,,,,,,,,,,,,,,,,,,,,,,,,,,,,,,,,,,,,,
,,5ebb96b6cd673a0008ace9ce,2022-09-08_13h16.51.800,CGTgamblingSpanTasks,2022.2.1,Win32,60.0240096,,,,,,,,3.456,,,,,,,,,,,,,,2,n,0.544,0,1,4.956,1.5,,,,,,21.16780451,0,2.469465385,,,,,,,,,,,,,0,111,111,32,1,0.456531699,1,,,,,,,,,,,,,,,,,,,,,,,,,,,,,,,,,,,,,,,,,,,,,,,,,,,,,,,,,,,,,,,,,,,,,,,,,,,,,,,,
,,5ebb96b6cd673a0008ace9ce,2022-09-08_13h16.51.800,CGTgamblingSpanTasks,2022.2.1,Win32,60.0240096,,,,,,,,3.375,,,,,,,,,,,,,,1,v,0.625,13.84410806,1,4.375,1,,,,,,13.84410806,0,1.535873964,,,,,,,,,,,,,0,112,112,88,1,0.470209002,1,,,,,,,,,,,,,,,,,,,,,,,,,,,,,,,,,,,,,,,,,,,,,,,,,,,,,,,,,,,,,,,,,,,,,,,,,,,,,,,,
,,5ebb96b6cd673a0008ace9ce,2022-09-08_13h16.51.800,CGTgamblingSpanTasks,2022.2.1,Win32,60.0240096,,,,,,,,3.164,,,,,,,,,,,,,,2,n,0.836,0,1,4.664,1.5,,,,,,11.08143071,0,1.207538756,,,,,,,,,,,,,0,113,113,84,1,0.475047453,1,,,,,,,,,,,,,,,,,,,,,,,,,,,,,,,,,,,,,,,,,,,,,,,,,,,,,,,,,,,,,,,,,,,,,,,,,,,,,,,,
,,5ebb96b6cd673a0008ace9ce,2022-09-08_13h16.51.800,CGTgamblingSpanTasks,2022.2.1,Win32,60.0240096,,,,,,,,2.837,,,,,,,,,,,,,,2,v,1.163,4.251676631,0,3.837,1,,,,,,3.395192929,0,4.251676631,,,,,,,,,,,,,0,114,114,7,1,0.023467153,0,,,,,,,,,,,,,,,,,,,,,,,,,,,,,,,,,,,,,,,,,,,,,,,,,,,,,,,,,,,,,,,,,,,,,,,,,,,,,,,,
,,5ebb96b6cd673a0008ace9ce,2022-09-08_13h16.51.800,CGTgamblingSpanTasks,2022.2.1,Win32,60.0240096,,,,,,,,3.12,,,,,,,,,,,,,,2,n,0.88,0,1,4.62,1.5,,,,,,19.58698544,0,9.936178001,,,,,,,,,,,,,0,115,115,77,1,0.098812204,0,,,,,,,,,,,,,,,,,,,,,,,,,,,,,,,,,,,,,,,,,,,,,,,,,,,,,,,,,,,,,,,,,,,,,,,,,,,,,,,,
,,5ebb96b6cd673a0008ace9ce,2022-09-08_13h16.51.800,CGTgamblingSpanTasks,2022.2.1,Win32,60.0240096,,,,,,,,3.344,,,,,,,,,,,,,,2,n,0.656,25.0707644,1,4.344,1,,,,,,25.0707644,0,0.067651625,,,,,,,,,,,,,0,116,116,70,1,0.909952349,0,,,,,,,,,,,,,,,,,,,,,,,,,,,,,,,,,,,,,,,,,,,,,,,,,,,,,,,,,,,,,,,,,,,,,,,,,,,,,,,,
,,5ebb96b6cd673a0008ace9ce,2022-09-08_13h16.51.800,CGTgamblingSpanTasks,2022.2.1,Win32,60.0240096,,,,,,,,2.937,,,,,,,,,,,,,,2,v,1.063,11.93550497,0,4.437,1.5,,,,,,14.20587264,0,11.93550497,,,,,,,,,,,,,0,117,117,21,1,0.041340301,0,,,,,,,,,,,,,,,,,,,,,,,,,,,,,,,,,,,,,,,,,,,,,,,,,,,,,,,,,,,,,,,,,,,,,,,,,,,,,,,,
,,5ebb96b6cd673a0008ace9ce,2022-09-08_13h16.51.800,CGTgamblingSpanTasks,2022.2.1,Win32,60.0240096,,,,,,,,2.833,,,,,,,,,,,,,,2,v,1.167,11.35147481,0,3.833,1,,,,,,17.67865084,0,11.35147481,,,,,,,,,,,,,0,118,118,91,1,0.067304606,0,,,,,,,,,,,,,,,,,,,,,,,,,,,,,,,,,,,,,,,,,,,,,,,,,,,,,,,,,,,,,,,,,,,,,,,,,,,,,,,,
,,5ebb96b6cd673a0008ace9ce,2022-09-08_13h16.51.800,CGTgamblingSpanTasks,2022.2.1,Win32,60.0240096,,,,,,,,3.191,,,,,,,,,,,,,,2,n,0.809,13.96521039,1,4.691,1.5,,,,,,13.96521039,0,1.591282699,,,,,,,,,,,,,0,119,119,49,1,0.462956344,1,,,,,,,,,,,,,,,,,,,,,,,,,,,,,,,,,,,,,,,,,,,,,,,,,,,,,,,,,,,,,,,,,,,,,,,,,,,,,,,,
,,5ebb96b6cd673a0008ace9ce,2022-09-08_13h16.51.800,CGTgamblingSpanTasks,2022.2.1,Win32,60.0240096,,,,,,,,,,,,,,,,,,,,,,,,,,,,,,,,,,,,,,,,,,,,,,,,,,,,,,,,return,17.764,,,,,,,,,,,,,,,,,,,,,,,,,,,,,,,,,,,,,,,,,,,,,,,,,,,,,,,,,,,,,,,,,,,,,,,,,,,,,,
,,5ebb96b6cd673a0008ace9ce,2022-09-08_13h16.51.800,CGTgamblingSpanTasks,2022.2.1,Win32,60.0240096,,,,,,,,,,,,,,,,,,,,,,,,,,,,,,,,,,,,,,,,,,,,,,,,,,,,,,,,,,return,20.73,,,,,,,,,,,,,,,,,,,,,,,,,,,,,,,,,,,,,,,,,,,,,,,,,,,,,,,,,,,,,,,,,,,,,,,,,,,,
,,5ebb96b6cd673a0008ace9ce,2022-09-08_13h16.51.800,CGTgamblingSpanTasks,2022.2.1,Win32,60.0240096,,,,,,,,,,,,,,,,,,,,,,,,,,,,,,,,,,,,,,,,,,,,,,,,,,,,,,,,,,,,return,14.555,,,,,,,,,,,,,,,,,,,,,,,,,,,,,,,,,,,,,,,,,,,,,,,,,,,,,,,,,,,,,,,,,,,,,,,,,,
,,5ebb96b6cd673a0008ace9ce,2022-09-08_13h16.51.800,CGTgamblingSpanTasks,2022.2.1,Win32,60.0240096,,,,,,,,,,,,,,,,,,,,,,,,,,,,,,,,,,,,,,,,,,,,,,,,,,,,,,,,,,,,,,342,1,-0.049479167,-0.385416667,1,0,0,cont_buttonPractice,0,0,0,0,1,3,342,24,2,42,,,,,,,,,,,,,,,,,,,,,,,,,,,,,,,,,,,,,,,,,,,,,,,,,,,,,,,,
,,5ebb96b6cd673a0008ace9ce,2022-09-08_13h16.51.800,CGTgamblingSpanTasks,2022.2.1,Win32,60.0240096,,,,,,,,,,,,,,,,,,,,,,,,,,,,,,,,,,,,,,,,,,,,,,,,,,,,,,,,,,,,,,937,1,0.059895833,-0.41015625,1,0,0,cont_buttonPractice,0,1,1,1,1,3,937,73,2,37,,,,,,,,,,,,,,,,,,,,,,,,,,,,,,,,,,,,,,,,,,,,,,,,,,,,,,,,
,,5ebb96b6cd673a0008ace9ce,2022-09-08_13h16.51.800,CGTgamblingSpanTasks,2022.2.1,Win32,60.0240096,,,,,,,,,,,,,,,,,,,,,,,,,,,,,,,,,,,,,,,,,,,,,,,,,,,,,,,,,,,,,,,,,,,,,,,,,,,,,,,,return,8.544,,,,,,,,,,,,,,,,,,,,,,,,,,,,,,,,,,,,,,,,,,,,,,,,,,,,,,
,,5ebb96b6cd673a0008ace9ce,2022-09-08_13h16.51.800,CGTgamblingSpanTasks,2022.2.1,Win32,60.0240096,,,,,,,,,,,,,,,,,,,,,,,,,,,,,,,,,,,,,,,,,,,,,,,,,,,,,,,,,,,,,,,,,,,,,,,,,,,,,,,,,,"[6,3,7]",0,0,0,0,1,,,,,,,,,,,,,,,,,,,,,,,,,,,,,,,,,,,,,,,,,,,,,,,,
,,5ebb96b6cd673a0008ace9ce,2022-09-08_13h16.51.800,CGTgamblingSpanTasks,2022.2.1,Win32,60.0240096,,,,,,,,,,,,,,,,,,,,,,,,,,,,,,,,,,,,,,,,,,,,,,,,,,,,,,,,,,,,,,,,,,,,,,,,,,,,,,,,,,"[6,3,7]",1,0,1,0,1,,,,,,,,,,,,,,,,,,,,,,,,,,,,,,,,,,,,,,,,,,,,,,,,
,,5ebb96b6cd673a0008ace9ce,2022-09-08_13h16.51.800,CGTgamblingSpanTasks,2022.2.1,Win32,60.0240096,,,,,,,,,,,,,,,,,,,,,,,,,,,,,,,,,,,,,,,,,,,,,,,,,,,,,,,,,,,,,,,,,,,,,,,,,,,,,,,,,,"[6,3,7]",2,0,2,0,1,,,,,,,,,,,,,,,,,,,,,,,,,,,,,,,,,,,,,,,,,,,,,,,,
,,5ebb96b6cd673a0008ace9ce,2022-09-08_13h16.51.800,CGTgamblingSpanTasks,2022.2.1,Win32,60.0240096,,,,,,,,,,,,,,,,,,,,,,,,,,,,,,,,,,,,,,,,,,,,,,,,,,,,,,,,,,,,,,,1,,,,,,,,,,,,,,,,,,,,,,,,,637,0.03515625,-0.407552083,1,0,0,cont_button,0,0,0,0,1,1,,,,,,,,,,,,,,,,,,,,,,,,,,,,,,,,,,,
,,5ebb96b6cd673a0008ace9ce,2022-09-08_13h16.51.800,CGTgamblingSpanTasks,2022.2.1,Win32,60.0240096,,,,,,,,,,,,,,,,,,,,,,,,,,,,,,,,,,,,,,,,,,,,,,,,,,,,,,,,,,,,,,,,,,,,,,,,,,,,,,,,,,"[1,9,4,2]",0,0,0,0,1,,,,,,,,,,,,,,,,,,,,,,,,,,,,,,,,,,,,,,,,,,,,,,,,
,,5ebb96b6cd673a0008ace9ce,2022-09-08_13h16.51.800,CGTgamblingSpanTasks,2022.2.1,Win32,60.0240096,,,,,,,,,,,,,,,,,,,,,,,,,,,,,,,,,,,,,,,,,,,,,,,,,,,,,,,,,,,,,,,,,,,,,,,,,,,,,,,,,,"[1,9,4,2]",1,0,1,0,1,,,,,,,,,,,,,,,,,,,,,,,,,,,,,,,,,,,,,,,,,,,,,,,,
,,5ebb96b6cd673a0008ace9ce,2022-09-08_13h16.51.800,CGTgamblingSpanTasks,2022.2.1,Win32,60.0240096,,,,,,,,,,,,,,,,,,,,,,,,,,,,,,,,,,,,,,,,,,,,,,,,,,,,,,,,,,,,,,,,,,,,,,,,,,,,,,,,,,"[1,9,4,2]",2,0,2,0,1,,,,,,,,,,,,,,,,,,,,,,,,,,,,,,,,,,,,,,,,,,,,,,,,
,,5ebb96b6cd673a0008ace9ce,2022-09-08_13h16.51.800,CGTgamblingSpanTasks,2022.2.1,Win32,60.0240096,,,,,,,,,,,,,,,,,,,,,,,,,,,,,,,,,,,,,,,,,,,,,,,,,,,,,,,,,,,,,,,,,,,,,,,,,,,,,,,,,,"[1,9,4,2]",3,0,3,0,1,,,,,,,,,,,,,,,,,,,,,,,,,,,,,,,,,,,,,,,,,,,,,,,,
,,5ebb96b6cd673a0008ace9ce,2022-09-08_13h16.51.800,CGTgamblingSpanTasks,2022.2.1,Win32,60.0240096,,,,,,,,,,,,,,,,,,,,,,,,,,,,,,,,,,,,,,,,,,,,,,,,,,,,,,,,,,,,,,,1,,,,,,,,,,,,,,,,,,,,,,,,,1942,0.01953125,-0.3984375,1,0,0,cont_button,0,1,1,1,1,2,,,,,,,,,,,,,,,,,,,,,,,,,,,,,,,,,,,
,,5ebb96b6cd673a0008ace9ce,2022-09-08_13h16.51.800,CGTgamblingSpanTasks,2022.2.1,Win32,60.0240096,,,,,,,,,,,,,,,,,,,,,,,,,,,,,,,,,,,,,,,,,,,,,,,,,,,,,,,,,,,,,,,,,,,,,,,,,,,,,,,,,,"[6,4,2,8,3]",0,0,0,0,1,,,,,,,,,,,,,,,,,,,,,,,,,,,,,,,,,,,,,,,,,,,,,,,,
,,5ebb96b6cd673a0008ace9ce,2022-09-08_13h16.51.800,CGTgamblingSpanTasks,2022.2.1,Win32,60.0240096,,,,,,,,,,,,,,,,,,,,,,,,,,,,,,,,,,,,,,,,,,,,,,,,,,,,,,,,,,,,,,,,,,,,,,,,,,,,,,,,,,"[6,4,2,8,3]",1,0,1,0,1,,,,,,,,,,,,,,,,,,,,,,,,,,,,,,,,,,,,,,,,,,,,,,,,
,,5ebb96b6cd673a0008ace9ce,2022-09-08_13h16.51.800,CGTgamblingSpanTasks,2022.2.1,Win32,60.0240096,,,,,,,,,,,,,,,,,,,,,,,,,,,,,,,,,,,,,,,,,,,,,,,,,,,,,,,,,,,,,,,,,,,,,,,,,,,,,,,,,,"[6,4,2,8,3]",2,0,2,0,1,,,,,,,,,,,,,,,,,,,,,,,,,,,,,,,,,,,,,,,,,,,,,,,,
,,5ebb96b6cd673a0008ace9ce,2022-09-08_13h16.51.800,CGTgamblingSpanTasks,2022.2.1,Win32,60.0240096,,,,,,,,,,,,,,,,,,,,,,,,,,,,,,,,,,,,,,,,,,,,,,,,,,,,,,,,,,,,,,,,,,,,,,,,,,,,,,,,,,"[6,4,2,8,3]",3,0,3,0,1,,,,,,,,,,,,,,,,,,,,,,,,,,,,,,,,,,,,,,,,,,,,,,,,
,,5ebb96b6cd673a0008ace9ce,2022-09-08_13h16.51.800,CGTgamblingSpanTasks,2022.2.1,Win32,60.0240096,,,,,,,,,,,,,,,,,,,,,,,,,,,,,,,,,,,,,,,,,,,,,,,,,,,,,,,,,,,,,,,,,,,,,,,,,,,,,,,,,,"[6,4,2,8,3]",4,0,4,0,1,,,,,,,,,,,,,,,,,,,,,,,,,,,,,,,,,,,,,,,,,,,,,,,,
,,5ebb96b6cd673a0008ace9ce,2022-09-08_13h16.51.800,CGTgamblingSpanTasks,2022.2.1,Win32,60.0240096,,,,,,,,,,,,,,,,,,,,,,,,,,,,,,,,,,,,,,,,,,,,,,,,,,,,,,,,,,,,,,,1,,,,,,,,,,,,,,,,,,,,,,,,,64283,0.016927083,-0.3984375,1,0,0,cont_button,0,2,2,2,1,3,,,,,,,,,,,,,,,,,,,,,,,,,,,,,,,,,,,
,,5ebb96b6cd673a0008ace9ce,2022-09-08_13h16.51.800,CGTgamblingSpanTasks,2022.2.1,Win32,60.0240096,,,,,,,,,,,,,,,,,,,,,,,,,,,,,,,,,,,,,,,,,,,,,,,,,,,,,,,,,,,,,,,,,,,,,,,,,,,,,,,,,,"[3,2,4,9,6,1]",0,0,0,0,1,,,,,,,,,,,,,,,,,,,,,,,,,,,,,,,,,,,,,,,,,,,,,,,,
,,5ebb96b6cd673a0008ace9ce,2022-09-08_13h16.51.800,CGTgamblingSpanTasks,2022.2.1,Win32,60.0240096,,,,,,,,,,,,,,,,,,,,,,,,,,,,,,,,,,,,,,,,,,,,,,,,,,,,,,,,,,,,,,,,,,,,,,,,,,,,,,,,,,"[3,2,4,9,6,1]",1,0,1,0,1,,,,,,,,,,,,,,,,,,,,,,,,,,,,,,,,,,,,,,,,,,,,,,,,
,,5ebb96b6cd673a0008ace9ce,2022-09-08_13h16.51.800,CGTgamblingSpanTasks,2022.2.1,Win32,60.0240096,,,,,,,,,,,,,,,,,,,,,,,,,,,,,,,,,,,,,,,,,,,,,,,,,,,,,,,,,,,,,,,,,,,,,,,,,,,,,,,,,,"[3,2,4,9,6,1]",2,0,2,0,1,,,,,,,,,,,,,,,,,,,,,,,,,,,,,,,,,,,,,,,,,,,,,,,,
,,5ebb96b6cd673a0008ace9ce,2022-09-08_13h16.51.800,CGTgamblingSpanTasks,2022.2.1,Win32,60.0240096,,,,,,,,,,,,,,,,,,,,,,,,,,,,,,,,,,,,,,,,,,,,,,,,,,,,,,,,,,,,,,,,,,,,,,,,,,,,,,,,,,"[3,2,4,9,6,1]",3,0,3,0,1,,,,,,,,,,,,,,,,,,,,,,,,,,,,,,,,,,,,,,,,,,,,,,,,
,,5ebb96b6cd673a0008ace9ce,2022-09-08_13h16.51.800,CGTgamblingSpanTasks,2022.2.1,Win32,60.0240096,,,,,,,,,,,,,,,,,,,,,,,,,,,,,,,,,,,,,,,,,,,,,,,,,,,,,,,,,,,,,,,,,,,,,,,,,,,,,,,,,,"[3,2,4,9,6,1]",4,0,4,0,1,,,,,,,,,,,,,,,,,,,,,,,,,,,,,,,,,,,,,,,,,,,,,,,,
,,5ebb96b6cd673a0008ace9ce,2022-09-08_13h16.51.800,CGTgamblingSpanTasks,2022.2.1,Win32,60.0240096,,,,,,,,,,,,,,,,,,,,,,,,,,,,,,,,,,,,,,,,,,,,,,,,,,,,,,,,,,,,,,,,,,,,,,,,,,,,,,,,,,"[3,2,4,9,6,1]",5,0,5,0,1,,,,,,,,,,,,,,,,,,,,,,,,,,,,,,,,,,,,,,,,,,,,,,,,
,,5ebb96b6cd673a0008ace9ce,2022-09-08_13h16.51.800,CGTgamblingSpanTasks,2022.2.1,Win32,60.0240096,,,,,,,,,,,,,,,,,,,,,,,,,,,,,,,,,,,,,,,,,,,,,,,,,,,,,,,,,,,,,,,1,,,,,,,,,,,,,,,,,,,,,,,,,324961,0.005208333,-0.385416667,1,0,0,cont_button,0,3,3,3,1,4,,,,,,,,,,,,,,,,,,,,,,,,,,,,,,,,,,,
,,5ebb96b6cd673a0008ace9ce,2022-09-08_13h16.51.800,CGTgamblingSpanTasks,2022.2.1,Win32,60.0240096,,,,,,,,,,,,,,,,,,,,,,,,,,,,,,,,,,,,,,,,,,,,,,,,,,,,,,,,,,,,,,,,,,,,,,,,,,,,,,,,,,"[6,3,4,1,7,5,2]",0,0,0,0,1,,,,,,,,,,,,,,,,,,,,,,,,,,,,,,,,,,,,,,,,,,,,,,,,
,,5ebb96b6cd673a0008ace9ce,2022-09-08_13h16.51.800,CGTgamblingSpanTasks,2022.2.1,Win32,60.0240096,,,,,,,,,,,,,,,,,,,,,,,,,,,,,,,,,,,,,,,,,,,,,,,,,,,,,,,,,,,,,,,,,,,,,,,,,,,,,,,,,,"[6,3,4,1,7,5,2]",1,0,1,0,1,,,,,,,,,,,,,,,,,,,,,,,,,,,,,,,,,,,,,,,,,,,,,,,,
,,5ebb96b6cd673a0008ace9ce,2022-09-08_13h16.51.800,CGTgamblingSpanTasks,2022.2.1,Win32,60.0240096,,,,,,,,,,,,,,,,,,,,,,,,,,,,,,,,,,,,,,,,,,,,,,,,,,,,,,,,,,,,,,,,,,,,,,,,,,,,,,,,,,"[6,3,4,1,7,5,2]",2,0,2,0,1,,,,,,,,,,,,,,,,,,,,,,,,,,,,,,,,,,,,,,,,,,,,,,,,
,,5ebb96b6cd673a0008ace9ce,2022-09-08_13h16.51.800,CGTgamblingSpanTasks,2022.2.1,Win32,60.0240096,,,,,,,,,,,,,,,,,,,,,,,,,,,,,,,,,,,,,,,,,,,,,,,,,,,,,,,,,,,,,,,,,,,,,,,,,,,,,,,,,,"[6,3,4,1,7,5,2]",3,0,3,0,1,,,,,,,,,,,,,,,,,,,,,,,,,,,,,,,,,,,,,,,,,,,,,,,,
,,5ebb96b6cd673a0008ace9ce,2022-09-08_13h16.51.800,CGTgamblingSpanTasks,2022.2.1,Win32,60.0240096,,,,,,,,,,,,,,,,,,,,,,,,,,,,,,,,,,,,,,,,,,,,,,,,,,,,,,,,,,,,,,,,,,,,,,,,,,,,,,,,,,"[6,3,4,1,7,5,2]",4,0,4,0,1,,,,,,,,,,,,,,,,,,,,,,,,,,,,,,,,,,,,,,,,,,,,,,,,
,,5ebb96b6cd673a0008ace9ce,2022-09-08_13h16.51.800,CGTgamblingSpanTasks,2022.2.1,Win32,60.0240096,,,,,,,,,,,,,,,,,,,,,,,,,,,,,,,,,,,,,,,,,,,,,,,,,,,,,,,,,,,,,,,,,,,,,,,,,,,,,,,,,,"[6,3,4,1,7,5,2]",5,0,5,0,1,,,,,,,,,,,,,,,,,,,,,,,,,,,,,,,,,,,,,,,,,,,,,,,,
,,5ebb96b6cd673a0008ace9ce,2022-09-08_13h16.51.800,CGTgamblingSpanTasks,2022.2.1,Win32,60.0240096,,,,,,,,,,,,,,,,,,,,,,,,,,,,,,,,,,,,,,,,,,,,,,,,,,,,,,,,,,,,,,,,,,,,,,,,,,,,,,,,,,"[6,3,4,1,7,5,2]",6,0,6,0,1,,,,,,,,,,,,,,,,,,,,,,,,,,,,,,,,,,,,,,,,,,,,,,,,
,,5ebb96b6cd673a0008ace9ce,2022-09-08_13h16.51.800,CGTgamblingSpanTasks,2022.2.1,Win32,60.0240096,,,,,,,,,,,,,,,,,,,,,,,,,,,,,,,,,,,,,,,,,,,,,,,,,,,,,,,,,,,,,,,1,,,,,,,,,,,,,,,,,,,,,,,,,6341752,-0.0078125,-0.384114583,1,0,0,cont_button,0,4,4,4,1,5,,,,,,,,,,,,,,,,,,,,,,,,,,,,,,,,,,,
,,5ebb96b6cd673a0008ace9ce,2022-09-08_13h16.51.800,CGTgamblingSpanTasks,2022.2.1,Win32,60.0240096,,,,,,,,,,,,,,,,,,,,,,,,,,,,,,,,,,,,,,,,,,,,,,,,,,,,,,,,,,,,,,,,,,,,,,,,,,,,,,,,,,"[7,6,8,9,3,5,1,2]",0,0,0,0,1,,,,,,,,,,,,,,,,,,,,,,,,,,,,,,,,,,,,,,,,,,,,,,,,
,,5ebb96b6cd673a0008ace9ce,2022-09-08_13h16.51.800,CGTgamblingSpanTasks,2022.2.1,Win32,60.0240096,,,,,,,,,,,,,,,,,,,,,,,,,,,,,,,,,,,,,,,,,,,,,,,,,,,,,,,,,,,,,,,,,,,,,,,,,,,,,,,,,,"[7,6,8,9,3,5,1,2]",1,0,1,0,1,,,,,,,,,,,,,,,,,,,,,,,,,,,,,,,,,,,,,,,,,,,,,,,,
,,5ebb96b6cd673a0008ace9ce,2022-09-08_13h16.51.800,CGTgamblingSpanTasks,2022.2.1,Win32,60.0240096,,,,,,,,,,,,,,,,,,,,,,,,,,,,,,,,,,,,,,,,,,,,,,,,,,,,,,,,,,,,,,,,,,,,,,,,,,,,,,,,,,"[7,6,8,9,3,5,1,2]",2,0,2,0,1,,,,,,,,,,,,,,,,,,,,,,,,,,,,,,,,,,,,,,,,,,,,,,,,
,,5ebb96b6cd673a0008ace9ce,2022-09-08_13h16.51.800,CGTgamblingSpanTasks,2022.2.1,Win32,60.0240096,,,,,,,,,,,,,,,,,,,,,,,,,,,,,,,,,,,,,,,,,,,,,,,,,,,,,,,,,,,,,,,,,,,,,,,,,,,,,,,,,,"[7,6,8,9,3,5,1,2]",3,0,3,0,1,,,,,,,,,,,,,,,,,,,,,,,,,,,,,,,,,,,,,,,,,,,,,,,,
,,5ebb96b6cd673a0008ace9ce,2022-09-08_13h16.51.800,CGTgamblingSpanTasks,2022.2.1,Win32,60.0240096,,,,,,,,,,,,,,,,,,,,,,,,,,,,,,,,,,,,,,,,,,,,,,,,,,,,,,,,,,,,,,,,,,,,,,,,,,,,,,,,,,"[7,6,8,9,3,5,1,2]",4,0,4,0,1,,,,,,,,,,,,,,,,,,,,,,,,,,,,,,,,,,,,,,,,,,,,,,,,
,,5ebb96b6cd673a0008ace9ce,2022-09-08_13h16.51.800,CGTgamblingSpanTasks,2022.2.1,Win32,60.0240096,,,,,,,,,,,,,,,,,,,,,,,,,,,,,,,,,,,,,,,,,,,,,,,,,,,,,,,,,,,,,,,,,,,,,,,,,,,,,,,,,,"[7,6,8,9,3,5,1,2]",5,0,5,0,1,,,,,,,,,,,,,,,,,,,,,,,,,,,,,,,,,,,,,,,,,,,,,,,,
,,5ebb96b6cd673a0008ace9ce,2022-09-08_13h16.51.800,CGTgamblingSpanTasks,2022.2.1,Win32,60.0240096,,,,,,,,,,,,,,,,,,,,,,,,,,,,,,,,,,,,,,,,,,,,,,,,,,,,,,,,,,,,,,,,,,,,,,,,,,,,,,,,,,"[7,6,8,9,3,5,1,2]",6,0,6,0,1,,,,,,,,,,,,,,,,,,,,,,,,,,,,,,,,,,,,,,,,,,,,,,,,
,,5ebb96b6cd673a0008ace9ce,2022-09-08_13h16.51.800,CGTgamblingSpanTasks,2022.2.1,Win32,60.0240096,,,,,,,,,,,,,,,,,,,,,,,,,,,,,,,,,,,,,,,,,,,,,,,,,,,,,,,,,,,,,,,,,,,,,,,,,,,,,,,,,,"[7,6,8,9,3,5,1,2]",7,0,7,0,1,,,,,,,,,,,,,,,,,,,,,,,,,,,,,,,,,,,,,,,,,,,,,,,,
,,5ebb96b6cd673a0008ace9ce,2022-09-08_13h16.51.800,CGTgamblingSpanTasks,2022.2.1,Win32,60.0240096,,,,,,,,,,,,,,,,,,,,,,,,,,,,,,,,,,,,,,,,,,,,,,,,,,,,,,,,,,,,,,,1,,,,,,,,,,,,,,,,,,,,,,,,,76893512,-0.020833333,-0.385416667,1,0,0,cont_button,0,5,5,5,1,6,,,,,,,,,,,,,,,,,,,,,,,,,,,,,,,,,,,
,,5ebb96b6cd673a0008ace9ce,2022-09-08_13h16.51.800,CGTgamblingSpanTasks,2022.2.1,Win32,60.0240096,,,,,,,,,,,,,,,,,,,,,,,,,,,,,,,,,,,,,,,,,,,,,,,,,,,,,,,,,,,,,,,,,,,,,,,,,,,,,,,,,,"[6,9,8,4,2,1,3,7,5]",0,0,0,0,1,,,,,,,,,,,,,,,,,,,,,,,,,,,,,,,,,,,,,,,,,,,,,,,,
,,5ebb96b6cd673a0008ace9ce,2022-09-08_13h16.51.800,CGTgamblingSpanTasks,2022.2.1,Win32,60.0240096,,,,,,,,,,,,,,,,,,,,,,,,,,,,,,,,,,,,,,,,,,,,,,,,,,,,,,,,,,,,,,,,,,,,,,,,,,,,,,,,,,"[6,9,8,4,2,1,3,7,5]",1,0,1,0,1,,,,,,,,,,,,,,,,,,,,,,,,,,,,,,,,,,,,,,,,,,,,,,,,
,,5ebb96b6cd673a0008ace9ce,2022-09-08_13h16.51.800,CGTgamblingSpanTasks,2022.2.1,Win32,60.0240096,,,,,,,,,,,,,,,,,,,,,,,,,,,,,,,,,,,,,,,,,,,,,,,,,,,,,,,,,,,,,,,,,,,,,,,,,,,,,,,,,,"[6,9,8,4,2,1,3,7,5]",2,0,2,0,1,,,,,,,,,,,,,,,,,,,,,,,,,,,,,,,,,,,,,,,,,,,,,,,,
,,5ebb96b6cd673a0008ace9ce,2022-09-08_13h16.51.800,CGTgamblingSpanTasks,2022.2.1,Win32,60.0240096,,,,,,,,,,,,,,,,,,,,,,,,,,,,,,,,,,,,,,,,,,,,,,,,,,,,,,,,,,,,,,,,,,,,,,,,,,,,,,,,,,"[6,9,8,4,2,1,3,7,5]",3,0,3,0,1,,,,,,,,,,,,,,,,,,,,,,,,,,,,,,,,,,,,,,,,,,,,,,,,
,,5ebb96b6cd673a0008ace9ce,2022-09-08_13h16.51.800,CGTgamblingSpanTasks,2022.2.1,Win32,60.0240096,,,,,,,,,,,,,,,,,,,,,,,,,,,,,,,,,,,,,,,,,,,,,,,,,,,,,,,,,,,,,,,,,,,,,,,,,,,,,,,,,,"[6,9,8,4,2,1,3,7,5]",4,0,4,0,1,,,,,,,,,,,,,,,,,,,,,,,,,,,,,,,,,,,,,,,,,,,,,,,,
,,5ebb96b6cd673a0008ace9ce,2022-09-08_13h16.51.800,CGTgamblingSpanTasks,2022.2.1,Win32,60.0240096,,,,,,,,,,,,,,,,,,,,,,,,,,,,,,,,,,,,,,,,,,,,,,,,,,,,,,,,,,,,,,,,,,,,,,,,,,,,,,,,,,"[6,9,8,4,2,1,3,7,5]",5,0,5,0,1,,,,,,,,,,,,,,,,,,,,,,,,,,,,,,,,,,,,,,,,,,,,,,,,
,,5ebb96b6cd673a0008ace9ce,2022-09-08_13h16.51.800,CGTgamblingSpanTasks,2022.2.1,Win32,60.0240096,,,,,,,,,,,,,,,,,,,,,,,,,,,,,,,,,,,,,,,,,,,,,,,,,,,,,,,,,,,,,,,,,,,,,,,,,,,,,,,,,,"[6,9,8,4,2,1,3,7,5]",6,0,6,0,1,,,,,,,,,,,,,,,,,,,,,,,,,,,,,,,,,,,,,,,,,,,,,,,,
,,5ebb96b6cd673a0008ace9ce,2022-09-08_13h16.51.800,CGTgamblingSpanTasks,2022.2.1,Win32,60.0240096,,,,,,,,,,,,,,,,,,,,,,,,,,,,,,,,,,,,,,,,,,,,,,,,,,,,,,,,,,,,,,,,,,,,,,,,,,,,,,,,,,"[6,9,8,4,2,1,3,7,5]",7,0,7,0,1,,,,,,,,,,,,,,,,,,,,,,,,,,,,,,,,,,,,,,,,,,,,,,,,
,,5ebb96b6cd673a0008ace9ce,2022-09-08_13h16.51.800,CGTgamblingSpanTasks,2022.2.1,Win32,60.0240096,,,,,,,,,,,,,,,,,,,,,,,,,,,,,,,,,,,,,,,,,,,,,,,,,,,,,,,,,,,,,,,,,,,,,,,,,,,,,,,,,,"[6,9,8,4,2,1,3,7,5]",8,0,8,0,1,,,,,,,,,,,,,,,,,,,,,,,,,,,,,,,,,,,,,,,,,,,,,,,,
,,5ebb96b6cd673a0008ace9ce,2022-09-08_13h16.51.800,CGTgamblingSpanTasks,2022.2.1,Win32,60.0240096,,,,,,,,,,,,,,,,,,,,,,,,,,,,,,,,,,,,,,,,,,,,,,,,,,,,,,,,,,,,,,,1,,,,,,,,,,,,,,,,,,,,,,,,,698421375,-0.041666667,-0.42578125,1,0,0,cont_button,0,6,6,6,1,7,,,,,,,,,,,,,,,,,,,,,,,,,,,,,,,,,,,
,,5ebb96b6cd673a0008ace9ce,2022-09-08_13h16.51.800,CGTgamblingSpanTasks,2022.2.1,Win32,60.0240096,,,,,,,,,,,,,,,,,,,,,,,,,,,,,,,,,,,,,,,,,,,,,,,,,,,,,,,,,,,,,,,,,,,,,,,,,,,,,,,,,,"[8,7,4,1,2,6,3,9,5,5]",0,0,0,0,1,,,,,,,,,,,,,,,,,,,,,,,,,,,,,,,,,,,,,,,,,,,,,,,,
,,5ebb96b6cd673a0008ace9ce,2022-09-08_13h16.51.800,CGTgamblingSpanTasks,2022.2.1,Win32,60.0240096,,,,,,,,,,,,,,,,,,,,,,,,,,,,,,,,,,,,,,,,,,,,,,,,,,,,,,,,,,,,,,,,,,,,,,,,,,,,,,,,,,"[8,7,4,1,2,6,3,9,5,5]",1,0,1,0,1,,,,,,,,,,,,,,,,,,,,,,,,,,,,,,,,,,,,,,,,,,,,,,,,
,,5ebb96b6cd673a0008ace9ce,2022-09-08_13h16.51.800,CGTgamblingSpanTasks,2022.2.1,Win32,60.0240096,,,,,,,,,,,,,,,,,,,,,,,,,,,,,,,,,,,,,,,,,,,,,,,,,,,,,,,,,,,,,,,,,,,,,,,,,,,,,,,,,,"[8,7,4,1,2,6,3,9,5,5]",2,0,2,0,1,,,,,,,,,,,,,,,,,,,,,,,,,,,,,,,,,,,,,,,,,,,,,,,,
,,5ebb96b6cd673a0008ace9ce,2022-09-08_13h16.51.800,CGTgamblingSpanTasks,2022.2.1,Win32,60.0240096,,,,,,,,,,,,,,,,,,,,,,,,,,,,,,,,,,,,,,,,,,,,,,,,,,,,,,,,,,,,,,,,,,,,,,,,,,,,,,,,,,"[8,7,4,1,2,6,3,9,5,5]",3,0,3,0,1,,,,,,,,,,,,,,,,,,,,,,,,,,,,,,,,,,,,,,,,,,,,,,,,
,,5ebb96b6cd673a0008ace9ce,2022-09-08_13h16.51.800,CGTgamblingSpanTasks,2022.2.1,Win32,60.0240096,,,,,,,,,,,,,,,,,,,,,,,,,,,,,,,,,,,,,,,,,,,,,,,,,,,,,,,,,,,,,,,,,,,,,,,,,,,,,,,,,,"[8,7,4,1,2,6,3,9,5,5]",4,0,4,0,1,,,,,,,,,,,,,,,,,,,,,,,,,,,,,,,,,,,,,,,,,,,,,,,,
,,5ebb96b6cd673a0008ace9ce,2022-09-08_13h16.51.800,CGTgamblingSpanTasks,2022.2.1,Win32,60.0240096,,,,,,,,,,,,,,,,,,,,,,,,,,,,,,,,,,,,,,,,,,,,,,,,,,,,,,,,,,,,,,,,,,,,,,,,,,,,,,,,,,"[8,7,4,1,2,6,3,9,5,5]",5,0,5,0,1,,,,,,,,,,,,,,,,,,,,,,,,,,,,,,,,,,,,,,,,,,,,,,,,
,,5ebb96b6cd673a0008ace9ce,2022-09-08_13h16.51.800,CGTgamblingSpanTasks,2022.2.1,Win32,60.0240096,,,,,,,,,,,,,,,,,,,,,,,,,,,,,,,,,,,,,,,,,,,,,,,,,,,,,,,,,,,,,,,,,,,,,,,,,,,,,,,,,,"[8,7,4,1,2,6,3,9,5,5]",6,0,6,0,1,,,,,,,,,,,,,,,,,,,,,,,,,,,,,,,,,,,,,,,,,,,,,,,,
,,5ebb96b6cd673a0008ace9ce,2022-09-08_13h16.51.800,CGTgamblingSpanTasks,2022.2.1,Win32,60.0240096,,,,,,,,,,,,,,,,,,,,,,,,,,,,,,,,,,,,,,,,,,,,,,,,,,,,,,,,,,,,,,,,,,,,,,,,,,,,,,,,,,"[8,7,4,1,2,6,3,9,5,5]",7,0,7,0,1,,,,,,,,,,,,,,,,,,,,,,,,,,,,,,,,,,,,,,,,,,,,,,,,
,,5ebb96b6cd673a0008ace9ce,2022-09-08_13h16.51.800,CGTgamblingSpanTasks,2022.2.1,Win32,60.0240096,,,,,,,,,,,,,,,,,,,,,,,,,,,,,,,,,,,,,,,,,,,,,,,,,,,,,,,,,,,,,,,,,,,,,,,,,,,,,,,,,,"[8,7,4,1,2,6,3,9,5,5]",8,0,8,0,1,,,,,,,,,,,,,,,,,,,,,,,,,,,,,,,,,,,,,,,,,,,,,,,,
,,5ebb96b6cd673a0008ace9ce,2022-09-08_13h16.51.800,CGTgamblingSpanTasks,2022.2.1,Win32,60.0240096,,,,,,,,,,,,,,,,,,,,,,,,,,,,,,,,,,,,,,,,,,,,,,,,,,,,,,,,,,,,,,,,,,,,,,,,,,,,,,,,,,"[8,7,4,1,2,6,3,9,5,5]",9,0,9,0,1,,,,,,,,,,,,,,,,,,,,,,,,,,,,,,,,,,,,,,,,,,,,,,,,
,,5ebb96b6cd673a0008ace9ce,2022-09-08_13h16.51.800,CGTgamblingSpanTasks,2022.2.1,Win32,60.0240096,,,,,,,,,,,,,,,,,,,,,,,,,,,,,,,,,,,,,,,,,,,,,,,,,,,,,,,,,,,,,,,0,,,,,,,,,,,,,,,,,,,,,,,,,8674126935,-0.010416667,-0.416666667,1,0,0,cont_button,0,7,7,7,1,8,,,,,,,,,,,,,,,,,,,,,,,,,,,,,,,,,,,
,,5ebb96b6cd673a0008ace9ce,2022-09-08_13h16.51.800,CGTgamblingSpanTasks,2022.2.1,Win32,60.0240096,,,,,,,,,,,,,,,,,,,,,,,,,,,,,,,,,,,,,,,,,,,,,,,,,,,,,,,,,,,,,,,,,,,,,,,,,,,,,,,,,,"[9,5,2,1,8,6,4,3,7,7]",0,0,0,0,1,,,,,,,,,,,,,,,,,,,,,,,,,,,,,,,,,,,,,,,,,,,,,,,,
,,5ebb96b6cd673a0008ace9ce,2022-09-08_13h16.51.800,CGTgamblingSpanTasks,2022.2.1,Win32,60.0240096,,,,,,,,,,,,,,,,,,,,,,,,,,,,,,,,,,,,,,,,,,,,,,,,,,,,,,,,,,,,,,,,,,,,,,,,,,,,,,,,,,"[9,5,2,1,8,6,4,3,7,7]",1,0,1,0,1,,,,,,,,,,,,,,,,,,,,,,,,,,,,,,,,,,,,,,,,,,,,,,,,
,,5ebb96b6cd673a0008ace9ce,2022-09-08_13h16.51.800,CGTgamblingSpanTasks,2022.2.1,Win32,60.0240096,,,,,,,,,,,,,,,,,,,,,,,,,,,,,,,,,,,,,,,,,,,,,,,,,,,,,,,,,,,,,,,,,,,,,,,,,,,,,,,,,,"[9,5,2,1,8,6,4,3,7,7]",2,0,2,0,1,,,,,,,,,,,,,,,,,,,,,,,,,,,,,,,,,,,,,,,,,,,,,,,,
,,5ebb96b6cd673a0008ace9ce,2022-09-08_13h16.51.800,CGTgamblingSpanTasks,2022.2.1,Win32,60.0240096,,,,,,,,,,,,,,,,,,,,,,,,,,,,,,,,,,,,,,,,,,,,,,,,,,,,,,,,,,,,,,,,,,,,,,,,,,,,,,,,,,"[9,5,2,1,8,6,4,3,7,7]",3,0,3,0,1,,,,,,,,,,,,,,,,,,,,,,,,,,,,,,,,,,,,,,,,,,,,,,,,
,,5ebb96b6cd673a0008ace9ce,2022-09-08_13h16.51.800,CGTgamblingSpanTasks,2022.2.1,Win32,60.0240096,,,,,,,,,,,,,,,,,,,,,,,,,,,,,,,,,,,,,,,,,,,,,,,,,,,,,,,,,,,,,,,,,,,,,,,,,,,,,,,,,,"[9,5,2,1,8,6,4,3,7,7]",4,0,4,0,1,,,,,,,,,,,,,,,,,,,,,,,,,,,,,,,,,,,,,,,,,,,,,,,,
,,5ebb96b6cd673a0008ace9ce,2022-09-08_13h16.51.800,CGTgamblingSpanTasks,2022.2.1,Win32,60.0240096,,,,,,,,,,,,,,,,,,,,,,,,,,,,,,,,,,,,,,,,,,,,,,,,,,,,,,,,,,,,,,,,,,,,,,,,,,,,,,,,,,"[9,5,2,1,8,6,4,3,7,7]",5,0,5,0,1,,,,,,,,,,,,,,,,,,,,,,,,,,,,,,,,,,,,,,,,,,,,,,,,
,,5ebb96b6cd673a0008ace9ce,2022-09-08_13h16.51.800,CGTgamblingSpanTasks,2022.2.1,Win32,60.0240096,,,,,,,,,,,,,,,,,,,,,,,,,,,,,,,,,,,,,,,,,,,,,,,,,,,,,,,,,,,,,,,,,,,,,,,,,,,,,,,,,,"[9,5,2,1,8,6,4,3,7,7]",6,0,6,0,1,,,,,,,,,,,,,,,,,,,,,,,,,,,,,,,,,,,,,,,,,,,,,,,,
,,5ebb96b6cd673a0008ace9ce,2022-09-08_13h16.51.800,CGTgamblingSpanTasks,2022.2.1,Win32,60.0240096,,,,,,,,,,,,,,,,,,,,,,,,,,,,,,,,,,,,,,,,,,,,,,,,,,,,,,,,,,,,,,,,,,,,,,,,,,,,,,,,,,"[9,5,2,1,8,6,4,3,7,7]",7,0,7,0,1,,,,,,,,,,,,,,,,,,,,,,,,,,,,,,,,,,,,,,,,,,,,,,,,
,,5ebb96b6cd673a0008ace9ce,2022-09-08_13h16.51.800,CGTgamblingSpanTasks,2022.2.1,Win32,60.0240096,,,,,,,,,,,,,,,,,,,,,,,,,,,,,,,,,,,,,,,,,,,,,,,,,,,,,,,,,,,,,,,,,,,,,,,,,,,,,,,,,,"[9,5,2,1,8,6,4,3,7,7]",8,0,8,0,1,,,,,,,,,,,,,,,,,,,,,,,,,,,,,,,,,,,,,,,,,,,,,,,,
,,5ebb96b6cd673a0008ace9ce,2022-09-08_13h16.51.800,CGTgamblingSpanTasks,2022.2.1,Win32,60.0240096,,,,,,,,,,,,,,,,,,,,,,,,,,,,,,,,,,,,,,,,,,,,,,,,,,,,,,,,,,,,,,,,,,,,,,,,,,,,,,,,,,"[9,5,2,1,8,6,4,3,7,7]",9,0,9,0,1,,,,,,,,,,,,,,,,,,,,,,,,,,,,,,,,,,,,,,,,,,,,,,,,
,,5ebb96b6cd673a0008ace9ce,2022-09-08_13h16.51.800,CGTgamblingSpanTasks,2022.2.1,Win32,60.0240096,,,,,,,,,,,,,,,,,,,,,,,,,,,,,,,,,,,,,,,,,,,,,,,,,,,,,,,,,,,,,,,0,,,,,,,,,,,,,,,,,,,,,,,,,94612643777,0.013020833,-0.403645833,1,0,0,cont_button,0,8,8,8,1,9,,,,,,,,,,,,,,,,,,,,,,,,,,,,,,,,,,,
,,5ebb96b6cd673a0008ace9ce,2022-09-08_13h16.51.800,CGTgamblingSpanTasks,2022.2.1,Win32,60.0240096,,,,,,,,,,,,,,,,,,,,,,,,,,,,,,,,,,,,,,,,,,,,,,,,,,,,,,,,,,,,,,,,,,,,,,,,,,,,,,,,,,"[4,5,1,2,8,6,7,3,9]",0,0,0,0,1,,,,,,,,,,,,,,,,,,,,,,,,,,,,,,,,,,,,,,,,,,,,,,,,
,,5ebb96b6cd673a0008ace9ce,2022-09-08_13h16.51.800,CGTgamblingSpanTasks,2022.2.1,Win32,60.0240096,,,,,,,,,,,,,,,,,,,,,,,,,,,,,,,,,,,,,,,,,,,,,,,,,,,,,,,,,,,,,,,,,,,,,,,,,,,,,,,,,,"[4,5,1,2,8,6,7,3,9]",1,0,1,0,1,,,,,,,,,,,,,,,,,,,,,,,,,,,,,,,,,,,,,,,,,,,,,,,,
,,5ebb96b6cd673a0008ace9ce,2022-09-08_13h16.51.800,CGTgamblingSpanTasks,2022.2.1,Win32,60.0240096,,,,,,,,,,,,,,,,,,,,,,,,,,,,,,,,,,,,,,,,,,,,,,,,,,,,,,,,,,,,,,,,,,,,,,,,,,,,,,,,,,"[4,5,1,2,8,6,7,3,9]",2,0,2,0,1,,,,,,,,,,,,,,,,,,,,,,,,,,,,,,,,,,,,,,,,,,,,,,,,
,,5ebb96b6cd673a0008ace9ce,2022-09-08_13h16.51.800,CGTgamblingSpanTasks,2022.2.1,Win32,60.0240096,,,,,,,,,,,,,,,,,,,,,,,,,,,,,,,,,,,,,,,,,,,,,,,,,,,,,,,,,,,,,,,,,,,,,,,,,,,,,,,,,,"[4,5,1,2,8,6,7,3,9]",3,0,3,0,1,,,,,,,,,,,,,,,,,,,,,,,,,,,,,,,,,,,,,,,,,,,,,,,,
,,5ebb96b6cd673a0008ace9ce,2022-09-08_13h16.51.800,CGTgamblingSpanTasks,2022.2.1,Win32,60.0240096,,,,,,,,,,,,,,,,,,,,,,,,,,,,,,,,,,,,,,,,,,,,,,,,,,,,,,,,,,,,,,,,,,,,,,,,,,,,,,,,,,"[4,5,1,2,8,6,7,3,9]",4,0,4,0,1,,,,,,,,,,,,,,,,,,,,,,,,,,,,,,,,,,,,,,,,,,,,,,,,
,,5ebb96b6cd673a0008ace9ce,2022-09-08_13h16.51.800,CGTgamblingSpanTasks,2022.2.1,Win32,60.0240096,,,,,,,,,,,,,,,,,,,,,,,,,,,,,,,,,,,,,,,,,,,,,,,,,,,,,,,,,,,,,,,,,,,,,,,,,,,,,,,,,,"[4,5,1,2,8,6,7,3,9]",5,0,5,0,1,,,,,,,,,,,,,,,,,,,,,,,,,,,,,,,,,,,,,,,,,,,,,,,,
,,5ebb96b6cd673a0008ace9ce,2022-09-08_13h16.51.800,CGTgamblingSpanTasks,2022.2.1,Win32,60.0240096,,,,,,,,,,,,,,,,,,,,,,,,,,,,,,,,,,,,,,,,,,,,,,,,,,,,,,,,,,,,,,,,,,,,,,,,,,,,,,,,,,"[4,5,1,2,8,6,7,3,9]",6,0,6,0,1,,,,,,,,,,,,,,,,,,,,,,,,,,,,,,,,,,,,,,,,,,,,,,,,
,,5ebb96b6cd673a0008ace9ce,2022-09-08_13h16.51.800,CGTgamblingSpanTasks,2022.2.1,Win32,60.0240096,,,,,,,,,,,,,,,,,,,,,,,,,,,,,,,,,,,,,,,,,,,,,,,,,,,,,,,,,,,,,,,,,,,,,,,,,,,,,,,,,,"[4,5,1,2,8,6,7,3,9]",7,0,7,0,1,,,,,,,,,,,,,,,,,,,,,,,,,,,,,,,,,,,,,,,,,,,,,,,,
,,5ebb96b6cd673a0008ace9ce,2022-09-08_13h16.51.800,CGTgamblingSpanTasks,2022.2.1,Win32,60.0240096,,,,,,,,,,,,,,,,,,,,,,,,,,,,,,,,,,,,,,,,,,,,,,,,,,,,,,,,,,,,,,,,,,,,,,,,,,,,,,,,,,"[4,5,1,2,8,6,7,3,9]",8,0,8,0,1,,,,,,,,,,,,,,,,,,,,,,,,,,,,,,,,,,,,,,,,,,,,,,,,
,,5ebb96b6cd673a0008ace9ce,2022-09-08_13h16.51.800,CGTgamblingSpanTasks,2022.2.1,Win32,60.0240096,,,,,,,,,,,,,,,,,,,,,,,,,,,,,,,,,,,,,,,,,,,,,,,,,,,,,,,,,,,,,,,0,,,,,,,,,,,,,,,,,,,,,,,,,47128639,0.014322917,-0.403645833,1,0,0,cont_button,0,9,9,9,1,10,,,,,,,,,,,,,,,,,,,,,,,,,,,,,,,,,,,
,,5ebb96b6cd673a0008ace9ce,2022-09-08_13h16.51.800,CGTgamblingSpanTasks,2022.2.1,Win32,60.0240096,,,,,,,,,,,,,,,,,,,,,,,,,,,,,,,,,,,,,,,,,,,,,,,,,,,,,,,,,,,,,,,,,,,,,,,,,,,,,,,,,,"[1,4,5,9,8,3,2,6,7]",0,0,0,0,1,,,,,,,,,,,,,,,,,,,,,,,,,,,,,,,,,,,,,,,,,,,,,,,,
,,5ebb96b6cd673a0008ace9ce,2022-09-08_13h16.51.800,CGTgamblingSpanTasks,2022.2.1,Win32,60.0240096,,,,,,,,,,,,,,,,,,,,,,,,,,,,,,,,,,,,,,,,,,,,,,,,,,,,,,,,,,,,,,,,,,,,,,,,,,,,,,,,,,"[1,4,5,9,8,3,2,6,7]",1,0,1,0,1,,,,,,,,,,,,,,,,,,,,,,,,,,,,,,,,,,,,,,,,,,,,,,,,
,,5ebb96b6cd673a0008ace9ce,2022-09-08_13h16.51.800,CGTgamblingSpanTasks,2022.2.1,Win32,60.0240096,,,,,,,,,,,,,,,,,,,,,,,,,,,,,,,,,,,,,,,,,,,,,,,,,,,,,,,,,,,,,,,,,,,,,,,,,,,,,,,,,,"[1,4,5,9,8,3,2,6,7]",2,0,2,0,1,,,,,,,,,,,,,,,,,,,,,,,,,,,,,,,,,,,,,,,,,,,,,,,,
,,5ebb96b6cd673a0008ace9ce,2022-09-08_13h16.51.800,CGTgamblingSpanTasks,2022.2.1,Win32,60.0240096,,,,,,,,,,,,,,,,,,,,,,,,,,,,,,,,,,,,,,,,,,,,,,,,,,,,,,,,,,,,,,,,,,,,,,,,,,,,,,,,,,"[1,4,5,9,8,3,2,6,7]",3,0,3,0,1,,,,,,,,,,,,,,,,,,,,,,,,,,,,,,,,,,,,,,,,,,,,,,,,
,,5ebb96b6cd673a0008ace9ce,2022-09-08_13h16.51.800,CGTgamblingSpanTasks,2022.2.1,Win32,60.0240096,,,,,,,,,,,,,,,,,,,,,,,,,,,,,,,,,,,,,,,,,,,,,,,,,,,,,,,,,,,,,,,,,,,,,,,,,,,,,,,,,,"[1,4,5,9,8,3,2,6,7]",4,0,4,0,1,,,,,,,,,,,,,,,,,,,,,,,,,,,,,,,,,,,,,,,,,,,,,,,,
,,5ebb96b6cd673a0008ace9ce,2022-09-08_13h16.51.800,CGTgamblingSpanTasks,2022.2.1,Win32,60.0240096,,,,,,,,,,,,,,,,,,,,,,,,,,,,,,,,,,,,,,,,,,,,,,,,,,,,,,,,,,,,,,,,,,,,,,,,,,,,,,,,,,"[1,4,5,9,8,3,2,6,7]",5,0,5,0,1,,,,,,,,,,,,,,,,,,,,,,,,,,,,,,,,,,,,,,,,,,,,,,,,
,,5ebb96b6cd673a0008ace9ce,2022-09-08_13h16.51.800,CGTgamblingSpanTasks,2022.2.1,Win32,60.0240096,,,,,,,,,,,,,,,,,,,,,,,,,,,,,,,,,,,,,,,,,,,,,,,,,,,,,,,,,,,,,,,,,,,,,,,,,,,,,,,,,,"[1,4,5,9,8,3,2,6,7]",6,0,6,0,1,,,,,,,,,,,,,,,,,,,,,,,,,,,,,,,,,,,,,,,,,,,,,,,,
,,5ebb96b6cd673a0008ace9ce,2022-09-08_13h16.51.800,CGTgamblingSpanTasks,2022.2.1,Win32,60.0240096,,,,,,,,,,,,,,,,,,,,,,,,,,,,,,,,,,,,,,,,,,,,,,,,,,,,,,,,,,,,,,,,,,,,,,,,,,,,,,,,,,"[1,4,5,9,8,3,2,6,7]",7,0,7,0,1,,,,,,,,,,,,,,,,,,,,,,,,,,,,,,,,,,,,,,,,,,,,,,,,
,,5ebb96b6cd673a0008ace9ce,2022-09-08_13h16.51.800,CGTgamblingSpanTasks,2022.2.1,Win32,60.0240096,,,,,,,,,,,,,,,,,,,,,,,,,,,,,,,,,,,,,,,,,,,,,,,,,,,,,,,,,,,,,,,,,,,,,,,,,,,,,,,,,,"[1,4,5,9,8,3,2,6,7]",8,0,8,0,1,,,,,,,,,,,,,,,,,,,,,,,,,,,,,,,,,,,,,,,,,,,,,,,,
,,5ebb96b6cd673a0008ace9ce,2022-09-08_13h16.51.800,CGTgamblingSpanTasks,2022.2.1,Win32,60.0240096,,,,,,,,,,,,,,,,,,,,,,,,,,,,,,,,,,,,,,,,,,,,,,,,,,,,,,,,,,,,,,,0,,,,,,,,,,,,,,,,,,,,,,,,,154389236,0.014322917,-0.40234375,1,0,0,cont_button,0,10,10,10,1,11,,,,,,,,,,,,,,,,,,,,,,,,,,,,,,,,,,,
,,5ebb96b6cd673a0008ace9ce,2022-09-08_13h16.51.800,CGTgamblingSpanTasks,2022.2.1,Win32,60.0240096,,,,,,,,,,,,,,,,,,,,,,,,,,,,,,,,,,,,,,,,,,,,,,,,,,,,,,,,,,,,,,,,,,,,,,,,,,,,,,,,,,"[5,7,3,8,4,1,2,6]",0,0,0,0,1,,,,,,,,,,,,,,,,,,,,,,,,,,,,,,,,,,,,,,,,,,,,,,,,
,,5ebb96b6cd673a0008ace9ce,2022-09-08_13h16.51.800,CGTgamblingSpanTasks,2022.2.1,Win32,60.0240096,,,,,,,,,,,,,,,,,,,,,,,,,,,,,,,,,,,,,,,,,,,,,,,,,,,,,,,,,,,,,,,,,,,,,,,,,,,,,,,,,,"[5,7,3,8,4,1,2,6]",1,0,1,0,1,,,,,,,,,,,,,,,,,,,,,,,,,,,,,,,,,,,,,,,,,,,,,,,,
,,5ebb96b6cd673a0008ace9ce,2022-09-08_13h16.51.800,CGTgamblingSpanTasks,2022.2.1,Win32,60.0240096,,,,,,,,,,,,,,,,,,,,,,,,,,,,,,,,,,,,,,,,,,,,,,,,,,,,,,,,,,,,,,,,,,,,,,,,,,,,,,,,,,"[5,7,3,8,4,1,2,6]",2,0,2,0,1,,,,,,,,,,,,,,,,,,,,,,,,,,,,,,,,,,,,,,,,,,,,,,,,
,,5ebb96b6cd673a0008ace9ce,2022-09-08_13h16.51.800,CGTgamblingSpanTasks,2022.2.1,Win32,60.0240096,,,,,,,,,,,,,,,,,,,,,,,,,,,,,,,,,,,,,,,,,,,,,,,,,,,,,,,,,,,,,,,,,,,,,,,,,,,,,,,,,,"[5,7,3,8,4,1,2,6]",3,0,3,0,1,,,,,,,,,,,,,,,,,,,,,,,,,,,,,,,,,,,,,,,,,,,,,,,,
,,5ebb96b6cd673a0008ace9ce,2022-09-08_13h16.51.800,CGTgamblingSpanTasks,2022.2.1,Win32,60.0240096,,,,,,,,,,,,,,,,,,,,,,,,,,,,,,,,,,,,,,,,,,,,,,,,,,,,,,,,,,,,,,,,,,,,,,,,,,,,,,,,,,"[5,7,3,8,4,1,2,6]",4,0,4,0,1,,,,,,,,,,,,,,,,,,,,,,,,,,,,,,,,,,,,,,,,,,,,,,,,
,,5ebb96b6cd673a0008ace9ce,2022-09-08_13h16.51.800,CGTgamblingSpanTasks,2022.2.1,Win32,60.0240096,,,,,,,,,,,,,,,,,,,,,,,,,,,,,,,,,,,,,,,,,,,,,,,,,,,,,,,,,,,,,,,,,,,,,,,,,,,,,,,,,,"[5,7,3,8,4,1,2,6]",5,0,5,0,1,,,,,,,,,,,,,,,,,,,,,,,,,,,,,,,,,,,,,,,,,,,,,,,,
,,5ebb96b6cd673a0008ace9ce,2022-09-08_13h16.51.800,CGTgamblingSpanTasks,2022.2.1,Win32,60.0240096,,,,,,,,,,,,,,,,,,,,,,,,,,,,,,,,,,,,,,,,,,,,,,,,,,,,,,,,,,,,,,,,,,,,,,,,,,,,,,,,,,"[5,7,3,8,4,1,2,6]",6,0,6,0,1,,,,,,,,,,,,,,,,,,,,,,,,,,,,,,,,,,,,,,,,,,,,,,,,
,,5ebb96b6cd673a0008ace9ce,2022-09-08_13h16.51.800,CGTgamblingSpanTasks,2022.2.1,Win32,60.0240096,,,,,,,,,,,,,,,,,,,,,,,,,,,,,,,,,,,,,,,,,,,,,,,,,,,,,,,,,,,,,,,,,,,,,,,,,,,,,,,,,,"[5,7,3,8,4,1,2,6]",7,0,7,0,1,,,,,,,,,,,,,,,,,,,,,,,,,,,,,,,,,,,,,,,,,,,,,,,,
,,5ebb96b6cd673a0008ace9ce,2022-09-08_13h16.51.800,CGTgamblingSpanTasks,2022.2.1,Win32,60.0240096,,,,,,,,,,,,,,,,,,,,,,,,,,,,,,,,,,,,,,,,,,,,,,,,,,,,,,,,,,,,,,,0,,,,,,,,,,,,,,,,,,,,,,,,,57482136,0.029947917,-0.40234375,1,0,0,cont_button,0,11,11,11,1,12,,,,,,,,,,,,,,,,,,,,,,,,,,,,,,,,,,,
,,5ebb96b6cd673a0008ace9ce,2022-09-08_13h16.51.800,CGTgamblingSpanTasks,2022.2.1,Win32,60.0240096,,,,,,,,,,,,,,,,,,,,,,,,,,,,,,,,,,,,,,,,,,,,,,,,,,,,,,,,,,,,,,,,,,,,,,,,,,,,,,,,,,"[1,9,5,6,2,7,8,4]",0,0,0,0,1,,,,,,,,,,,,,,,,,,,,,,,,,,,,,,,,,,,,,,,,,,,,,,,,
,,5ebb96b6cd673a0008ace9ce,2022-09-08_13h16.51.800,CGTgamblingSpanTasks,2022.2.1,Win32,60.0240096,,,,,,,,,,,,,,,,,,,,,,,,,,,,,,,,,,,,,,,,,,,,,,,,,,,,,,,,,,,,,,,,,,,,,,,,,,,,,,,,,,"[1,9,5,6,2,7,8,4]",1,0,1,0,1,,,,,,,,,,,,,,,,,,,,,,,,,,,,,,,,,,,,,,,,,,,,,,,,
,,5ebb96b6cd673a0008ace9ce,2022-09-08_13h16.51.800,CGTgamblingSpanTasks,2022.2.1,Win32,60.0240096,,,,,,,,,,,,,,,,,,,,,,,,,,,,,,,,,,,,,,,,,,,,,,,,,,,,,,,,,,,,,,,,,,,,,,,,,,,,,,,,,,"[1,9,5,6,2,7,8,4]",2,0,2,0,1,,,,,,,,,,,,,,,,,,,,,,,,,,,,,,,,,,,,,,,,,,,,,,,,
,,5ebb96b6cd673a0008ace9ce,2022-09-08_13h16.51.800,CGTgamblingSpanTasks,2022.2.1,Win32,60.0240096,,,,,,,,,,,,,,,,,,,,,,,,,,,,,,,,,,,,,,,,,,,,,,,,,,,,,,,,,,,,,,,,,,,,,,,,,,,,,,,,,,"[1,9,5,6,2,7,8,4]",3,0,3,0,1,,,,,,,,,,,,,,,,,,,,,,,,,,,,,,,,,,,,,,,,,,,,,,,,
,,5ebb96b6cd673a0008ace9ce,2022-09-08_13h16.51.800,CGTgamblingSpanTasks,2022.2.1,Win32,60.0240096,,,,,,,,,,,,,,,,,,,,,,,,,,,,,,,,,,,,,,,,,,,,,,,,,,,,,,,,,,,,,,,,,,,,,,,,,,,,,,,,,,"[1,9,5,6,2,7,8,4]",4,0,4,0,1,,,,,,,,,,,,,,,,,,,,,,,,,,,,,,,,,,,,,,,,,,,,,,,,
,,5ebb96b6cd673a0008ace9ce,2022-09-08_13h16.51.800,CGTgamblingSpanTasks,2022.2.1,Win32,60.0240096,,,,,,,,,,,,,,,,,,,,,,,,,,,,,,,,,,,,,,,,,,,,,,,,,,,,,,,,,,,,,,,,,,,,,,,,,,,,,,,,,,"[1,9,5,6,2,7,8,4]",5,0,5,0,1,,,,,,,,,,,,,,,,,,,,,,,,,,,,,,,,,,,,,,,,,,,,,,,,
,,5ebb96b6cd673a0008ace9ce,2022-09-08_13h16.51.800,CGTgamblingSpanTasks,2022.2.1,Win32,60.0240096,,,,,,,,,,,,,,,,,,,,,,,,,,,,,,,,,,,,,,,,,,,,,,,,,,,,,,,,,,,,,,,,,,,,,,,,,,,,,,,,,,"[1,9,5,6,2,7,8,4]",6,0,6,0,1,,,,,,,,,,,,,,,,,,,,,,,,,,,,,,,,,,,,,,,,,,,,,,,,
,,5ebb96b6cd673a0008ace9ce,2022-09-08_13h16.51.800,CGTgamblingSpanTasks,2022.2.1,Win32,60.0240096,,,,,,,,,,,,,,,,,,,,,,,,,,,,,,,,,,,,,,,,,,,,,,,,,,,,,,,,,,,,,,,,,,,,,,,,,,,,,,,,,,"[1,9,5,6,2,7,8,4]",7,0,7,0,1,,,,,,,,,,,,,,,,,,,,,,,,,,,,,,,,,,,,,,,,,,,,,,,,
,,5ebb96b6cd673a0008ace9ce,2022-09-08_13h16.51.800,CGTgamblingSpanTasks,2022.2.1,Win32,60.0240096,,,,,,,,,,,,,,,,,,,,,,,,,,,,,,,,,,,,,,,,,,,,,,,,,,,,,,,,,,,,,,,1,,,,,,,,,,,,,,,,,,,,,,,,,19562784,0.032552083,-0.40234375,1,0,0,cont_button,0,12,12,12,1,13,,,,,,,,,,,,,,,,,,,,,,,,,,,,,,,,,,,
,,5ebb96b6cd673a0008ace9ce,2022-09-08_13h16.51.800,CGTgamblingSpanTasks,2022.2.1,Win32,60.0240096,,,,,,,,,,,,,,,,,,,,,,,,,,,,,,,,,,,,,,,,,,,,,,,,,,,,,,,,,,,,,,,,,,,,,,,,,,,,,,,,,,"[4,2,6,7,3,1,8,9,5]",0,0,0,0,1,,,,,,,,,,,,,,,,,,,,,,,,,,,,,,,,,,,,,,,,,,,,,,,,
,,5ebb96b6cd673a0008ace9ce,2022-09-08_13h16.51.800,CGTgamblingSpanTasks,2022.2.1,Win32,60.0240096,,,,,,,,,,,,,,,,,,,,,,,,,,,,,,,,,,,,,,,,,,,,,,,,,,,,,,,,,,,,,,,,,,,,,,,,,,,,,,,,,,"[4,2,6,7,3,1,8,9,5]",1,0,1,0,1,,,,,,,,,,,,,,,,,,,,,,,,,,,,,,,,,,,,,,,,,,,,,,,,
,,5ebb96b6cd673a0008ace9ce,2022-09-08_13h16.51.800,CGTgamblingSpanTasks,2022.2.1,Win32,60.0240096,,,,,,,,,,,,,,,,,,,,,,,,,,,,,,,,,,,,,,,,,,,,,,,,,,,,,,,,,,,,,,,,,,,,,,,,,,,,,,,,,,"[4,2,6,7,3,1,8,9,5]",2,0,2,0,1,,,,,,,,,,,,,,,,,,,,,,,,,,,,,,,,,,,,,,,,,,,,,,,,
,,5ebb96b6cd673a0008ace9ce,2022-09-08_13h16.51.800,CGTgamblingSpanTasks,2022.2.1,Win32,60.0240096,,,,,,,,,,,,,,,,,,,,,,,,,,,,,,,,,,,,,,,,,,,,,,,,,,,,,,,,,,,,,,,,,,,,,,,,,,,,,,,,,,"[4,2,6,7,3,1,8,9,5]",3,0,3,0,1,,,,,,,,,,,,,,,,,,,,,,,,,,,,,,,,,,,,,,,,,,,,,,,,
,,5ebb96b6cd673a0008ace9ce,2022-09-08_13h16.51.800,CGTgamblingSpanTasks,2022.2.1,Win32,60.0240096,,,,,,,,,,,,,,,,,,,,,,,,,,,,,,,,,,,,,,,,,,,,,,,,,,,,,,,,,,,,,,,,,,,,,,,,,,,,,,,,,,"[4,2,6,7,3,1,8,9,5]",4,0,4,0,1,,,,,,,,,,,,,,,,,,,,,,,,,,,,,,,,,,,,,,,,,,,,,,,,
,,5ebb96b6cd673a0008ace9ce,2022-09-08_13h16.51.800,CGTgamblingSpanTasks,2022.2.1,Win32,60.0240096,,,,,,,,,,,,,,,,,,,,,,,,,,,,,,,,,,,,,,,,,,,,,,,,,,,,,,,,,,,,,,,,,,,,,,,,,,,,,,,,,,"[4,2,6,7,3,1,8,9,5]",5,0,5,0,1,,,,,,,,,,,,,,,,,,,,,,,,,,,,,,,,,,,,,,,,,,,,,,,,
,,5ebb96b6cd673a0008ace9ce,2022-09-08_13h16.51.800,CGTgamblingSpanTasks,2022.2.1,Win32,60.0240096,,,,,,,,,,,,,,,,,,,,,,,,,,,,,,,,,,,,,,,,,,,,,,,,,,,,,,,,,,,,,,,,,,,,,,,,,,,,,,,,,,"[4,2,6,7,3,1,8,9,5]",6,0,6,0,1,,,,,,,,,,,,,,,,,,,,,,,,,,,,,,,,,,,,,,,,,,,,,,,,
,,5ebb96b6cd673a0008ace9ce,2022-09-08_13h16.51.800,CGTgamblingSpanTasks,2022.2.1,Win32,60.0240096,,,,,,,,,,,,,,,,,,,,,,,,,,,,,,,,,,,,,,,,,,,,,,,,,,,,,,,,,,,,,,,,,,,,,,,,,,,,,,,,,,"[4,2,6,7,3,1,8,9,5]",7,0,7,0,1,,,,,,,,,,,,,,,,,,,,,,,,,,,,,,,,,,,,,,,,,,,,,,,,
,,5ebb96b6cd673a0008ace9ce,2022-09-08_13h16.51.800,CGTgamblingSpanTasks,2022.2.1,Win32,60.0240096,,,,,,,,,,,,,,,,,,,,,,,,,,,,,,,,,,,,,,,,,,,,,,,,,,,,,,,,,,,,,,,,,,,,,,,,,,,,,,,,,,"[4,2,6,7,3,1,8,9,5]",8,0,8,0,1,,,,,,,,,,,,,,,,,,,,,,,,,,,,,,,,,,,,,,,,,,,,,,,,
,,5ebb96b6cd673a0008ace9ce,2022-09-08_13h16.51.800,CGTgamblingSpanTasks,2022.2.1,Win32,60.0240096,,,,,,,,,,,,,,,,,,,,,,,,,,,,,,,,,,,,,,,,,,,,,,,,,,,,,,,,,,,,,,,1,,,,,,,,,,,,,,,,,,,,,,,,,426731895,0.0234375,-0.40234375,1,0,0,cont_button,0,13,13,13,1,14,,,,,,,,,,,,,,,,,,,,,,,,,,,,,,,,,,,
,,5ebb96b6cd673a0008ace9ce,2022-09-08_13h16.51.800,CGTgamblingSpanTasks,2022.2.1,Win32,60.0240096,,,,,,,,,,,,,,,,,,,,,,,,,,,,,,,,,,,,,,,,,,,,,,,,,,,,,,,,,,,,,,,,,,,,,,,,,,,,,,,,,,,,,,,,,,,,,,,,,,,,,return,2.072,,,,,,,,,,,,,,,,,,,,,,,,,,,,,,,,,
,,5ebb96b6cd673a0008ace9ce,2022-09-08_13h16.51.800,CGTgamblingSpanTasks,2022.2.1,Win32,60.0240096,,,,,,,,,,,,,,,,,,,,,,,,,,,,,,,,,,,,,,,,,,,,,,,,,,,,,,,,,,,,,,,,,,,,,,,,,,,,,,,,,,,,,,,,,,,,,,,,,,,,,,,return,6.172,,,,,,,,,,,,,,,,,,,,,,,,,,,,,,,
,,5ebb96b6cd673a0008ace9ce,2022-09-08_13h16.51.800,CGTgamblingSpanTasks,2022.2.1,Win32,60.0240096,,,,,,,,,,,,,,,,,,,,,,,,,,,,,,,,,,,,,,,,,,,,,,,,,,,,,,,,,,,,,,,1,,,,,,,,,,,,3,342,24,2,42,,,,,,,,,,,,,,,,,,,,,,,,,,42,0.0234375,-0.40234375,1,0,0,cont_buttonPractice_2,0,0,0,0,1,,,,,,,,,,,,,,,,,,,
,,5ebb96b6cd673a0008ace9ce,2022-09-08_13h16.51.800,CGTgamblingSpanTasks,2022.2.1,Win32,60.0240096,,,,,,,,,,,,,,,,,,,,,,,,,,,,,,,,,,,,,,,,,,,,,,,,,,,,,,,,,,,,,,,1,,,,,,,,,,,,3,937,73,2,37,,,,,,,,,,,,,,,,,,,,,,,,,,37,0.0234375,-0.40234375,1,0,0,cont_buttonPractice_2,0,1,1,1,1,,,,,,,,,,,,,,,,,,,
,,5ebb96b6cd673a0008ace9ce,2022-09-08_13h16.51.800,CGTgamblingSpanTasks,2022.2.1,Win32,60.0240096,,,,,,,,,,,,,,,,,,,,,,,,,,,,,,,,,,,,,,,,,,,,,,,,,,,,,,,,,,,,,,,,,,,,,,,,,,,,,,,,,,,,,,,,,,,,,,,,,,,,,,,,,,,,,,,,,,,,,return,3.619,,,,,,,,,,,,,,,,,
,,5ebb96b6cd673a0008ace9ce,2022-09-08_13h16.51.800,CGTgamblingSpanTasks,2022.2.1,Win32,60.0240096,,,,,,,,,,,,,,,,,,,,,,,,,,,,,,,,,,,,,,,,,,,,,,,,,,,,,,,,,,,,,,,,,,,,,,,,,,,,,,,,,,"[4,1]",,,,,,,,,,,,,,,,,,,,,,,,,,,,,,,,,,,,,0,0,0,0,1,,,,,,,,,,,,
,,5ebb96b6cd673a0008ace9ce,2022-09-08_13h16.51.800,CGTgamblingSpanTasks,2022.2.1,Win32,60.0240096,,,,,,,,,,,,,,,,,,,,,,,,,,,,,,,,,,,,,,,,,,,,,,,,,,,,,,,,,,,,,,,,,,,,,,,,,,,,,,,,,,"[4,1]",,,,,,,,,,,,,,,,,,,,,,,,,,,,,,,,,,,,,1,0,1,0,1,,,,,,,,,,,,
,,5ebb96b6cd673a0008ace9ce,2022-09-08_13h16.51.800,CGTgamblingSpanTasks,2022.2.1,Win32,60.0240096,,,,,,,,,,,,,,,,,,,,,,,,,,,,,,,,,,,,,,,,,,,,,,,,,,,,,,,,,,,,,,,1,,,,,,,,,,,,,,,,,,,,,,,,,,,,,,,,,,,,,1,,,,,,,,,,,,,,,,,,,,,,,,14,0.005208333,-0.40234375,1,0,0,cont_buttonBS,0,0,0,0,1
,,5ebb96b6cd673a0008ace9ce,2022-09-08_13h16.51.800,CGTgamblingSpanTasks,2022.2.1,Win32,60.0240096,,,,,,,,,,,,,,,,,,,,,,,,,,,,,,,,,,,,,,,,,,,,,,,,,,,,,,,,,,,,,,,,,,,,,,,,,,,,,,,,,,"[7,4,8]",,,,,,,,,,,,,,,,,,,,,,,,,,,,,,,,,,,,,0,0,0,0,1,,,,,,,,,,,,
,,5ebb96b6cd673a0008ace9ce,2022-09-08_13h16.51.800,CGTgamblingSpanTasks,2022.2.1,Win32,60.0240096,,,,,,,,,,,,,,,,,,,,,,,,,,,,,,,,,,,,,,,,,,,,,,,,,,,,,,,,,,,,,,,,,,,,,,,,,,,,,,,,,,"[7,4,8]",,,,,,,,,,,,,,,,,,,,,,,,,,,,,,,,,,,,,1,0,1,0,1,,,,,,,,,,,,
,,5ebb96b6cd673a0008ace9ce,2022-09-08_13h16.51.800,CGTgamblingSpanTasks,2022.2.1,Win32,60.0240096,,,,,,,,,,,,,,,,,,,,,,,,,,,,,,,,,,,,,,,,,,,,,,,,,,,,,,,,,,,,,,,,,,,,,,,,,,,,,,,,,,"[7,4,8]",,,,,,,,,,,,,,,,,,,,,,,,,,,,,,,,,,,,,2,0,2,0,1,,,,,,,,,,,,
,,5ebb96b6cd673a0008ace9ce,2022-09-08_13h16.51.800,CGTgamblingSpanTasks,2022.2.1,Win32,60.0240096,,,,,,,,,,,,,,,,,,,,,,,,,,,,,,,,,,,,,,,,,,,,,,,,,,,,,,,,,,,,,,,1,,,,,,,,,,,,,,,,,,,,,,,,,,,,,,,,,,,,,2,,,,,,,,,,,,,,,,,,,,,,,,847,-0.005208333,-0.40234375,1,0,0,cont_buttonBS,0,1,1,1,1
,,5ebb96b6cd673a0008ace9ce,2022-09-08_13h16.51.800,CGTgamblingSpanTasks,2022.2.1,Win32,60.0240096,,,,,,,,,,,,,,,,,,,,,,,,,,,,,,,,,,,,,,,,,,,,,,,,,,,,,,,,,,,,,,,,,,,,,,,,,,,,,,,,,,"[3,6,9,2]",,,,,,,,,,,,,,,,,,,,,,,,,,,,,,,,,,,,,0,0,0,0,1,,,,,,,,,,,,
,,5ebb96b6cd673a0008ace9ce,2022-09-08_13h16.51.800,CGTgamblingSpanTasks,2022.2.1,Win32,60.0240096,,,,,,,,,,,,,,,,,,,,,,,,,,,,,,,,,,,,,,,,,,,,,,,,,,,,,,,,,,,,,,,,,,,,,,,,,,,,,,,,,,"[3,6,9,2]",,,,,,,,,,,,,,,,,,,,,,,,,,,,,,,,,,,,,1,0,1,0,1,,,,,,,,,,,,
,,5ebb96b6cd673a0008ace9ce,2022-09-08_13h16.51.800,CGTgamblingSpanTasks,2022.2.1,Win32,60.0240096,,,,,,,,,,,,,,,,,,,,,,,,,,,,,,,,,,,,,,,,,,,,,,,,,,,,,,,,,,,,,,,,,,,,,,,,,,,,,,,,,,"[3,6,9,2]",,,,,,,,,,,,,,,,,,,,,,,,,,,,,,,,,,,,,2,0,2,0,1,,,,,,,,,,,,
,,5ebb96b6cd673a0008ace9ce,2022-09-08_13h16.51.800,CGTgamblingSpanTasks,2022.2.1,Win32,60.0240096,,,,,,,,,,,,,,,,,,,,,,,,,,,,,,,,,,,,,,,,,,,,,,,,,,,,,,,,,,,,,,,,,,,,,,,,,,,,,,,,,,"[3,6,9,2]",,,,,,,,,,,,,,,,,,,,,,,,,,,,,,,,,,,,,3,0,3,0,1,,,,,,,,,,,,
,,5ebb96b6cd673a0008ace9ce,2022-09-08_13h16.51.800,CGTgamblingSpanTasks,2022.2.1,Win32,60.0240096,,,,,,,,,,,,,,,,,,,,,,,,,,,,,,,,,,,,,,,,,,,,,,,,,,,,,,,,,,,,,,,1,,,,,,,,,,,,,,,,,,,,,,,,,,,,,,,,,,,,,3,,,,,,,,,,,,,,,,,,,,,,,,2963,-0.005208333,-0.40234375,1,0,0,cont_buttonBS,0,2,2,2,1
,,5ebb96b6cd673a0008ace9ce,2022-09-08_13h16.51.800,CGTgamblingSpanTasks,2022.2.1,Win32,60.0240096,,,,,,,,,,,,,,,,,,,,,,,,,,,,,,,,,,,,,,,,,,,,,,,,,,,,,,,,,,,,,,,,,,,,,,,,,,,,,,,,,,"[9,2,7,3,6]",,,,,,,,,,,,,,,,,,,,,,,,,,,,,,,,,,,,,0,0,0,0,1,,,,,,,,,,,,
,,5ebb96b6cd673a0008ace9ce,2022-09-08_13h16.51.800,CGTgamblingSpanTasks,2022.2.1,Win32,60.0240096,,,,,,,,,,,,,,,,,,,,,,,,,,,,,,,,,,,,,,,,,,,,,,,,,,,,,,,,,,,,,,,,,,,,,,,,,,,,,,,,,,"[9,2,7,3,6]",,,,,,,,,,,,,,,,,,,,,,,,,,,,,,,,,,,,,1,0,1,0,1,,,,,,,,,,,,
,,5ebb96b6cd673a0008ace9ce,2022-09-08_13h16.51.800,CGTgamblingSpanTasks,2022.2.1,Win32,60.0240096,,,,,,,,,,,,,,,,,,,,,,,,,,,,,,,,,,,,,,,,,,,,,,,,,,,,,,,,,,,,,,,,,,,,,,,,,,,,,,,,,,"[9,2,7,3,6]",,,,,,,,,,,,,,,,,,,,,,,,,,,,,,,,,,,,,2,0,2,0,1,,,,,,,,,,,,
,,5ebb96b6cd673a0008ace9ce,2022-09-08_13h16.51.800,CGTgamblingSpanTasks,2022.2.1,Win32,60.0240096,,,,,,,,,,,,,,,,,,,,,,,,,,,,,,,,,,,,,,,,,,,,,,,,,,,,,,,,,,,,,,,,,,,,,,,,,,,,,,,,,,"[9,2,7,3,6]",,,,,,,,,,,,,,,,,,,,,,,,,,,,,,,,,,,,,3,0,3,0,1,,,,,,,,,,,,
,,5ebb96b6cd673a0008ace9ce,2022-09-08_13h16.51.800,CGTgamblingSpanTasks,2022.2.1,Win32,60.0240096,,,,,,,,,,,,,,,,,,,,,,,,,,,,,,,,,,,,,,,,,,,,,,,,,,,,,,,,,,,,,,,,,,,,,,,,,,,,,,,,,,"[9,2,7,3,6]",,,,,,,,,,,,,,,,,,,,,,,,,,,,,,,,,,,,,4,0,4,0,1,,,,,,,,,,,,
,,5ebb96b6cd673a0008ace9ce,2022-09-08_13h16.51.800,CGTgamblingSpanTasks,2022.2.1,Win32,60.0240096,,,,,,,,,,,,,,,,,,,,,,,,,,,,,,,,,,,,,,,,,,,,,,,,,,,,,,,,,,,,,,,0,,,,,,,,,,,,,,,,,,,,,,,,,,,,,,,,,,,,,4,,,,,,,,,,,,,,,,,,,,,,,,,0.002604167,-0.40234375,1,0,0,cont_buttonBS,0,3,3,3,1
,,5ebb96b6cd673a0008ace9ce,2022-09-08_13h16.51.800,CGTgamblingSpanTasks,2022.2.1,Win32,60.0240096,,,,,,,,,,,,,,,,,,,,,,,,,,,,,,,,,,,,,,,,,,,,,,,,,,,,,,,,,,,,,,,,,,,,,,,,,,,,,,,,,,"[3,6,5,7,2]",,,,,,,,,,,,,,,,,,,,,,,,,,,,,,,,,,,,,0,0,0,0,1,,,,,,,,,,,,
,,5ebb96b6cd673a0008ace9ce,2022-09-08_13h16.51.800,CGTgamblingSpanTasks,2022.2.1,Win32,60.0240096,,,,,,,,,,,,,,,,,,,,,,,,,,,,,,,,,,,,,,,,,,,,,,,,,,,,,,,,,,,,,,,,,,,,,,,,,,,,,,,,,,"[3,6,5,7,2]",,,,,,,,,,,,,,,,,,,,,,,,,,,,,,,,,,,,,1,0,1,0,1,,,,,,,,,,,,
,,5ebb96b6cd673a0008ace9ce,2022-09-08_13h16.51.800,CGTgamblingSpanTasks,2022.2.1,Win32,60.0240096,,,,,,,,,,,,,,,,,,,,,,,,,,,,,,,,,,,,,,,,,,,,,,,,,,,,,,,,,,,,,,,,,,,,,,,,,,,,,,,,,,"[3,6,5,7,2]",,,,,,,,,,,,,,,,,,,,,,,,,,,,,,,,,,,,,2,0,2,0,1,,,,,,,,,,,,
,,5ebb96b6cd673a0008ace9ce,2022-09-08_13h16.51.800,CGTgamblingSpanTasks,2022.2.1,Win32,60.0240096,,,,,,,,,,,,,,,,,,,,,,,,,,,,,,,,,,,,,,,,,,,,,,,,,,,,,,,,,,,,,,,,,,,,,,,,,,,,,,,,,,"[3,6,5,7,2]",,,,,,,,,,,,,,,,,,,,,,,,,,,,,,,,,,,,,3,0,3,0,1,,,,,,,,,,,,
,,5ebb96b6cd673a0008ace9ce,2022-09-08_13h16.51.800,CGTgamblingSpanTasks,2022.2.1,Win32,60.0240096,,,,,,,,,,,,,,,,,,,,,,,,,,,,,,,,,,,,,,,,,,,,,,,,,,,,,,,,,,,,,,,,,,,,,,,,,,,,,,,,,,"[3,6,5,7,2]",,,,,,,,,,,,,,,,,,,,,,,,,,,,,,,,,,,,,4,0,4,0,1,,,,,,,,,,,,
,,5ebb96b6cd673a0008ace9ce,2022-09-08_13h16.51.800,CGTgamblingSpanTasks,2022.2.1,Win32,60.0240096,,,,,,,,,,,,,,,,,,,,,,,,,,,,,,,,,,,,,,,,,,,,,,,,,,,,,,,,,,,,,,,0,,,,,,,,,,,,,,,,,,,,,,,,,,,,,,,,,,,,,5,,,,,,,,,,,,,,,,,,,,,,,,27653,-0.0390625,-0.404947917,1,0,0,cont_buttonBS,0,4,4,4,1
,,5ebb96b6cd673a0008ace9ce,2022-09-08_13h16.51.800,CGTgamblingSpanTasks,2022.2.1,Win32,60.0240096,,,,,,,,,,,,,,,,,,,,,,,,,,,,,,,,,,,,,,,,,,,,,,,,,,,,,,,,,,,,,,,,,,,,,,,,,,,,,,,,,,"[9,5,3,1]",,,,,,,,,,,,,,,,,,,,,,,,,,,,,,,,,,,,,0,0,0,0,1,,,,,,,,,,,,
,,5ebb96b6cd673a0008ace9ce,2022-09-08_13h16.51.800,CGTgamblingSpanTasks,2022.2.1,Win32,60.0240096,,,,,,,,,,,,,,,,,,,,,,,,,,,,,,,,,,,,,,,,,,,,,,,,,,,,,,,,,,,,,,,,,,,,,,,,,,,,,,,,,,"[9,5,3,1]",,,,,,,,,,,,,,,,,,,,,,,,,,,,,,,,,,,,,1,0,1,0,1,,,,,,,,,,,,
,,5ebb96b6cd673a0008ace9ce,2022-09-08_13h16.51.800,CGTgamblingSpanTasks,2022.2.1,Win32,60.0240096,,,,,,,,,,,,,,,,,,,,,,,,,,,,,,,,,,,,,,,,,,,,,,,,,,,,,,,,,,,,,,,,,,,,,,,,,,,,,,,,,,"[9,5,3,1]",,,,,,,,,,,,,,,,,,,,,,,,,,,,,,,,,,,,,2,0,2,0,1,,,,,,,,,,,,
,,5ebb96b6cd673a0008ace9ce,2022-09-08_13h16.51.800,CGTgamblingSpanTasks,2022.2.1,Win32,60.0240096,,,,,,,,,,,,,,,,,,,,,,,,,,,,,,,,,,,,,,,,,,,,,,,,,,,,,,,,,,,,,,,,,,,,,,,,,,,,,,,,,,"[9,5,3,1]",,,,,,,,,,,,,,,,,,,,,,,,,,,,,,,,,,,,,3,0,3,0,1,,,,,,,,,,,,
,,5ebb96b6cd673a0008ace9ce,2022-09-08_13h16.51.800,CGTgamblingSpanTasks,2022.2.1,Win32,60.0240096,,,,,,,,,,,,,,,,,,,,,,,,,,,,,,,,,,,,,,,,,,,,,,,,,,,,,,,,,,,,,,,1,,,,,,,,,,,,,,,,,,,,,,,,,,,,,,,,,,,,,6,,,,,,,,,,,,,,,,,,,,,,,,1359,0.013020833,-0.401041667,1,0,0,cont_buttonBS,0,5,5,5,1
,,5ebb96b6cd673a0008ace9ce,2022-09-08_13h16.51.800,CGTgamblingSpanTasks,2022.2.1,Win32,60.0240096,,,,,,,,,,,,,,,,,,,,,,,,,,,,,,,,,,,,,,,,,,,,,,,,,,,,,,,,,,,,,,,,,,,,,,,,,,,,,,,,,,"[8,1,6,5,3]",,,,,,,,,,,,,,,,,,,,,,,,,,,,,,,,,,,,,0,0,0,0,1,,,,,,,,,,,,
,,5ebb96b6cd673a0008ace9ce,2022-09-08_13h16.51.800,CGTgamblingSpanTasks,2022.2.1,Win32,60.0240096,,,,,,,,,,,,,,,,,,,,,,,,,,,,,,,,,,,,,,,,,,,,,,,,,,,,,,,,,,,,,,,,,,,,,,,,,,,,,,,,,,"[8,1,6,5,3]",,,,,,,,,,,,,,,,,,,,,,,,,,,,,,,,,,,,,1,0,1,0,1,,,,,,,,,,,,
,,5ebb96b6cd673a0008ace9ce,2022-09-08_13h16.51.800,CGTgamblingSpanTasks,2022.2.1,Win32,60.0240096,,,,,,,,,,,,,,,,,,,,,,,,,,,,,,,,,,,,,,,,,,,,,,,,,,,,,,,,,,,,,,,,,,,,,,,,,,,,,,,,,,"[8,1,6,5,3]",,,,,,,,,,,,,,,,,,,,,,,,,,,,,,,,,,,,,2,0,2,0,1,,,,,,,,,,,,
,,5ebb96b6cd673a0008ace9ce,2022-09-08_13h16.51.800,CGTgamblingSpanTasks,2022.2.1,Win32,60.0240096,,,,,,,,,,,,,,,,,,,,,,,,,,,,,,,,,,,,,,,,,,,,,,,,,,,,,,,,,,,,,,,,,,,,,,,,,,,,,,,,,,"[8,1,6,5,3]",,,,,,,,,,,,,,,,,,,,,,,,,,,,,,,,,,,,,3,0,3,0,1,,,,,,,,,,,,
,,5ebb96b6cd673a0008ace9ce,2022-09-08_13h16.51.800,CGTgamblingSpanTasks,2022.2.1,Win32,60.0240096,,,,,,,,,,,,,,,,,,,,,,,,,,,,,,,,,,,,,,,,,,,,,,,,,,,,,,,,,,,,,,,,,,,,,,,,,,,,,,,,,,"[8,1,6,5,3]",,,,,,,,,,,,,,,,,,,,,,,,,,,,,,,,,,,,,4,0,4,0,1,,,,,,,,,,,,
,,5ebb96b6cd673a0008ace9ce,2022-09-08_13h16.51.800,CGTgamblingSpanTasks,2022.2.1,Win32,60.0240096,,,,,,,,,,,,,,,,,,,,,,,,,,,,,,,,,,,,,,,,,,,,,,,,,,,,,,,,,,,,,,,1,,,,,,,,,,,,,,,,,,,,,,,,,,,,,,,,,,,,,7,,,,,,,,,,,,,,,,,,,,,,,,35618,0.001302083,-0.40234375,1,0,0,cont_buttonBS,0,6,6,6,1
,,5ebb96b6cd673a0008ace9ce,2022-09-08_13h16.51.800,CGTgamblingSpanTasks,2022.2.1,Win32,60.0240096,,,,,,,,,,,,,,,,,,,,,,,,,,,,,,,,,,,,,,,,,,,,,,,,,,,,,,,,,,,,,,,,,,,,,,,,,,,,,,,,,,"[9,8,2,5,6,3]",,,,,,,,,,,,,,,,,,,,,,,,,,,,,,,,,,,,,0,0,0,0,1,,,,,,,,,,,,
,,5ebb96b6cd673a0008ace9ce,2022-09-08_13h16.51.800,CGTgamblingSpanTasks,2022.2.1,Win32,60.0240096,,,,,,,,,,,,,,,,,,,,,,,,,,,,,,,,,,,,,,,,,,,,,,,,,,,,,,,,,,,,,,,,,,,,,,,,,,,,,,,,,,"[9,8,2,5,6,3]",,,,,,,,,,,,,,,,,,,,,,,,,,,,,,,,,,,,,1,0,1,0,1,,,,,,,,,,,,
,,5ebb96b6cd673a0008ace9ce,2022-09-08_13h16.51.800,CGTgamblingSpanTasks,2022.2.1,Win32,60.0240096,,,,,,,,,,,,,,,,,,,,,,,,,,,,,,,,,,,,,,,,,,,,,,,,,,,,,,,,,,,,,,,,,,,,,,,,,,,,,,,,,,"[9,8,2,5,6,3]",,,,,,,,,,,,,,,,,,,,,,,,,,,,,,,,,,,,,2,0,2,0,1,,,,,,,,,,,,
