initITIstatic,initITIdynamic,participant,date,expName,psychopyVersion,OS,frameRate,inst1.keys,inst1.rt,startPracResp.keys,startPracResp.rt,choice1.keys,choice1.rt,outcome,extraITI,trials.thisRepN,trials.thisTrialN,trials.thisN,trials.thisIndex,trials.ran,riskyGain,riskyLoss,alternative,isi,iti,loc,postPractResp.keys,postPractResp.rt,realloc,realChoice.keys,realChoice.rt,outcomes,choices,actualITI,init ITI,staticRDM.thisRepN,staticRDM.thisTrialN,staticRDM.thisN,staticRDM.thisIndex,staticRDM.ran,riskyoption1,riskyoption2,safeoption,ischecktrial,dynamicChoiceSetName,dynamicChoiceSetPath,bestRho,bestMu,trials_2.thisRepN,trials_2.thisTrialN,trials_2.thisN,trials_2.thisIndex,trials_2.ran,key_resp.keys,key_resp.rt,dynamicRDM.thisRepN,dynamicRDM.thisTrialN,dynamicRDM.thisN,dynamicRDM.thisIndex,dynamicRDM.ran,choiceP,easy0difficult1,stopBreak.keys,stopBreak.rt,movealong.keys,movealong.rt,startPractice.keys,startPractice.rt,textboxPractice.text,correct,mousePractice.x,mousePractice.y,mousePractice.leftButton,mousePractice.midButton,mousePractice.rightButton,mousePractice.clicked_name,trialFSPractice.thisRepN,trialFSPractice.thisTrialN,trialFSPractice.thisN,trialFSPractice.thisIndex,trialFSPractice.ran,digitSpanForward,digits,digitsReverse,digitSpanReverse,digitsReverseCorrAnswer,startFSreal.keys,startFSreal.rt,digitsForTrial,digitLoop.thisRepN,digitLoop.thisTrialN,digitLoop.thisN,digitLoop.thisIndex,digitLoop.ran,textbox.text,mouse_3.x,mouse_3.y,mouse_3.leftButton,mouse_3.midButton,mouse_3.rightButton,mouse_3.clicked_name,trialsFS.thisRepN,trialsFS.thisTrialN,trialsFS.thisN,trialsFS.thisIndex,trialsFS.ran,trialNumber,moveToBS.keys,moveToBS.rt,startBSprac.keys,startBSprac.rt,textboxPractice_2.text,mousePractice_2.x,mousePractice_2.y,mousePractice_2.leftButton,mousePractice_2.midButton,mousePractice_2.rightButton,mousePractice_2.clicked_name,trialsPracticeBS.thisRepN,trialsPracticeBS.thisTrialN,trialsPracticeBS.thisN,trialsPracticeBS.thisIndex,trialsPracticeBS.ran,startBSreal.keys,startBSreal.rt,digitLoopBS.thisRepN,digitLoopBS.thisTrialN,digitLoopBS.thisN,digitLoopBS.thisIndex,digitLoopBS.ran,textboxBS.text,mouseBS.x,mouseBS.y,mouseBS.leftButton,mouseBS.midButton,mouseBS.rightButton,mouseBS.clicked_name,trialsBS.thisRepN,trialsBS.thisTrialN,trialsBS.thisN,trialsBS.thisIndex,trialsBS.ran
"[1.5,1.5,1,1,1,1.5,1.5,1.5,1,1,1,1.5,1.5,1,1,1.5,1,1,1,1.5,1.5,1,1,1.5,1,1,1,1.5,1,1.5,1,1.5,1.5,1,1.5,1,1.5,1,1.5,1,1.5,1.5,1,1.5,1.5,1.5,1,1.5,1,1.5]","[1,1.5,1,1.5,1,1.5,1.5,1.5,1,1.5,1,1,1,1,1,1.5,1.5,1.5,1,1.5,1,1,1,1,1.5,1,1.5,1,1,1.5,1.5,1,1,1.5,1.5,1.5,1,1.5,1.5,1,1.5,1.5,1.5,1,1.5,1,1.5,1.5,1,1,1.5,1,1.5,1.5,1.5,1.5,1.5,1.5,1,1,1.5,1.5,1.5,1.5,1,1,1,1,1,1.5,1,1,1,1,1.5,1.5,1.5,1.5,1.5,1.5,1.5,1.5,1.5,1.5,1,1,1,1.5,1,1.5,1,1.5,1,1,1,1,1,1.5,1.5,1.5,1,1,1,1.5,1,1.5,1,1.5,1,1.5,1,1,1,1.5,1.5,1,1,1,1,1.5]",5f0b72abf1f9950dce8c0f1e,2022-09-08_13h10.05.929,CGTgamblingSpanTasks,2022.2.1,Win32,164.2845408,,,,,,,,,,,,,,,,,,,,,,,,,,,,,,,,,,,,,,,,,,,,,,,,,,,,,,,,,,,,,,,,,,,,,,,,,,,,,,,,,,,,,,,,,,,,,,,,,,,,,,,,,,,,,,,,,,,,,,,,,,,,,,,,,,,,,,,
,,5f0b72abf1f9950dce8c0f1e,2022-09-08_13h10.05.929,CGTgamblingSpanTasks,2022.2.1,Win32,164.2845408,return,6.9507,,,,,,,,,,,,,,,,,,,,,,,,,,,,,,,,,,,,,,,,,,,,,,,,,,,,,,,,,,,,,,,,,,,,,,,,,,,,,,,,,,,,,,,,,,,,,,,,,,,,,,,,,,,,,,,,,,,,,,,,,,,,,,,,,,,,,
,,5f0b72abf1f9950dce8c0f1e,2022-09-08_13h10.05.929,CGTgamblingSpanTasks,2022.2.1,Win32,164.2845408,,,v,3.067,,,,,,,,,,,,,,,,,,,,,,,,,,,,,,,,,,,,,,,,,,,,,,,,,,,,,,,,,,,,,,,,,,,,,,,,,,,,,,,,,,,,,,,,,,,,,,,,,,,,,,,,,,,,,,,,,,,,,,,,,,,,,,,,,,,
,,5f0b72abf1f9950dce8c0f1e,2022-09-08_13h10.05.929,CGTgamblingSpanTasks,2022.2.1,Win32,164.2845408,,,,,v,2.342,18.23,1.658,0,0,0,0,1,18.23,0,9.45,2,1,1,,,,,,,,,,,,,,,,,,,,,,,,,,,,,,,,,,,,,,,,,,,,,,,,,,,,,,,,,,,,,,,,,,,,,,,,,,,,,,,,,,,,,,,,,,,,,,,,,,,,,,,,,,,,,,,,,,,,
,,5f0b72abf1f9950dce8c0f1e,2022-09-08_13h10.05.929,CGTgamblingSpanTasks,2022.2.1,Win32,164.2845408,,,,,v,2.6002,0,1.3998,0,1,1,1,1,53.27,0,35.16,1,1.5,1,,,,,,,,,,,,,,,,,,,,,,,,,,,,,,,,,,,,,,,,,,,,,,,,,,,,,,,,,,,,,,,,,,,,,,,,,,,,,,,,,,,,,,,,,,,,,,,,,,,,,,,,,,,,,,,,,,,,
,,5f0b72abf1f9950dce8c0f1e,2022-09-08_13h10.05.929,CGTgamblingSpanTasks,2022.2.1,Win32,164.2845408,,,,,n,2.45,0,1.55,0,2,2,2,1,8.27,0,1.15,1,1.5,2,,,,,,,,,,,,,,,,,,,,,,,,,,,,,,,,,,,,,,,,,,,,,,,,,,,,,,,,,,,,,,,,,,,,,,,,,,,,,,,,,,,,,,,,,,,,,,,,,,,,,,,,,,,,,,,,,,,,
,,5f0b72abf1f9950dce8c0f1e,2022-09-08_13h10.05.929,CGTgamblingSpanTasks,2022.2.1,Win32,164.2845408,,,,,n,1.7497,40.41,2.2503,0,3,3,3,1,45.88,0,40.41,3,1,1,,,,,,,,,,,,,,,,,,,,,,,,,,,,,,,,,,,,,,,,,,,,,,,,,,,,,,,,,,,,,,,,,,,,,,,,,,,,,,,,,,,,,,,,,,,,,,,,,,,,,,,,,,,,,,,,,,,,
,,5f0b72abf1f9950dce8c0f1e,2022-09-08_13h10.05.929,CGTgamblingSpanTasks,2022.2.1,Win32,164.2845408,,,,,n,1.6003,0,2.3997,0,4,4,4,1,21.56,0,11.96,1,1.5,2,,,,,,,,,,,,,,,,,,,,,,,,,,,,,,,,,,,,,,,,,,,,,,,,,,,,,,,,,,,,,,,,,,,,,,,,,,,,,,,,,,,,,,,,,,,,,,,,,,,,,,,,,,,,,,,,,,,,
,,5f0b72abf1f9950dce8c0f1e,2022-09-08_13h10.05.929,CGTgamblingSpanTasks,2022.2.1,Win32,164.2845408,,,,,,,,,,,,,,,,,,,,v,30.1829,,,,,,,,,,,,,,,,,,,,,,,,,,,,,,,,,,,,,,,,,,,,,,,,,,,,,,,,,,,,,,,,,,,,,,,,,,,,,,,,,,,,,,,,,,,,,,,,,,,,,,,,,,,,,,,,,,
,,5f0b72abf1f9950dce8c0f1e,2022-09-08_13h10.05.929,CGTgamblingSpanTasks,2022.2.1,Win32,164.2845408,,,,,,,,2.4661,,,,,,,,,,,,,,2,n,1.5339,0,1,3.9661,1.5,0,0,0,17,1,18.33,0,8.84,0,,,,,,,,,,,,,,,,,,,,,,,,,,,,,,,,,,,,,,,,,,,,,,,,,,,,,,,,,,,,,,,,,,,,,,,,,,,,,,,,,,,,,,,,,,,,,,,,,,
,,5f0b72abf1f9950dce8c0f1e,2022-09-08_13h10.05.929,CGTgamblingSpanTasks,2022.2.1,Win32,164.2845408,,,,,,,,2.4166,,,,,,,,,,,,,,2,v,1.5834,9.87,0,3.9166,1.5,0,1,1,29,1,16.26,0,9.87,0,,,,,,,,,,,,,,,,,,,,,,,,,,,,,,,,,,,,,,,,,,,,,,,,,,,,,,,,,,,,,,,,,,,,,,,,,,,,,,,,,,,,,,,,,,,,,,,,,,
,,5f0b72abf1f9950dce8c0f1e,2022-09-08_13h10.05.929,CGTgamblingSpanTasks,2022.2.1,Win32,164.2845408,,,,,,,,2.6004,,,,,,,,,,,,,,2,v,1.3996,6.53,0,3.6004,1,0,2,2,28,1,10.95,0,6.53,0,,,,,,,,,,,,,,,,,,,,,,,,,,,,,,,,,,,,,,,,,,,,,,,,,,,,,,,,,,,,,,,,,,,,,,,,,,,,,,,,,,,,,,,,,,,,,,,,,,
,,5f0b72abf1f9950dce8c0f1e,2022-09-08_13h10.05.929,CGTgamblingSpanTasks,2022.2.1,Win32,164.2845408,,,,,,,,3.1177,,,,,,,,,,,,,,2,n,0.8823,0,1,4.1177,1,0,3,3,21,1,17.59,0,9.2,0,,,,,,,,,,,,,,,,,,,,,,,,,,,,,,,,,,,,,,,,,,,,,,,,,,,,,,,,,,,,,,,,,,,,,,,,,,,,,,,,,,,,,,,,,,,,,,,,,,
,,5f0b72abf1f9950dce8c0f1e,2022-09-08_13h10.05.929,CGTgamblingSpanTasks,2022.2.1,Win32,164.2845408,,,,,,,,2.3619,,,,,,,,,,,,,,1,v,1.6381,10.35,1,3.3619,1,0,4,4,40,1,10.35,0,0,1,,,,,,,,,,,,,,,,,,,,,,,,,,,,,,,,,,,,,,,,,,,,,,,,,,,,,,,,,,,,,,,,,,,,,,,,,,,,,,,,,,,,,,,,,,,,,,,,,,
,,5f0b72abf1f9950dce8c0f1e,2022-09-08_13h10.05.929,CGTgamblingSpanTasks,2022.2.1,Win32,164.2845408,,,,,,,,2.0662,,,,,,,,,,,,,,1,v,1.9338,0,1,3.5662,1.5,0,5,5,15,1,18.77,0,8.61,0,,,,,,,,,,,,,,,,,,,,,,,,,,,,,,,,,,,,,,,,,,,,,,,,,,,,,,,,,,,,,,,,,,,,,,,,,,,,,,,,,,,,,,,,,,,,,,,,,,
,,5f0b72abf1f9950dce8c0f1e,2022-09-08_13h10.05.929,CGTgamblingSpanTasks,2022.2.1,Win32,164.2845408,,,,,,,,1.9826,,,,,,,,,,,,,,1,n,2.0174,6.94,0,3.4826,1.5,0,6,6,38,1,10.12,0,6.94,0,,,,,,,,,,,,,,,,,,,,,,,,,,,,,,,,,,,,,,,,,,,,,,,,,,,,,,,,,,,,,,,,,,,,,,,,,,,,,,,,,,,,,,,,,,,,,,,,,,
,,5f0b72abf1f9950dce8c0f1e,2022-09-08_13h10.05.929,CGTgamblingSpanTasks,2022.2.1,Win32,164.2845408,,,,,,,,2.7026,,,,,,,,,,,,,,1,v,1.2974,0,1,4.2026,1.5,0,7,7,2,1,17.73,0,3.13,0,,,,,,,,,,,,,,,,,,,,,,,,,,,,,,,,,,,,,,,,,,,,,,,,,,,,,,,,,,,,,,,,,,,,,,,,,,,,,,,,,,,,,,,,,,,,,,,,,,
,,5f0b72abf1f9950dce8c0f1e,2022-09-08_13h10.05.929,CGTgamblingSpanTasks,2022.2.1,Win32,164.2845408,,,,,,,,2.8835,,,,,,,,,,,,,,2,n,1.1165,13.1,1,3.8835,1,0,8,8,44,1,13.1,7.73,4.68,1,,,,,,,,,,,,,,,,,,,,,,,,,,,,,,,,,,,,,,,,,,,,,,,,,,,,,,,,,,,,,,,,,,,,,,,,,,,,,,,,,,,,,,,,,,,,,,,,,,
,,5f0b72abf1f9950dce8c0f1e,2022-09-08_13h10.05.929,CGTgamblingSpanTasks,2022.2.1,Win32,164.2845408,,,,,,,,2.6369,,,,,,,,,,,,,,1,v,1.3631,0,1,3.6369,1,0,9,9,4,1,16,0,4,0,,,,,,,,,,,,,,,,,,,,,,,,,,,,,,,,,,,,,,,,,,,,,,,,,,,,,,,,,,,,,,,,,,,,,,,,,,,,,,,,,,,,,,,,,,,,,,,,,,
,,5f0b72abf1f9950dce8c0f1e,2022-09-08_13h10.05.929,CGTgamblingSpanTasks,2022.2.1,Win32,164.2845408,,,,,,,,2.1355,,,,,,,,,,,,,,2,n,1.8645,0,1,3.1355,1,0,10,10,31,1,15.96,0,10.02,0,,,,,,,,,,,,,,,,,,,,,,,,,,,,,,,,,,,,,,,,,,,,,,,,,,,,,,,,,,,,,,,,,,,,,,,,,,,,,,,,,,,,,,,,,,,,,,,,,,
,,5f0b72abf1f9950dce8c0f1e,2022-09-08_13h10.05.929,CGTgamblingSpanTasks,2022.2.1,Win32,164.2845408,,,,,,,,2.8164,,,,,,,,,,,,,,1,v,1.1836,0,1,4.3164,1.5,0,11,11,42,1,19.86,0,0,1,,,,,,,,,,,,,,,,,,,,,,,,,,,,,,,,,,,,,,,,,,,,,,,,,,,,,,,,,,,,,,,,,,,,,,,,,,,,,,,,,,,,,,,,,,,,,,,,,,
,,5f0b72abf1f9950dce8c0f1e,2022-09-08_13h10.05.929,CGTgamblingSpanTasks,2022.2.1,Win32,164.2845408,,,,,,,,2.451,,,,,,,,,,,,,,1,n,1.549,10.15,0,3.951,1.5,0,12,12,33,1,15.7,0,10.15,0,,,,,,,,,,,,,,,,,,,,,,,,,,,,,,,,,,,,,,,,,,,,,,,,,,,,,,,,,,,,,,,,,,,,,,,,,,,,,,,,,,,,,,,,,,,,,,,,,,
,,5f0b72abf1f9950dce8c0f1e,2022-09-08_13h10.05.929,CGTgamblingSpanTasks,2022.2.1,Win32,164.2845408,,,,,,,,2.2327,,,,,,,,,,,,,,2,n,1.7673,11.62,1,3.2327,1,0,13,13,22,1,11.62,0,6.19,0,,,,,,,,,,,,,,,,,,,,,,,,,,,,,,,,,,,,,,,,,,,,,,,,,,,,,,,,,,,,,,,,,,,,,,,,,,,,,,,,,,,,,,,,,,,,,,,,,,
,,5f0b72abf1f9950dce8c0f1e,2022-09-08_13h10.05.929,CGTgamblingSpanTasks,2022.2.1,Win32,164.2845408,,,,,,,,2.2334,,,,,,,,,,,,,,2,v,1.7666,10.37,0,3.2334,1,0,14,14,37,1,15.27,0,10.37,0,,,,,,,,,,,,,,,,,,,,,,,,,,,,,,,,,,,,,,,,,,,,,,,,,,,,,,,,,,,,,,,,,,,,,,,,,,,,,,,,,,,,,,,,,,,,,,,,,,
,,5f0b72abf1f9950dce8c0f1e,2022-09-08_13h10.05.929,CGTgamblingSpanTasks,2022.2.1,Win32,164.2845408,,,,,,,,1.8693,,,,,,,,,,,,,,2,v,2.1307,10.27,0,3.3693,1.5,0,15,15,35,1,15.47,0,10.27,0,,,,,,,,,,,,,,,,,,,,,,,,,,,,,,,,,,,,,,,,,,,,,,,,,,,,,,,,,,,,,,,,,,,,,,,,,,,,,,,,,,,,,,,,,,,,,,,,,,
,,5f0b72abf1f9950dce8c0f1e,2022-09-08_13h10.05.929,CGTgamblingSpanTasks,2022.2.1,Win32,164.2845408,,,,,,,,2.6492,,,,,,,,,,,,,,1,v,1.3508,0,1,3.6492,1,0,16,16,14,1,12.68,0,5.66,0,,,,,,,,,,,,,,,,,,,,,,,,,,,,,,,,,,,,,,,,,,,,,,,,,,,,,,,,,,,,,,,,,,,,,,,,,,,,,,,,,,,,,,,,,,,,,,,,,,
,,5f0b72abf1f9950dce8c0f1e,2022-09-08_13h10.05.929,CGTgamblingSpanTasks,2022.2.1,Win32,164.2845408,,,,,,,,2.1494,,,,,,,,,,,,,,1,v,1.8506,0,1,3.1494,1,0,17,17,19,1,17.94,0,9.03,0,,,,,,,,,,,,,,,,,,,,,,,,,,,,,,,,,,,,,,,,,,,,,,,,,,,,,,,,,,,,,,,,,,,,,,,,,,,,,,,,,,,,,,,,,,,,,,,,,,
,,5f0b72abf1f9950dce8c0f1e,2022-09-08_13h10.05.929,CGTgamblingSpanTasks,2022.2.1,Win32,164.2845408,,,,,,,,1.7667,,,,,,,,,,,,,,1,v,2.2333,11.43,1,2.7667,1,0,18,18,24,1,11.43,0,6.29,0,,,,,,,,,,,,,,,,,,,,,,,,,,,,,,,,,,,,,,,,,,,,,,,,,,,,,,,,,,,,,,,,,,,,,,,,,,,,,,,,,,,,,,,,,,,,,,,,,,
,,5f0b72abf1f9950dce8c0f1e,2022-09-08_13h10.05.929,CGTgamblingSpanTasks,2022.2.1,Win32,164.2845408,,,,,,,,2.5666,,,,,,,,,,,,,,1,v,1.4334,20.53,1,4.0666,1.5,0,19,19,9,1,20.53,0,7.73,0,,,,,,,,,,,,,,,,,,,,,,,,,,,,,,,,,,,,,,,,,,,,,,,,,,,,,,,,,,,,,,,,,,,,,,,,,,,,,,,,,,,,,,,,,,,,,,,,,,
,,5f0b72abf1f9950dce8c0f1e,2022-09-08_13h10.05.929,CGTgamblingSpanTasks,2022.2.1,Win32,164.2845408,,,,,,,,1.834,,,,,,,,,,,,,,2,v,2.166,10.68,0,3.334,1.5,0,20,20,48,1,10.68,0,10.68,1,,,,,,,,,,,,,,,,,,,,,,,,,,,,,,,,,,,,,,,,,,,,,,,,,,,,,,,,,,,,,,,,,,,,,,,,,,,,,,,,,,,,,,,,,,,,,,,,,,
,,5f0b72abf1f9950dce8c0f1e,2022-09-08_13h10.05.929,CGTgamblingSpanTasks,2022.2.1,Win32,164.2845408,,,,,,,,2.2007,,,,,,,,,,,,,,2,v,1.7993,7.55,0,3.2007,1,0,21,21,45,1,0,0,7.55,1,,,,,,,,,,,,,,,,,,,,,,,,,,,,,,,,,,,,,,,,,,,,,,,,,,,,,,,,,,,,,,,,,,,,,,,,,,,,,,,,,,,,,,,,,,,,,,,,,,
,,5f0b72abf1f9950dce8c0f1e,2022-09-08_13h10.05.929,CGTgamblingSpanTasks,2022.2.1,Win32,164.2845408,,,,,,,,2.3827,,,,,,,,,,,,,,2,n,1.6173,16.11,1,3.3827,1,0,22,22,43,1,16.11,6.99,6.99,1,,,,,,,,,,,,,,,,,,,,,,,,,,,,,,,,,,,,,,,,,,,,,,,,,,,,,,,,,,,,,,,,,,,,,,,,,,,,,,,,,,,,,,,,,,,,,,,,,,
,,5f0b72abf1f9950dce8c0f1e,2022-09-08_13h10.05.929,CGTgamblingSpanTasks,2022.2.1,Win32,164.2845408,,,,,,,,2.0869,,,,,,,,,,,,,,2,n,1.9131,0,1,3.5869,1.5,0,23,23,27,1,16.6,0,9.7,0,,,,,,,,,,,,,,,,,,,,,,,,,,,,,,,,,,,,,,,,,,,,,,,,,,,,,,,,,,,,,,,,,,,,,,,,,,,,,,,,,,,,,,,,,,,,,,,,,,
,,5f0b72abf1f9950dce8c0f1e,2022-09-08_13h10.05.929,CGTgamblingSpanTasks,2022.2.1,Win32,164.2845408,,,,,,,,1.8494,,,,,,,,,,,,,,1,n,2.1506,6.08,0,2.8494,1,0,24,24,20,1,11.84,0,6.08,0,,,,,,,,,,,,,,,,,,,,,,,,,,,,,,,,,,,,,,,,,,,,,,,,,,,,,,,,,,,,,,,,,,,,,,,,,,,,,,,,,,,,,,,,,,,,,,,,,,
,,5f0b72abf1f9950dce8c0f1e,2022-09-08_13h10.05.929,CGTgamblingSpanTasks,2022.2.1,Win32,164.2845408,,,,,,,,2.9166,,,,,,,,,,,,,,2,n,1.0834,0,1,3.9166,1,0,25,25,1,1,28.21,0,3.89,0,,,,,,,,,,,,,,,,,,,,,,,,,,,,,,,,,,,,,,,,,,,,,,,,,,,,,,,,,,,,,,,,,,,,,,,,,,,,,,,,,,,,,,,,,,,,,,,,,,
,,5f0b72abf1f9950dce8c0f1e,2022-09-08_13h10.05.929,CGTgamblingSpanTasks,2022.2.1,Win32,164.2845408,,,,,,,,1.8997,,,,,,,,,,,,,,1,v,2.1003,0,1,2.8997,1,0,26,26,25,1,17,0,9.5,0,,,,,,,,,,,,,,,,,,,,,,,,,,,,,,,,,,,,,,,,,,,,,,,,,,,,,,,,,,,,,,,,,,,,,,,,,,,,,,,,,,,,,,,,,,,,,,,,,,
,,5f0b72abf1f9950dce8c0f1e,2022-09-08_13h10.05.929,CGTgamblingSpanTasks,2022.2.1,Win32,164.2845408,,,,,,,,2.1833,,,,,,,,,,,,,,2,n,1.8167,11.2,1,3.6833,1.5,0,27,27,26,1,11.2,0,6.4,0,,,,,,,,,,,,,,,,,,,,,,,,,,,,,,,,,,,,,,,,,,,,,,,,,,,,,,,,,,,,,,,,,,,,,,,,,,,,,,,,,,,,,,,,,,,,,,,,,,
,,5f0b72abf1f9950dce8c0f1e,2022-09-08_13h10.05.929,CGTgamblingSpanTasks,2022.2.1,Win32,164.2845408,,,,,,,,2.55,,,,,,,,,,,,,,1,n,1.45,10.46,0,3.55,1,0,28,28,39,1,15.09,0,10.46,0,,,,,,,,,,,,,,,,,,,,,,,,,,,,,,,,,,,,,,,,,,,,,,,,,,,,,,,,,,,,,,,,,,,,,,,,,,,,,,,,,,,,,,,,,,,,,,,,,,
,,5f0b72abf1f9950dce8c0f1e,2022-09-08_13h10.05.929,CGTgamblingSpanTasks,2022.2.1,Win32,164.2845408,,,,,,,,2.0831,,,,,,,,,,,,,,2,n,1.9169,14.26,1,3.5831,1.5,0,29,29,41,1,14.26,0,0,1,,,,,,,,,,,,,,,,,,,,,,,,,,,,,,,,,,,,,,,,,,,,,,,,,,,,,,,,,,,,,,,,,,,,,,,,,,,,,,,,,,,,,,,,,,,,,,,,,,
,,5f0b72abf1f9950dce8c0f1e,2022-09-08_13h10.05.929,CGTgamblingSpanTasks,2022.2.1,Win32,164.2845408,,,,,,,,2.6857,,,,,,,,,,,,,,2,v,1.3143,10.25,0,3.6857,1,0,30,30,46,1,0,0,10.25,1,,,,,,,,,,,,,,,,,,,,,,,,,,,,,,,,,,,,,,,,,,,,,,,,,,,,,,,,,,,,,,,,,,,,,,,,,,,,,,,,,,,,,,,,,,,,,,,,,,
,,5f0b72abf1f9950dce8c0f1e,2022-09-08_13h10.05.929,CGTgamblingSpanTasks,2022.2.1,Win32,164.2845408,,,,,,,,2.2836,,,,,,,,,,,,,,1,v,1.7164,19.86,1,3.7836,1.5,0,31,31,11,1,19.86,0,8.07,0,,,,,,,,,,,,,,,,,,,,,,,,,,,,,,,,,,,,,,,,,,,,,,,,,,,,,,,,,,,,,,,,,,,,,,,,,,,,,,,,,,,,,,,,,,,,,,,,,,
,,5f0b72abf1f9950dce8c0f1e,2022-09-08_13h10.05.929,CGTgamblingSpanTasks,2022.2.1,Win32,164.2845408,,,,,,,,2.7506,,,,,,,,,,,,,,1,n,1.2494,9.92,0,4.2506,1.5,0,32,32,49,1,6.79,0,9.92,1,,,,,,,,,,,,,,,,,,,,,,,,,,,,,,,,,,,,,,,,,,,,,,,,,,,,,,,,,,,,,,,,,,,,,,,,,,,,,,,,,,,,,,,,,,,,,,,,,,
,,5f0b72abf1f9950dce8c0f1e,2022-09-08_13h10.05.929,CGTgamblingSpanTasks,2022.2.1,Win32,164.2845408,,,,,,,,1.9168,,,,,,,,,,,,,,2,v,2.0832,9.36,0,2.9168,1,0,33,33,23,1,17.28,0,9.36,0,,,,,,,,,,,,,,,,,,,,,,,,,,,,,,,,,,,,,,,,,,,,,,,,,,,,,,,,,,,,,,,,,,,,,,,,,,,,,,,,,,,,,,,,,,,,,,,,,,
,,5f0b72abf1f9950dce8c0f1e,2022-09-08_13h10.05.929,CGTgamblingSpanTasks,2022.2.1,Win32,164.2845408,,,,,,,,2.9685,,,,,,,,,,,,,,1,n,1.0315,3.13,0,4.4685,1.5,0,34,34,47,1,0,0,3.13,1,,,,,,,,,,,,,,,,,,,,,,,,,,,,,,,,,,,,,,,,,,,,,,,,,,,,,,,,,,,,,,,,,,,,,,,,,,,,,,,,,,,,,,,,,,,,,,,,,,
,,5f0b72abf1f9950dce8c0f1e,2022-09-08_13h10.05.929,CGTgamblingSpanTasks,2022.2.1,Win32,164.2845408,,,,,,,,2.5832,,,,,,,,,,,,,,1,v,1.4168,0,1,3.5832,1,0,35,35,6,1,14.72,0,4.64,0,,,,,,,,,,,,,,,,,,,,,,,,,,,,,,,,,,,,,,,,,,,,,,,,,,,,,,,,,,,,,,,,,,,,,,,,,,,,,,,,,,,,,,,,,,,,,,,,,,
,,5f0b72abf1f9950dce8c0f1e,2022-09-08_13h10.05.929,CGTgamblingSpanTasks,2022.2.1,Win32,164.2845408,,,,,,,,2.8165,,,,,,,,,,,,,,2,n,1.1835,20.03,1,4.3165,1.5,0,36,36,0,1,20.03,0,1.99,0,,,,,,,,,,,,,,,,,,,,,,,,,,,,,,,,,,,,,,,,,,,,,,,,,,,,,,,,,,,,,,,,,,,,,,,,,,,,,,,,,,,,,,,,,,,,,,,,,,
,,5f0b72abf1f9950dce8c0f1e,2022-09-08_13h10.05.929,CGTgamblingSpanTasks,2022.2.1,Win32,164.2845408,,,,,,,,2.3975,,,,,,,,,,,,,,1,v,1.6025,0,1,3.3975,1,0,37,37,12,1,13.04,0,5.48,0,,,,,,,,,,,,,,,,,,,,,,,,,,,,,,,,,,,,,,,,,,,,,,,,,,,,,,,,,,,,,,,,,,,,,,,,,,,,,,,,,,,,,,,,,,,,,,,,,,
,,5f0b72abf1f9950dce8c0f1e,2022-09-08_13h10.05.929,CGTgamblingSpanTasks,2022.2.1,Win32,164.2845408,,,,,,,,2.5686,,,,,,,,,,,,,,2,n,1.4314,0,1,4.0686,1.5,0,38,38,8,1,13.94,0,5.03,0,,,,,,,,,,,,,,,,,,,,,,,,,,,,,,,,,,,,,,,,,,,,,,,,,,,,,,,,,,,,,,,,,,,,,,,,,,,,,,,,,,,,,,,,,,,,,,,,,,
,,5f0b72abf1f9950dce8c0f1e,2022-09-08_13h10.05.929,CGTgamblingSpanTasks,2022.2.1,Win32,164.2845408,,,,,,,,2.617,,,,,,,,,,,,,,1,v,1.383,19.28,1,3.617,1,0,39,39,13,1,19.28,0,8.36,0,,,,,,,,,,,,,,,,,,,,,,,,,,,,,,,,,,,,,,,,,,,,,,,,,,,,,,,,,,,,,,,,,,,,,,,,,,,,,,,,,,,,,,,,,,,,,,,,,,
,,5f0b72abf1f9950dce8c0f1e,2022-09-08_13h10.05.929,CGTgamblingSpanTasks,2022.2.1,Win32,164.2845408,,,,,,,,1.9694,,,,,,,,,,,,,,1,v,2.0306,13.45,1,3.4694,1.5,0,40,40,10,1,13.45,0,5.27,0,,,,,,,,,,,,,,,,,,,,,,,,,,,,,,,,,,,,,,,,,,,,,,,,,,,,,,,,,,,,,,,,,,,,,,,,,,,,,,,,,,,,,,,,,,,,,,,,,,
,,5f0b72abf1f9950dce8c0f1e,2022-09-08_13h10.05.929,CGTgamblingSpanTasks,2022.2.1,Win32,164.2845408,,,,,,,,2.5533,,,,,,,,,,,,,,2,n,1.4467,10.39,1,4.0533,1.5,0,41,41,34,1,10.39,0,6.81,0,,,,,,,,,,,,,,,,,,,,,,,,,,,,,,,,,,,,,,,,,,,,,,,,,,,,,,,,,,,,,,,,,,,,,,,,,,,,,,,,,,,,,,,,,,,,,,,,,,
,,5f0b72abf1f9950dce8c0f1e,2022-09-08_13h10.05.929,CGTgamblingSpanTasks,2022.2.1,Win32,164.2845408,,,,,,,,2.8693,,,,,,,,,,,,,,2,n,1.1307,10.73,1,3.8693,1,0,42,42,30,1,10.73,0,6.63,0,,,,,,,,,,,,,,,,,,,,,,,,,,,,,,,,,,,,,,,,,,,,,,,,,,,,,,,,,,,,,,,,,,,,,,,,,,,,,,,,,,,,,,,,,,,,,,,,,,
,,5f0b72abf1f9950dce8c0f1e,2022-09-08_13h10.05.929,CGTgamblingSpanTasks,2022.2.1,Win32,164.2845408,,,,,,,,2.4658,,,,,,,,,,,,,,1,v,1.5342,0,1,3.9658,1.5,0,43,43,16,1,12.36,0,5.82,0,,,,,,,,,,,,,,,,,,,,,,,,,,,,,,,,,,,,,,,,,,,,,,,,,,,,,,,,,,,,,,,,,,,,,,,,,,,,,,,,,,,,,,,,,,,,,,,,,,
,,5f0b72abf1f9950dce8c0f1e,2022-09-08_13h10.05.929,CGTgamblingSpanTasks,2022.2.1,Win32,164.2845408,,,,,,,,2.2998,,,,,,,,,,,,,,1,v,1.7002,10.55,1,3.7998,1.5,0,44,44,32,1,10.55,0,6.73,0,,,,,,,,,,,,,,,,,,,,,,,,,,,,,,,,,,,,,,,,,,,,,,,,,,,,,,,,,,,,,,,,,,,,,,,,,,,,,,,,,,,,,,,,,,,,,,,,,,
,,5f0b72abf1f9950dce8c0f1e,2022-09-08_13h10.05.929,CGTgamblingSpanTasks,2022.2.1,Win32,164.2845408,,,,,,,,2.7654,,,,,,,,,,,,,,2,n,1.2346,0,1,4.2654,1.5,0,45,45,36,1,10.24,0,6.88,0,,,,,,,,,,,,,,,,,,,,,,,,,,,,,,,,,,,,,,,,,,,,,,,,,,,,,,,,,,,,,,,,,,,,,,,,,,,,,,,,,,,,,,,,,,,,,,,,,,
,,5f0b72abf1f9950dce8c0f1e,2022-09-08_13h10.05.929,CGTgamblingSpanTasks,2022.2.1,Win32,164.2845408,,,,,,,,2.7856,,,,,,,,,,,,,,1,v,1.2144,0,1,3.7856,1,0,46,46,5,1,22.97,0,6.51,0,,,,,,,,,,,,,,,,,,,,,,,,,,,,,,,,,,,,,,,,,,,,,,,,,,,,,,,,,,,,,,,,,,,,,,,,,,,,,,,,,,,,,,,,,,,,,,,,,,
,,5f0b72abf1f9950dce8c0f1e,2022-09-08_13h10.05.929,CGTgamblingSpanTasks,2022.2.1,Win32,164.2845408,,,,,,,,2.0832,,,,,,,,,,,,,,1,n,1.9168,5.96,0,3.5832,1.5,0,47,47,18,1,12.08,0,5.96,0,,,,,,,,,,,,,,,,,,,,,,,,,,,,,,,,,,,,,,,,,,,,,,,,,,,,,,,,,,,,,,,,,,,,,,,,,,,,,,,,,,,,,,,,,,,,,,,,,,
,,5f0b72abf1f9950dce8c0f1e,2022-09-08_13h10.05.929,CGTgamblingSpanTasks,2022.2.1,Win32,164.2845408,,,,,,,,2.583,,,,,,,,,,,,,,1,v,1.417,25.2,1,3.583,1,0,48,48,3,1,25.2,0,5.4,0,,,,,,,,,,,,,,,,,,,,,,,,,,,,,,,,,,,,,,,,,,,,,,,,,,,,,,,,,,,,,,,,,,,,,,,,,,,,,,,,,,,,,,,,,,,,,,,,,,
,,5f0b72abf1f9950dce8c0f1e,2022-09-08_13h10.05.929,CGTgamblingSpanTasks,2022.2.1,Win32,164.2845408,,,,,,,,2.7698,,,,,,,,,,,,,,2,n,1.2302,21.32,1,4.2698,1.5,0,49,49,7,1,21.32,0,7.34,0,,,,,,,,,,,,,,,,,,,,,,,,,,,,,,,,,,,,,,,,,,,,,,,,,,,,,,,,,,,,,,,,,,,,,,,,,,,,,,,,,,,,,,,,,,,,,,,,,,
,,5f0b72abf1f9950dce8c0f1e,2022-09-08_13h10.05.929,CGTgamblingSpanTasks,2022.2.1,Win32,164.2845408,,,,,,,,,,,,,,,,,,,,,,,,,,,,,,,,,,,,,,bespoke_choiceset_rhoInd116_muInd086.csv,bespoke_choicesets/bespoke_choiceset_rhoInd116_muInd086.csv,116,86,0,0,0,0,1,,,,,,,,,,,,,,,,,,,,,,,,,,,,,,,,,,,,,,,,,,,,,,,,,,,,,,,,,,,,,,,,,,,,,,,,,,,,,,,,,,,,,,,,,
,,5f0b72abf1f9950dce8c0f1e,2022-09-08_13h10.05.929,CGTgamblingSpanTasks,2022.2.1,Win32,164.2845408,,,,,,,,,,,,,,,,,,,,,,,,,,,,,,,,,,,,,,,,,,,,,,,,,,,,,,,,,,,,,,,,,,,,,,,,,,,,,,,,,,,,,,,,,,,,,,,,,,,,,,,,,,,,,,,,,,,,,,,,,,,,,,,,,,,,,,,
,,5f0b72abf1f9950dce8c0f1e,2022-09-08_13h10.05.929,CGTgamblingSpanTasks,2022.2.1,Win32,164.2845408,,,,,,,,,,,,,,,,,,,,,,,,,,,,,,,,,,,,,,,,,,,,,,,v,51.5672,,,,,,,,,,,,,,,,,,,,,,,,,,,,,,,,,,,,,,,,,,,,,,,,,,,,,,,,,,,,,,,,,,,,,,,,,,,,,,,,,,,,,,,
,,5f0b72abf1f9950dce8c0f1e,2022-09-08_13h10.05.929,CGTgamblingSpanTasks,2022.2.1,Win32,164.2845408,,,,,,,,2.9168,,,,,,,,,,,,,,2,v,1.0832,7.850775577,0,3.9168,1,,,,,,4.622707531,0,7.850775577,,,,,,,,,,,,,0,0,0,6,1,0.017737407,0,,,,,,,,,,,,,,,,,,,,,,,,,,,,,,,,,,,,,,,,,,,,,,,,,,,,,,,,,,,,,,,,,,,,,,,,,,,,,,,,
,,5f0b72abf1f9950dce8c0f1e,2022-09-08_13h10.05.929,CGTgamblingSpanTasks,2022.2.1,Win32,164.2845408,,,,,,,,2.7823,,,,,,,,,,,,,,2,n,1.2177,0,1,4.2823,1.5,,,,,,6.662965216,0,6.091504705,,,,,,,,,,,,,0,1,1,102,1,0.035087099,0,,,,,,,,,,,,,,,,,,,,,,,,,,,,,,,,,,,,,,,,,,,,,,,,,,,,,,,,,,,,,,,,,,,,,,,,,,,,,,,,
,,5f0b72abf1f9950dce8c0f1e,2022-09-08_13h10.05.929,CGTgamblingSpanTasks,2022.2.1,Win32,164.2845408,,,,,,,,2.65,,,,,,,,,,,,,,1,v,1.35,24.35708027,1,3.65,1,,,,,,24.35708027,0,2.738695417,,,,,,,,,,,,,0,2,2,114,1,0.466573634,1,,,,,,,,,,,,,,,,,,,,,,,,,,,,,,,,,,,,,,,,,,,,,,,,,,,,,,,,,,,,,,,,,,,,,,,,,,,,,,,,
,,5f0b72abf1f9950dce8c0f1e,2022-09-08_13h10.05.929,CGTgamblingSpanTasks,2022.2.1,Win32,164.2845408,,,,,,,,2.6516,,,,,,,,,,,,,,1,v,1.3484,0,1,4.1516,1.5,,,,,,27.4965044,0,2.461467004,,,,,,,,,,,,,0,3,3,36,1,0.526550878,1,,,,,,,,,,,,,,,,,,,,,,,,,,,,,,,,,,,,,,,,,,,,,,,,,,,,,,,,,,,,,,,,,,,,,,,,,,,,,,,,
,,5f0b72abf1f9950dce8c0f1e,2022-09-08_13h10.05.929,CGTgamblingSpanTasks,2022.2.1,Win32,164.2845408,,,,,,,,2.9026,,,,,,,,,,,,,,1,v,1.0974,0,1,3.9026,1,,,,,,27.57491653,0,2.99133314,,,,,,,,,,,,,0,4,4,10,1,0.47625893,1,,,,,,,,,,,,,,,,,,,,,,,,,,,,,,,,,,,,,,,,,,,,,,,,,,,,,,,,,,,,,,,,,,,,,,,,,,,,,,,,
,,5f0b72abf1f9950dce8c0f1e,2022-09-08_13h10.05.929,CGTgamblingSpanTasks,2022.2.1,Win32,164.2845408,,,,,,,,2.2162,,,,,,,,,,,,,,2,n,1.7838,27.53810185,1,3.7162,1.5,,,,,,27.53810185,0,0.097022401,,,,,,,,,,,,,0,5,5,50,1,0.901515865,0,,,,,,,,,,,,,,,,,,,,,,,,,,,,,,,,,,,,,,,,,,,,,,,,,,,,,,,,,,,,,,,,,,,,,,,,,,,,,,,,
,,5f0b72abf1f9950dce8c0f1e,2022-09-08_13h10.05.929,CGTgamblingSpanTasks,2022.2.1,Win32,164.2845408,,,,,,,,2.4331,,,,,,,,,,,,,,1,v,1.5669,22.86604061,1,3.9331,1.5,,,,,,22.86604061,0,2.293289792,,,,,,,,,,,,,0,6,6,51,1,0.49715382,1,,,,,,,,,,,,,,,,,,,,,,,,,,,,,,,,,,,,,,,,,,,,,,,,,,,,,,,,,,,,,,,,,,,,,,,,,,,,,,,,
,,5f0b72abf1f9950dce8c0f1e,2022-09-08_13h10.05.929,CGTgamblingSpanTasks,2022.2.1,Win32,164.2845408,,,,,,,,2.4833,,,,,,,,,,,,,,2,v,1.5167,10.41201161,0,3.9833,1.5,,,,,,6.307062696,0,10.41201161,,,,,,,,,,,,,0,7,7,23,1,0.018187109,0,,,,,,,,,,,,,,,,,,,,,,,,,,,,,,,,,,,,,,,,,,,,,,,,,,,,,,,,,,,,,,,,,,,,,,,,,,,,,,,,
,,5f0b72abf1f9950dce8c0f1e,2022-09-08_13h10.05.929,CGTgamblingSpanTasks,2022.2.1,Win32,164.2845408,,,,,,,,2.6835,,,,,,,,,,,,,,1,v,1.3165,0,1,3.6835,1,,,,,,7.534278541,0,0.747140182,,,,,,,,,,,,,0,8,8,37,1,0.50012466,1,,,,,,,,,,,,,,,,,,,,,,,,,,,,,,,,,,,,,,,,,,,,,,,,,,,,,,,,,,,,,,,,,,,,,,,,,,,,,,,,
,,5f0b72abf1f9950dce8c0f1e,2022-09-08_13h10.05.929,CGTgamblingSpanTasks,2022.2.1,Win32,164.2845408,,,,,,,,2.6994,,,,,,,,,,,,,,2,n,1.3006,21.17800335,1,4.1994,1.5,,,,,,21.17800335,0,0.059830985,,,,,,,,,,,,,0,9,9,67,1,0.908594974,0,,,,,,,,,,,,,,,,,,,,,,,,,,,,,,,,,,,,,,,,,,,,,,,,,,,,,,,,,,,,,,,,,,,,,,,,,,,,,,,,
,,5f0b72abf1f9950dce8c0f1e,2022-09-08_13h10.05.929,CGTgamblingSpanTasks,2022.2.1,Win32,164.2845408,,,,,,,,2.2165,,,,,,,,,,,,,,2,v,1.7835,11.41737518,0,3.2165,1,,,,,,18.11029021,0,11.41737518,,,,,,,,,,,,,0,10,10,48,1,0.069445859,0,,,,,,,,,,,,,,,,,,,,,,,,,,,,,,,,,,,,,,,,,,,,,,,,,,,,,,,,,,,,,,,,,,,,,,,,,,,,,,,,
,,5f0b72abf1f9950dce8c0f1e,2022-09-08_13h10.05.929,CGTgamblingSpanTasks,2022.2.1,Win32,164.2845408,,,,,,,,2.6195,,,,,,,,,,,,,,2,n,1.3805,0,1,3.6195,1,,,,,,21.03408097,0,2.208275162,,,,,,,,,,,,,0,11,11,0,1,0.485031246,1,,,,,,,,,,,,,,,,,,,,,,,,,,,,,,,,,,,,,,,,,,,,,,,,,,,,,,,,,,,,,,,,,,,,,,,,,,,,,,,,
,,5f0b72abf1f9950dce8c0f1e,2022-09-08_13h10.05.929,CGTgamblingSpanTasks,2022.2.1,Win32,164.2845408,,,,,,,,2.8522,,,,,,,,,,,,,,1,v,1.1478,0,1,3.8522,1,,,,,,13.96521039,0,1.591282699,,,,,,,,,,,,,0,12,12,49,1,0.462956344,1,,,,,,,,,,,,,,,,,,,,,,,,,,,,,,,,,,,,,,,,,,,,,,,,,,,,,,,,,,,,,,,,,,,,,,,,,,,,,,,,
,,5f0b72abf1f9950dce8c0f1e,2022-09-08_13h10.05.929,CGTgamblingSpanTasks,2022.2.1,Win32,164.2845408,,,,,,,,2.7666,,,,,,,,,,,,,,2,n,1.2334,15.43649625,1,3.7666,1,,,,,,15.43649625,0,1.65459324,,,,,,,,,,,,,0,13,13,33,1,0.479480163,1,,,,,,,,,,,,,,,,,,,,,,,,,,,,,,,,,,,,,,,,,,,,,,,,,,,,,,,,,,,,,,,,,,,,,,,,,,,,,,,,
,,5f0b72abf1f9950dce8c0f1e,2022-09-08_13h10.05.929,CGTgamblingSpanTasks,2022.2.1,Win32,164.2845408,,,,,,,,2.3665,,,,,,,,,,,,,,2,v,1.6335,11.42134125,0,3.3665,1,,,,,,12.9904115,0,11.42134125,,,,,,,,,,,,,0,14,14,118,1,0.037876033,0,,,,,,,,,,,,,,,,,,,,,,,,,,,,,,,,,,,,,,,,,,,,,,,,,,,,,,,,,,,,,,,,,,,,,,,,,,,,,,,,
,,5f0b72abf1f9950dce8c0f1e,2022-09-08_13h10.05.929,CGTgamblingSpanTasks,2022.2.1,Win32,164.2845408,,,,,,,,2.6332,,,,,,,,,,,,,,1,v,1.3668,0,1,4.1332,1.5,,,,,,19.58698544,0,9.936178001,,,,,,,,,,,,,0,15,15,77,1,0.098812204,0,,,,,,,,,,,,,,,,,,,,,,,,,,,,,,,,,,,,,,,,,,,,,,,,,,,,,,,,,,,,,,,,,,,,,,,,,,,,,,,,
,,5f0b72abf1f9950dce8c0f1e,2022-09-08_13h10.05.929,CGTgamblingSpanTasks,2022.2.1,Win32,164.2845408,,,,,,,,2.9997,,,,,,,,,,,,,,2,n,1.0003,0,1,4.4997,1.5,,,,,,25.26994993,0,2.78925142,,,,,,,,,,,,,0,16,16,108,1,0.471582922,1,,,,,,,,,,,,,,,,,,,,,,,,,,,,,,,,,,,,,,,,,,,,,,,,,,,,,,,,,,,,,,,,,,,,,,,,,,,,,,,,
,,5f0b72abf1f9950dce8c0f1e,2022-09-08_13h10.05.929,CGTgamblingSpanTasks,2022.2.1,Win32,164.2845408,,,,,,,,2.5024,,,,,,,,,,,,,,1,v,1.4976,21.7711579,1,4.0024,1.5,,,,,,21.7711579,0,2.502728921,,,,,,,,,,,,,0,17,17,101,1,0.460552621,1,,,,,,,,,,,,,,,,,,,,,,,,,,,,,,,,,,,,,,,,,,,,,,,,,,,,,,,,,,,,,,,,,,,,,,,,,,,,,,,,
,,5f0b72abf1f9950dce8c0f1e,2022-09-08_13h10.05.929,CGTgamblingSpanTasks,2022.2.1,Win32,164.2845408,,,,,,,,2.9317,,,,,,,,,,,,,,1,v,1.0683,23.59556381,1,3.9317,1,,,,,,23.59556381,0,2.464662219,,,,,,,,,,,,,0,18,18,22,1,0.486383205,1,,,,,,,,,,,,,,,,,,,,,,,,,,,,,,,,,,,,,,,,,,,,,,,,,,,,,,,,,,,,,,,,,,,,,,,,,,,,,,,,
,,5f0b72abf1f9950dce8c0f1e,2022-09-08_13h10.05.929,CGTgamblingSpanTasks,2022.2.1,Win32,164.2845408,,,,,,,,2.7993,,,,,,,,,,,,,,2,n,1.2007,0,1,4.2993,1.5,,,,,,25.65316415,0,0.079652925,,,,,,,,,,,,,0,19,19,109,1,0.90568168,0,,,,,,,,,,,,,,,,,,,,,,,,,,,,,,,,,,,,,,,,,,,,,,,,,,,,,,,,,,,,,,,,,,,,,,,,,,,,,,,,
,,5f0b72abf1f9950dce8c0f1e,2022-09-08_13h10.05.929,CGTgamblingSpanTasks,2022.2.1,Win32,164.2845408,,,,,,,,2.9672,,,,,,,,,,,,,,1,v,1.0328,0,1,3.9672,1,,,,,,26.4985979,0,0.051324376,,,,,,,,,,,,,0,20,20,106,1,0.918747215,0,,,,,,,,,,,,,,,,,,,,,,,,,,,,,,,,,,,,,,,,,,,,,,,,,,,,,,,,,,,,,,,,,,,,,,,,,,,,,,,,
,,5f0b72abf1f9950dce8c0f1e,2022-09-08_13h10.05.929,CGTgamblingSpanTasks,2022.2.1,Win32,164.2845408,,,,,,,,2.0865,,,,,,,,,,,,,,2,n,1.9135,21.46599803,1,3.0865,1,,,,,,21.46599803,0,0.059789256,,,,,,,,,,,,,0,21,21,8,1,0.909019081,0,,,,,,,,,,,,,,,,,,,,,,,,,,,,,,,,,,,,,,,,,,,,,,,,,,,,,,,,,,,,,,,,,,,,,,,,,,,,,,,,
,,5f0b72abf1f9950dce8c0f1e,2022-09-08_13h10.05.929,CGTgamblingSpanTasks,2022.2.1,Win32,164.2845408,,,,,,,,2.8996,,,,,,,,,,,,,,2,n,1.1004,24.479109,1,3.8996,1,,,,,,24.479109,0,0.089582697,,,,,,,,,,,,,0,22,22,89,1,0.900200232,0,,,,,,,,,,,,,,,,,,,,,,,,,,,,,,,,,,,,,,,,,,,,,,,,,,,,,,,,,,,,,,,,,,,,,,,,,,,,,,,,
,,5f0b72abf1f9950dce8c0f1e,2022-09-08_13h10.05.929,CGTgamblingSpanTasks,2022.2.1,Win32,164.2845408,,,,,,,,2.9964,,,,,,,,,,,,,,2,n,1.0036,0,1,3.9964,1,,,,,,29.75778644,0,2.810531415,,,,,,,,,,,,,0,23,23,113,1,0.512824233,1,,,,,,,,,,,,,,,,,,,,,,,,,,,,,,,,,,,,,,,,,,,,,,,,,,,,,,,,,,,,,,,,,,,,,,,,,,,,,,,,
,,5f0b72abf1f9950dce8c0f1e,2022-09-08_13h10.05.929,CGTgamblingSpanTasks,2022.2.1,Win32,164.2845408,,,,,,,,2.4982,,,,,,,,,,,,,,1,v,1.5018,0,1,3.9982,1.5,,,,,,17.5608285,0,1.825111303,,,,,,,,,,,,,0,24,24,104,1,0.487721116,1,,,,,,,,,,,,,,,,,,,,,,,,,,,,,,,,,,,,,,,,,,,,,,,,,,,,,,,,,,,,,,,,,,,,,,,,,,,,,,,,
,,5f0b72abf1f9950dce8c0f1e,2022-09-08_13h10.05.929,CGTgamblingSpanTasks,2022.2.1,Win32,164.2845408,,,,,,,,2.4165,,,,,,,,,,,,,,1,v,1.5835,0,1,3.4165,1,,,,,,28.33977875,0,2.768313633,,,,,,,,,,,,,0,25,25,116,1,0.50406901,1,,,,,,,,,,,,,,,,,,,,,,,,,,,,,,,,,,,,,,,,,,,,,,,,,,,,,,,,,,,,,,,,,,,,,,,,,,,,,,,,
,,5f0b72abf1f9950dce8c0f1e,2022-09-08_13h10.05.929,CGTgamblingSpanTasks,2022.2.1,Win32,164.2845408,,,,,,,,3.2163,,,,,,,,,,,,,,1,v,0.7837,0,1,4.7163,1.5,,,,,,23.24777057,0,2.003482335,,,,,,,,,,,,,0,26,26,59,1,0.536135174,1,,,,,,,,,,,,,,,,,,,,,,,,,,,,,,,,,,,,,,,,,,,,,,,,,,,,,,,,,,,,,,,,,,,,,,,,,,,,,,,,
,,5f0b72abf1f9950dce8c0f1e,2022-09-08_13h10.05.929,CGTgamblingSpanTasks,2022.2.1,Win32,164.2845408,,,,,,,,2.8313,,,,,,,,,,,,,,1,v,1.1687,15.13999312,1,3.8313,1,,,,,,15.13999312,0,8.653432553,,,,,,,,,,,,,0,27,27,54,1,0.081767484,0,,,,,,,,,,,,,,,,,,,,,,,,,,,,,,,,,,,,,,,,,,,,,,,,,,,,,,,,,,,,,,,,,,,,,,,,,,,,,,,,
,,5f0b72abf1f9950dce8c0f1e,2022-09-08_13h10.05.929,CGTgamblingSpanTasks,2022.2.1,Win32,164.2845408,,,,,,,,2.936,,,,,,,,,,,,,,1,v,1.064,0,1,3.936,1,,,,,,28.9323758,0,2.893007023,,,,,,,,,,,,,0,28,28,11,1,0.497943321,1,,,,,,,,,,,,,,,,,,,,,,,,,,,,,,,,,,,,,,,,,,,,,,,,,,,,,,,,,,,,,,,,,,,,,,,,,,,,,,,,
,,5f0b72abf1f9950dce8c0f1e,2022-09-08_13h10.05.929,CGTgamblingSpanTasks,2022.2.1,Win32,164.2845408,,,,,,,,2.7336,,,,,,,,,,,,,,2,n,1.2664,0,1,4.2336,1.5,,,,,,17.67865084,0,11.35147481,,,,,,,,,,,,,0,29,29,91,1,0.067304606,0,,,,,,,,,,,,,,,,,,,,,,,,,,,,,,,,,,,,,,,,,,,,,,,,,,,,,,,,,,,,,,,,,,,,,,,,,,,,,,,,
,,5f0b72abf1f9950dce8c0f1e,2022-09-08_13h10.05.929,CGTgamblingSpanTasks,2022.2.1,Win32,164.2845408,,,,,,,,2.9675,,,,,,,,,,,,,,1,v,1.0325,27.2532142,1,4.4675,1.5,,,,,,27.2532142,0,0.08089327,,,,,,,,,,,,,0,30,30,119,1,0.907091845,0,,,,,,,,,,,,,,,,,,,,,,,,,,,,,,,,,,,,,,,,,,,,,,,,,,,,,,,,,,,,,,,,,,,,,,,,,,,,,,,,
,,5f0b72abf1f9950dce8c0f1e,2022-09-08_13h10.05.929,CGTgamblingSpanTasks,2022.2.1,Win32,164.2845408,,,,,,,,2.7996,,,,,,,,,,,,,,2,n,1.2004,0,1,3.7996,1,,,,,,13.4287264,0,1.317368801,,,,,,,,,,,,,0,31,31,100,1,0.502953125,1,,,,,,,,,,,,,,,,,,,,,,,,,,,,,,,,,,,,,,,,,,,,,,,,,,,,,,,,,,,,,,,,,,,,,,,,,,,,,,,,
,,5f0b72abf1f9950dce8c0f1e,2022-09-08_13h10.05.929,CGTgamblingSpanTasks,2022.2.1,Win32,164.2845408,,,,,,,,2.8829,,,,,,,,,,,,,,2,n,1.1171,27.76752685,1,3.8829,1,,,,,,27.76752685,0,0.083968035,,,,,,,,,,,,,0,32,32,13,1,0.906513967,0,,,,,,,,,,,,,,,,,,,,,,,,,,,,,,,,,,,,,,,,,,,,,,,,,,,,,,,,,,,,,,,,,,,,,,,,,,,,,,,,
,,5f0b72abf1f9950dce8c0f1e,2022-09-08_13h10.05.929,CGTgamblingSpanTasks,2022.2.1,Win32,164.2845408,,,,,,,,2.2673,,,,,,,,,,,,,,1,n,1.7327,3.877530383,0,3.7673,1.5,,,,,,3.471484939,0,3.877530383,,,,,,,,,,,,,0,33,33,40,1,0.02623078,0,,,,,,,,,,,,,,,,,,,,,,,,,,,,,,,,,,,,,,,,,,,,,,,,,,,,,,,,,,,,,,,,,,,,,,,,,,,,,,,,
,,5f0b72abf1f9950dce8c0f1e,2022-09-08_13h10.05.929,CGTgamblingSpanTasks,2022.2.1,Win32,164.2845408,,,,,,,,2.4333,,,,,,,,,,,,,,1,n,1.5667,5.683635938,0,3.9333,1.5,,,,,,4.941039335,0,5.683635938,,,,,,,,,,,,,0,34,34,9,1,0.025481984,0,,,,,,,,,,,,,,,,,,,,,,,,,,,,,,,,,,,,,,,,,,,,,,,,,,,,,,,,,,,,,,,,,,,,,,,,,,,,,,,,
,,5f0b72abf1f9950dce8c0f1e,2022-09-08_13h10.05.929,CGTgamblingSpanTasks,2022.2.1,Win32,164.2845408,,,,,,,,2.8157,,,,,,,,,,,,,,1,v,1.1843,26.11188619,1,4.3157,1.5,,,,,,26.11188619,0,0.081942421,,,,,,,,,,,,,0,35,35,105,1,0.905343856,0,,,,,,,,,,,,,,,,,,,,,,,,,,,,,,,,,,,,,,,,,,,,,,,,,,,,,,,,,,,,,,,,,,,,,,,,,,,,,,,,
,,5f0b72abf1f9950dce8c0f1e,2022-09-08_13h10.05.929,CGTgamblingSpanTasks,2022.2.1,Win32,164.2845408,,,,,,,,2.2003,,,,,,,,,,,,,,1,v,1.7997,14.11762686,1,3.2003,1,,,,,,14.11762686,0,8.579385201,,,,,,,,,,,,,0,36,36,60,1,0.073886959,0,,,,,,,,,,,,,,,,,,,,,,,,,,,,,,,,,,,,,,,,,,,,,,,,,,,,,,,,,,,,,,,,,,,,,,,,,,,,,,,,
,,5f0b72abf1f9950dce8c0f1e,2022-09-08_13h10.05.929,CGTgamblingSpanTasks,2022.2.1,Win32,164.2845408,,,,,,,,3.0174,,,,,,,,,,,,,,1,v,0.9826,0,1,4.5174,1.5,,,,,,22.62475578,0,2.397643354,,,,,,,,,,,,,0,37,37,93,1,0.482527609,1,,,,,,,,,,,,,,,,,,,,,,,,,,,,,,,,,,,,,,,,,,,,,,,,,,,,,,,,,,,,,,,,,,,,,,,,,,,,,,,,
,,5f0b72abf1f9950dce8c0f1e,2022-09-08_13h10.05.929,CGTgamblingSpanTasks,2022.2.1,Win32,164.2845408,,,,,,,,2.9682,,,,,,,,,,,,,,1,v,1.0318,0,1,4.4682,1.5,,,,,,11.16819157,0,0.941456753,,,,,,,,,,,,,0,38,38,45,1,0.54163803,1,,,,,,,,,,,,,,,,,,,,,,,,,,,,,,,,,,,,,,,,,,,,,,,,,,,,,,,,,,,,,,,,,,,,,,,,,,,,,,,,
,,5f0b72abf1f9950dce8c0f1e,2022-09-08_13h10.05.929,CGTgamblingSpanTasks,2022.2.1,Win32,164.2845408,,,,,,,,3.133,,,,,,,,,,,,,,2,n,0.867,0,1,4.133,1,,,,,,25.76582409,0,2.393193076,,,,,,,,,,,,,0,39,39,46,1,0.517129855,1,,,,,,,,,,,,,,,,,,,,,,,,,,,,,,,,,,,,,,,,,,,,,,,,,,,,,,,,,,,,,,,,,,,,,,,,,,,,,,,,
,,5f0b72abf1f9950dce8c0f1e,2022-09-08_13h10.05.929,CGTgamblingSpanTasks,2022.2.1,Win32,164.2845408,,,,,,,,2.7164,,,,,,,,,,,,,,1,n,1.2836,11.61882862,0,4.2164,1.5,,,,,,4.022743614,0,11.61882862,,,,,,,,,,,,,0,40,40,38,1,0.011499376,0,,,,,,,,,,,,,,,,,,,,,,,,,,,,,,,,,,,,,,,,,,,,,,,,,,,,,,,,,,,,,,,,,,,,,,,,,,,,,,,,
,,5f0b72abf1f9950dce8c0f1e,2022-09-08_13h10.05.929,CGTgamblingSpanTasks,2022.2.1,Win32,164.2845408,,,,,,,,3.1,,,,,,,,,,,,,,1,v,0.9,0,1,4.6,1.5,,,,,,18.16238569,0,1.540604093,,,,,,,,,,,,,0,41,41,34,1,0.540092491,1,,,,,,,,,,,,,,,,,,,,,,,,,,,,,,,,,,,,,,,,,,,,,,,,,,,,,,,,,,,,,,,,,,,,,,,,,,,,,,,,
,,5f0b72abf1f9950dce8c0f1e,2022-09-08_13h10.05.929,CGTgamblingSpanTasks,2022.2.1,Win32,164.2845408,,,,,,,,3.1663,,,,,,,,,,,,,,1,v,0.8337,0,1,4.6663,1.5,,,,,,26.36733703,0,2.201057101,,,,,,,,,,,,,0,42,42,90,1,0.544064207,1,,,,,,,,,,,,,,,,,,,,,,,,,,,,,,,,,,,,,,,,,,,,,,,,,,,,,,,,,,,,,,,,,,,,,,,,,,,,,,,,
,,5f0b72abf1f9950dce8c0f1e,2022-09-08_13h10.05.929,CGTgamblingSpanTasks,2022.2.1,Win32,164.2845408,,,,,,,,3.033,,,,,,,,,,,,,,1,v,0.967,27.77179191,1,4.033,1,,,,,,27.77179191,0,0.074524436,,,,,,,,,,,,,0,43,43,99,1,0.910114387,0,,,,,,,,,,,,,,,,,,,,,,,,,,,,,,,,,,,,,,,,,,,,,,,,,,,,,,,,,,,,,,,,,,,,,,,,,,,,,,,,
,,5f0b72abf1f9950dce8c0f1e,2022-09-08_13h10.05.929,CGTgamblingSpanTasks,2022.2.1,Win32,164.2845408,,,,,,,,2.8494,,,,,,,,,,,,,,2,n,1.1506,28.13634754,1,4.3494,1.5,,,,,,28.13634754,0,2.532806323,,,,,,,,,,,,,0,44,44,28,1,0.525136524,1,,,,,,,,,,,,,,,,,,,,,,,,,,,,,,,,,,,,,,,,,,,,,,,,,,,,,,,,,,,,,,,,,,,,,,,,,,,,,,,,
,,5f0b72abf1f9950dce8c0f1e,2022-09-08_13h10.05.929,CGTgamblingSpanTasks,2022.2.1,Win32,164.2845408,,,,,,,,2.9171,,,,,,,,,,,,,,2,n,1.0829,11.08143071,1,3.9171,1,,,,,,11.08143071,0,1.207538756,,,,,,,,,,,,,0,45,45,84,1,0.475047453,1,,,,,,,,,,,,,,,,,,,,,,,,,,,,,,,,,,,,,,,,,,,,,,,,,,,,,,,,,,,,,,,,,,,,,,,,,,,,,,,,
,,5f0b72abf1f9950dce8c0f1e,2022-09-08_13h10.05.929,CGTgamblingSpanTasks,2022.2.1,Win32,164.2845408,,,,,,,,2.7502,,,,,,,,,,,,,,1,v,1.2498,0,1,4.2502,1.5,,,,,,25.21882231,0,0.085746782,,,,,,,,,,,,,0,46,46,64,1,0.90272076,0,,,,,,,,,,,,,,,,,,,,,,,,,,,,,,,,,,,,,,,,,,,,,,,,,,,,,,,,,,,,,,,,,,,,,,,,,,,,,,,,
,,5f0b72abf1f9950dce8c0f1e,2022-09-08_13h10.05.929,CGTgamblingSpanTasks,2022.2.1,Win32,164.2845408,,,,,,,,3.0002,,,,,,,,,,,,,,2,n,0.9998,28.14876717,1,4.5002,1.5,,,,,,28.14876717,0,3.117906378,,,,,,,,,,,,,0,47,47,76,1,0.470636736,1,,,,,,,,,,,,,,,,,,,,,,,,,,,,,,,,,,,,,,,,,,,,,,,,,,,,,,,,,,,,,,,,,,,,,,,,,,,,,,,,
,,5f0b72abf1f9950dce8c0f1e,2022-09-08_13h10.05.929,CGTgamblingSpanTasks,2022.2.1,Win32,164.2845408,,,,,,,,3.0499,,,,,,,,,,,,,,2,n,0.9501,0,1,4.0499,1,,,,,,27.38828234,0,0.0639233,,,,,,,,,,,,,0,48,48,43,1,0.914010176,0,,,,,,,,,,,,,,,,,,,,,,,,,,,,,,,,,,,,,,,,,,,,,,,,,,,,,,,,,,,,,,,,,,,,,,,,,,,,,,,,
,,5f0b72abf1f9950dce8c0f1e,2022-09-08_13h10.05.929,CGTgamblingSpanTasks,2022.2.1,Win32,164.2845408,,,,,,,,3.0831,,,,,,,,,,,,,,1,n,0.9169,7.646213173,0,4.0831,1,,,,,,2.042350179,0,7.646213173,,,,,,,,,,,,,0,49,49,53,1,0.009522273,0,,,,,,,,,,,,,,,,,,,,,,,,,,,,,,,,,,,,,,,,,,,,,,,,,,,,,,,,,,,,,,,,,,,,,,,,,,,,,,,,
,,5f0b72abf1f9950dce8c0f1e,2022-09-08_13h10.05.929,CGTgamblingSpanTasks,2022.2.1,Win32,164.2845408,,,,,,,,2.7492,,,,,,,,,,,,,,1,v,1.2508,25.54604005,1,4.2492,1.5,,,,,,25.54604005,0,0.088845411,,,,,,,,,,,,,0,50,50,79,1,0.901957831,0,,,,,,,,,,,,,,,,,,,,,,,,,,,,,,,,,,,,,,,,,,,,,,,,,,,,,,,,,,,,,,,,,,,,,,,,,,,,,,,,
,,5f0b72abf1f9950dce8c0f1e,2022-09-08_13h10.05.929,CGTgamblingSpanTasks,2022.2.1,Win32,164.2845408,,,,,,,,2.9825,,,,,,,,,,,,,,2,n,1.0175,0,1,3.9825,1,,,,,,27.12325385,0,0.080932047,,,,,,,,,,,,,0,51,51,14,1,0.906929184,0,,,,,,,,,,,,,,,,,,,,,,,,,,,,,,,,,,,,,,,,,,,,,,,,,,,,,,,,,,,,,,,,,,,,,,,,,,,,,,,,
,,5f0b72abf1f9950dce8c0f1e,2022-09-08_13h10.05.929,CGTgamblingSpanTasks,2022.2.1,Win32,164.2845408,,,,,,,,2.466,,,,,,,,,,,,,,1,v,1.534,0,1,3.966,1.5,,,,,,17.23907308,0,2.055848574,,,,,,,,,,,,,0,52,52,66,1,0.450504458,1,,,,,,,,,,,,,,,,,,,,,,,,,,,,,,,,,,,,,,,,,,,,,,,,,,,,,,,,,,,,,,,,,,,,,,,,,,,,,,,,
,,5f0b72abf1f9950dce8c0f1e,2022-09-08_13h10.05.929,CGTgamblingSpanTasks,2022.2.1,Win32,164.2845408,,,,,,,,2.7664,,,,,,,,,,,,,,1,v,1.2336,19.36415485,1,4.2664,1.5,,,,,,19.36415485,0,1.966229494,,,,,,,,,,,,,0,53,53,96,1,0.493893111,1,,,,,,,,,,,,,,,,,,,,,,,,,,,,,,,,,,,,,,,,,,,,,,,,,,,,,,,,,,,,,,,,,,,,,,,,,,,,,,,,
,,5f0b72abf1f9950dce8c0f1e,2022-09-08_13h10.05.929,CGTgamblingSpanTasks,2022.2.1,Win32,164.2845408,,,,,,,,2.8862,,,,,,,,,,,,,,1,v,1.1138,21.2188881,1,4.3862,1.5,,,,,,21.2188881,0,2.067660742,,,,,,,,,,,,,0,54,54,107,1,0.50470775,1,,,,,,,,,,,,,,,,,,,,,,,,,,,,,,,,,,,,,,,,,,,,,,,,,,,,,,,,,,,,,,,,,,,,,,,,,,,,,,,,
,,5f0b72abf1f9950dce8c0f1e,2022-09-08_13h10.05.929,CGTgamblingSpanTasks,2022.2.1,Win32,164.2845408,,,,,,,,2.9341,,,,,,,,,,,,,,1,v,1.0659,0,1,4.4341,1.5,,,,,,19.3050342,0,2.030232342,,,,,,,,,,,,,0,55,55,73,1,0.484573227,1,,,,,,,,,,,,,,,,,,,,,,,,,,,,,,,,,,,,,,,,,,,,,,,,,,,,,,,,,,,,,,,,,,,,,,,,,,,,,,,,
,,5f0b72abf1f9950dce8c0f1e,2022-09-08_13h10.05.929,CGTgamblingSpanTasks,2022.2.1,Win32,164.2845408,,,,,,,,3.0337,,,,,,,,,,,,,,2,n,0.9663,17.85020524,1,4.5337,1.5,,,,,,17.85020524,0,2.058701084,,,,,,,,,,,,,0,56,56,25,1,0.459662216,1,,,,,,,,,,,,,,,,,,,,,,,,,,,,,,,,,,,,,,,,,,,,,,,,,,,,,,,,,,,,,,,,,,,,,,,,,,,,,,,,
,,5f0b72abf1f9950dce8c0f1e,2022-09-08_13h10.05.929,CGTgamblingSpanTasks,2022.2.1,Win32,164.2845408,,,,,,,,2.6334,,,,,,,,,,,,,,1,n,1.3666,11.6744431,0,4.1334,1.5,,,,,,10.43004651,0,11.6744431,,,,,,,,,,,,,0,57,57,15,1,0.026176489,0,,,,,,,,,,,,,,,,,,,,,,,,,,,,,,,,,,,,,,,,,,,,,,,,,,,,,,,,,,,,,,,,,,,,,,,,,,,,,,,,
,,5f0b72abf1f9950dce8c0f1e,2022-09-08_13h10.05.929,CGTgamblingSpanTasks,2022.2.1,Win32,164.2845408,,,,,,,,3.0669,,,,,,,,,,,,,,2,n,0.9331,0,1,4.0669,1,,,,,,23.4214135,0,2.485985001,,,,,,,,,,,,,0,58,58,81,1,0.482105905,1,,,,,,,,,,,,,,,,,,,,,,,,,,,,,,,,,,,,,,,,,,,,,,,,,,,,,,,,,,,,,,,,,,,,,,,,,,,,,,,,
,,5f0b72abf1f9950dce8c0f1e,2022-09-08_13h10.05.929,CGTgamblingSpanTasks,2022.2.1,Win32,164.2845408,,,,,,,,2.5819,,,,,,,,,,,,,,2,n,1.4181,0,1,3.5819,1,,,,,,20.97851654,0,11.39288827,,,,,,,,,,,,,0,59,59,2,1,0.088791079,0,,,,,,,,,,,,,,,,,,,,,,,,,,,,,,,,,,,,,,,,,,,,,,,,,,,,,,,,,,,,,,,,,,,,,,,,,,,,,,,,
,,5f0b72abf1f9950dce8c0f1e,2022-09-08_13h10.05.929,CGTgamblingSpanTasks,2022.2.1,Win32,164.2845408,,,,,,,,2.7994,,,,,,,,,,,,,,1,v,1.2006,29.76099779,1,4.2994,1.5,,,,,,29.76099779,0,0.095763086,,,,,,,,,,,,,0,60,60,35,1,0.904537896,0,,,,,,,,,,,,,,,,,,,,,,,,,,,,,,,,,,,,,,,,,,,,,,,,,,,,,,,,,,,,,,,,,,,,,,,,,,,,,,,,
,,5f0b72abf1f9950dce8c0f1e,2022-09-08_13h10.05.929,CGTgamblingSpanTasks,2022.2.1,Win32,164.2845408,,,,,,,,2.7666,,,,,,,,,,,,,,1,v,1.2334,27.39221343,1,4.2666,1.5,,,,,,27.39221343,0,2.743407746,,,,,,,,,,,,,0,61,61,47,1,0.49752044,1,,,,,,,,,,,,,,,,,,,,,,,,,,,,,,,,,,,,,,,,,,,,,,,,,,,,,,,,,,,,,,,,,,,,,,,,,,,,,,,,
,,5f0b72abf1f9950dce8c0f1e,2022-09-08_13h10.05.929,CGTgamblingSpanTasks,2022.2.1,Win32,164.2845408,,,,,,,,2.9497,,,,,,,,,,,,,,1,v,1.0503,0,1,4.4497,1.5,,,,,,19.68065872,0,1.843597162,,,,,,,,,,,,,0,62,62,80,1,0.514941058,1,,,,,,,,,,,,,,,,,,,,,,,,,,,,,,,,,,,,,,,,,,,,,,,,,,,,,,,,,,,,,,,,,,,,,,,,,,,,,,,,
,,5f0b72abf1f9950dce8c0f1e,2022-09-08_13h10.05.929,CGTgamblingSpanTasks,2022.2.1,Win32,164.2845408,,,,,,,,2.9831,,,,,,,,,,,,,,1,v,1.0169,0,1,4.4831,1.5,,,,,,24.57684014,0,0.061756244,,,,,,,,,,,,,0,63,63,68,1,0.911988903,0,,,,,,,,,,,,,,,,,,,,,,,,,,,,,,,,,,,,,,,,,,,,,,,,,,,,,,,,,,,,,,,,,,,,,,,,,,,,,,,,
,,5f0b72abf1f9950dce8c0f1e,2022-09-08_13h10.05.929,CGTgamblingSpanTasks,2022.2.1,Win32,164.2845408,,,,,,,,2.6858,,,,,,,,,,,,,,1,v,1.3142,9.725876653,1,3.6858,1,,,,,,9.725876653,0,5.526483034,,,,,,,,,,,,,0,64,64,44,1,0.082550696,0,,,,,,,,,,,,,,,,,,,,,,,,,,,,,,,,,,,,,,,,,,,,,,,,,,,,,,,,,,,,,,,,,,,,,,,,,,,,,,,,
,,5f0b72abf1f9950dce8c0f1e,2022-09-08_13h10.05.929,CGTgamblingSpanTasks,2022.2.1,Win32,164.2845408,,,,,,,,2.8336,,,,,,,,,,,,,,2,n,1.1664,0,1,3.8336,1,,,,,,28.94627214,0,2.701896413,,,,,,,,,,,,,0,65,65,111,1,0.515860759,1,,,,,,,,,,,,,,,,,,,,,,,,,,,,,,,,,,,,,,,,,,,,,,,,,,,,,,,,,,,,,,,,,,,,,,,,,,,,,,,,
,,5f0b72abf1f9950dce8c0f1e,2022-09-08_13h10.05.929,CGTgamblingSpanTasks,2022.2.1,Win32,164.2845408,,,,,,,,2.9855,,,,,,,,,,,,,,1,v,1.0145,20.5726842,1,3.9855,1,,,,,,20.5726842,0,0.073558523,,,,,,,,,,,,,0,66,66,26,1,0.901008565,0,,,,,,,,,,,,,,,,,,,,,,,,,,,,,,,,,,,,,,,,,,,,,,,,,,,,,,,,,,,,,,,,,,,,,,,,,,,,,,,,
,,5f0b72abf1f9950dce8c0f1e,2022-09-08_13h10.05.929,CGTgamblingSpanTasks,2022.2.1,Win32,164.2845408,,,,,,,,2.3827,,,,,,,,,,,,,,1,v,1.6173,10.05300841,1,3.3827,1,,,,,,10.05300841,0,8.512335864,,,,,,,,,,,,,0,67,67,74,1,0.040729225,0,,,,,,,,,,,,,,,,,,,,,,,,,,,,,,,,,,,,,,,,,,,,,,,,,,,,,,,,,,,,,,,,,,,,,,,,,,,,,,,,
,,5f0b72abf1f9950dce8c0f1e,2022-09-08_13h10.05.929,CGTgamblingSpanTasks,2022.2.1,Win32,164.2845408,,,,,,,,2.9,,,,,,,,,,,,,,2,n,1.1,27.37527992,1,3.9,1,,,,,,27.37527992,0,2.860319095,,,,,,,,,,,,,0,68,68,39,1,0.486304156,1,,,,,,,,,,,,,,,,,,,,,,,,,,,,,,,,,,,,,,,,,,,,,,,,,,,,,,,,,,,,,,,,,,,,,,,,,,,,,,,,
,,5f0b72abf1f9950dce8c0f1e,2022-09-08_13h10.05.929,CGTgamblingSpanTasks,2022.2.1,Win32,164.2845408,,,,,,,,2.7504,,,,,,,,,,,,,,1,v,1.2496,0,1,4.2504,1.5,,,,,,20.31034258,0,1.870404296,,,,,,,,,,,,,0,69,69,85,1,0.519325853,1,,,,,,,,,,,,,,,,,,,,,,,,,,,,,,,,,,,,,,,,,,,,,,,,,,,,,,,,,,,,,,,,,,,,,,,,,,,,,,,,
,,5f0b72abf1f9950dce8c0f1e,2022-09-08_13h10.05.929,CGTgamblingSpanTasks,2022.2.1,Win32,164.2845408,,,,,,,,3.1833,,,,,,,,,,,,,,2,n,0.8167,29.30724159,1,4.1833,1,,,,,,29.30724159,0,3.247012935,,,,,,,,,,,,,0,70,70,71,1,0.470571125,1,,,,,,,,,,,,,,,,,,,,,,,,,,,,,,,,,,,,,,,,,,,,,,,,,,,,,,,,,,,,,,,,,,,,,,,,,,,,,,,,
,,5f0b72abf1f9950dce8c0f1e,2022-09-08_13h10.05.929,CGTgamblingSpanTasks,2022.2.1,Win32,164.2845408,,,,,,,,3.0497,,,,,,,,,,,,,,2,n,0.9503,0,1,4.0497,1,,,,,,24.66627941,0,2.765426402,,,,,,,,,,,,,0,71,71,24,1,0.467360588,1,,,,,,,,,,,,,,,,,,,,,,,,,,,,,,,,,,,,,,,,,,,,,,,,,,,,,,,,,,,,,,,,,,,,,,,,,,,,,,,,
,,5f0b72abf1f9950dce8c0f1e,2022-09-08_13h10.05.929,CGTgamblingSpanTasks,2022.2.1,Win32,164.2845408,,,,,,,,2.6743,,,,,,,,,,,,,,2,n,1.3257,0,1,3.6743,1,,,,,,23.0613391,0,2.387726776,,,,,,,,,,,,,0,72,72,69,1,0.488727763,1,,,,,,,,,,,,,,,,,,,,,,,,,,,,,,,,,,,,,,,,,,,,,,,,,,,,,,,,,,,,,,,,,,,,,,,,,,,,,,,,
,,5f0b72abf1f9950dce8c0f1e,2022-09-08_13h10.05.929,CGTgamblingSpanTasks,2022.2.1,Win32,164.2845408,,,,,,,,2.8995,,,,,,,,,,,,,,2,n,1.1005,0,1,3.8995,1,,,,,,18.20422443,0,1.635040165,,,,,,,,,,,,,0,73,73,82,1,0.525708991,1,,,,,,,,,,,,,,,,,,,,,,,,,,,,,,,,,,,,,,,,,,,,,,,,,,,,,,,,,,,,,,,,,,,,,,,,,,,,,,,,
,,5f0b72abf1f9950dce8c0f1e,2022-09-08_13h10.05.929,CGTgamblingSpanTasks,2022.2.1,Win32,164.2845408,,,,,,,,2.6332,,,,,,,,,,,,,,1,v,1.3668,27.94544945,1,4.1332,1.5,,,,,,27.94544945,0,2.32030209,,,,,,,,,,,,,0,74,74,115,1,0.545390564,1,,,,,,,,,,,,,,,,,,,,,,,,,,,,,,,,,,,,,,,,,,,,,,,,,,,,,,,,,,,,,,,,,,,,,,,,,,,,,,,,
,,5f0b72abf1f9950dce8c0f1e,2022-09-08_13h10.05.929,CGTgamblingSpanTasks,2022.2.1,Win32,164.2845408,,,,,,,,2.8493,,,,,,,,,,,,,,1,n,1.1507,11.19311486,0,4.3493,1.5,,,,,,8.17598802,0,11.19311486,,,,,,,,,,,,,0,75,75,110,1,0.021568003,0,,,,,,,,,,,,,,,,,,,,,,,,,,,,,,,,,,,,,,,,,,,,,,,,,,,,,,,,,,,,,,,,,,,,,,,,,,,,,,,,
,,5f0b72abf1f9950dce8c0f1e,2022-09-08_13h10.05.929,CGTgamblingSpanTasks,2022.2.1,Win32,164.2845408,,,,,,,,2.7663,,,,,,,,,,,,,,2,n,1.2337,22.0050376,1,4.2663,1.5,,,,,,22.0050376,0,2.257683666,,,,,,,,,,,,,0,76,76,4,1,0.491147312,1,,,,,,,,,,,,,,,,,,,,,,,,,,,,,,,,,,,,,,,,,,,,,,,,,,,,,,,,,,,,,,,,,,,,,,,,,,,,,,,,
,,5f0b72abf1f9950dce8c0f1e,2022-09-08_13h10.05.929,CGTgamblingSpanTasks,2022.2.1,Win32,164.2845408,,,,,,,,2.6485,,,,,,,,,,,,,,2,n,1.3515,28.18900855,1,4.1485,1.5,,,,,,28.18900855,0,0.05384276,,,,,,,,,,,,,0,77,77,55,1,0.919081308,0,,,,,,,,,,,,,,,,,,,,,,,,,,,,,,,,,,,,,,,,,,,,,,,,,,,,,,,,,,,,,,,,,,,,,,,,,,,,,,,,
,,5f0b72abf1f9950dce8c0f1e,2022-09-08_13h10.05.929,CGTgamblingSpanTasks,2022.2.1,Win32,164.2845408,,,,,,,,2.7844,,,,,,,,,,,,,,1,v,1.2156,8.363821911,1,4.2844,1.5,,,,,,8.363821911,0,6.781500919,,,,,,,,,,,,,0,78,78,61,1,0.044227959,0,,,,,,,,,,,,,,,,,,,,,,,,,,,,,,,,,,,,,,,,,,,,,,,,,,,,,,,,,,,,,,,,,,,,,,,,,,,,,,,,
,,5f0b72abf1f9950dce8c0f1e,2022-09-08_13h10.05.929,CGTgamblingSpanTasks,2022.2.1,Win32,164.2845408,,,,,,,,2.9529,,,,,,,,,,,,,,1,v,1.0471,22.25959835,1,4.4529,1.5,,,,,,22.25959835,0,0.065383587,,,,,,,,,,,,,0,79,79,97,1,0.907413875,0,,,,,,,,,,,,,,,,,,,,,,,,,,,,,,,,,,,,,,,,,,,,,,,,,,,,,,,,,,,,,,,,,,,,,,,,,,,,,,,,
,,5f0b72abf1f9950dce8c0f1e,2022-09-08_13h10.05.929,CGTgamblingSpanTasks,2022.2.1,Win32,164.2845408,,,,,,,,2.7515,,,,,,,,,,,,,,1,v,1.2485,22.72923833,1,4.2515,1.5,,,,,,22.72923833,0,0.067170781,,,,,,,,,,,,,0,80,80,86,1,0.907226703,0,,,,,,,,,,,,,,,,,,,,,,,,,,,,,,,,,,,,,,,,,,,,,,,,,,,,,,,,,,,,,,,,,,,,,,,,,,,,,,,,
,,5f0b72abf1f9950dce8c0f1e,2022-09-08_13h10.05.929,CGTgamblingSpanTasks,2022.2.1,Win32,164.2845408,,,,,,,,2.4168,,,,,,,,,,,,,,2,v,1.5832,11.93550497,0,3.9168,1.5,,,,,,14.20587264,0,11.93550497,,,,,,,,,,,,,0,81,81,21,1,0.041340301,0,,,,,,,,,,,,,,,,,,,,,,,,,,,,,,,,,,,,,,,,,,,,,,,,,,,,,,,,,,,,,,,,,,,,,,,,,,,,,,,,
,,5f0b72abf1f9950dce8c0f1e,2022-09-08_13h10.05.929,CGTgamblingSpanTasks,2022.2.1,Win32,164.2845408,,,,,,,,2.2199,,,,,,,,,,,,,,1,n,1.7801,4.251676631,0,3.7199,1.5,,,,,,3.395192929,0,4.251676631,,,,,,,,,,,,,0,82,82,7,1,0.023467153,0,,,,,,,,,,,,,,,,,,,,,,,,,,,,,,,,,,,,,,,,,,,,,,,,,,,,,,,,,,,,,,,,,,,,,,,,,,,,,,,,
,,5f0b72abf1f9950dce8c0f1e,2022-09-08_13h10.05.929,CGTgamblingSpanTasks,2022.2.1,Win32,164.2845408,,,,,,,,2.7345,,,,,,,,,,,,,,1,v,1.2655,0,1,4.2345,1.5,,,,,,7.066129113,0,0.585581699,,,,,,,,,,,,,0,83,83,19,1,0.545860632,1,,,,,,,,,,,,,,,,,,,,,,,,,,,,,,,,,,,,,,,,,,,,,,,,,,,,,,,,,,,,,,,,,,,,,,,,,,,,,,,,
,,5f0b72abf1f9950dce8c0f1e,2022-09-08_13h10.05.929,CGTgamblingSpanTasks,2022.2.1,Win32,164.2845408,,,,,,,,2.7495,,,,,,,,,,,,,,2,v,1.2505,4.904872644,0,3.7495,1,,,,,,4.698775357,0,4.904872644,,,,,,,,,,,,,0,84,84,75,1,0.028064484,0,,,,,,,,,,,,,,,,,,,,,,,,,,,,,,,,,,,,,,,,,,,,,,,,,,,,,,,,,,,,,,,,,,,,,,,,,,,,,,,,
,,5f0b72abf1f9950dce8c0f1e,2022-09-08_13h10.05.929,CGTgamblingSpanTasks,2022.2.1,Win32,164.2845408,,,,,,,,2.8693,,,,,,,,,,,,,,1,v,1.1307,0,1,3.8693,1,,,,,,17.64114152,0,10.68505773,,,,,,,,,,,,,0,85,85,98,1,0.074299362,0,,,,,,,,,,,,,,,,,,,,,,,,,,,,,,,,,,,,,,,,,,,,,,,,,,,,,,,,,,,,,,,,,,,,,,,,,,,,,,,,
,,5f0b72abf1f9950dce8c0f1e,2022-09-08_13h10.05.929,CGTgamblingSpanTasks,2022.2.1,Win32,164.2845408,,,,,,,,2.9491,,,,,,,,,,,,,,2,n,1.0509,0,1,3.9491,1,,,,,,8.670591867,0,1.025847652,,,,,,,,,,,,,0,86,86,18,1,0.452680459,1,,,,,,,,,,,,,,,,,,,,,,,,,,,,,,,,,,,,,,,,,,,,,,,,,,,,,,,,,,,,,,,,,,,,,,,,,,,,,,,,
,,5f0b72abf1f9950dce8c0f1e,2022-09-08_13h10.05.929,CGTgamblingSpanTasks,2022.2.1,Win32,164.2845408,,,,,,,,3.0673,,,,,,,,,,,,,,2,n,0.9327,0,1,4.5673,1.5,,,,,,26.16821818,0,0.093528069,,,,,,,,,,,,,0,87,87,42,1,0.901022427,0,,,,,,,,,,,,,,,,,,,,,,,,,,,,,,,,,,,,,,,,,,,,,,,,,,,,,,,,,,,,,,,,,,,,,,,,,,,,,,,,
,,5f0b72abf1f9950dce8c0f1e,2022-09-08_13h10.05.929,CGTgamblingSpanTasks,2022.2.1,Win32,164.2845408,,,,,,,,2.9119,,,,,,,,,,,,,,2,v,1.0881,7.50753835,0,3.9119,1,,,,,,2.231316635,0,7.50753835,,,,,,,,,,,,,0,88,88,29,1,0.010273427,0,,,,,,,,,,,,,,,,,,,,,,,,,,,,,,,,,,,,,,,,,,,,,,,,,,,,,,,,,,,,,,,,,,,,,,,,,,,,,,,,
,,5f0b72abf1f9950dce8c0f1e,2022-09-08_13h10.05.929,CGTgamblingSpanTasks,2022.2.1,Win32,164.2845408,,,,,,,,2.7333,,,,,,,,,,,,,,2,n,1.2667,14.3363647,1,4.2333,1.5,,,,,,14.3363647,0,1.396635362,,,,,,,,,,,,,0,89,89,78,1,0.504775474,1,,,,,,,,,,,,,,,,,,,,,,,,,,,,,,,,,,,,,,,,,,,,,,,,,,,,,,,,,,,,,,,,,,,,,,,,,,,,,,,,
,,5f0b72abf1f9950dce8c0f1e,2022-09-08_13h10.05.929,CGTgamblingSpanTasks,2022.2.1,Win32,164.2845408,,,,,,,,1.95,,,,,,,,,,,,,,1,n,2.05,8.42547829,0,2.95,1,,,,,,15.87668502,0,8.42547829,,,,,,,,,,,,,0,90,90,56,1,0.092099462,0,,,,,,,,,,,,,,,,,,,,,,,,,,,,,,,,,,,,,,,,,,,,,,,,,,,,,,,,,,,,,,,,,,,,,,,,,,,,,,,,
,,5f0b72abf1f9950dce8c0f1e,2022-09-08_13h10.05.929,CGTgamblingSpanTasks,2022.2.1,Win32,164.2845408,,,,,,,,3.0158,,,,,,,,,,,,,,1,v,0.9842,0,1,4.5158,1.5,,,,,,29.77342428,0,2.838865588,,,,,,,,,,,,,0,91,91,57,1,0.510363415,1,,,,,,,,,,,,,,,,,,,,,,,,,,,,,,,,,,,,,,,,,,,,,,,,,,,,,,,,,,,,,,,,,,,,,,,,,,,,,,,,
,,5f0b72abf1f9950dce8c0f1e,2022-09-08_13h10.05.929,CGTgamblingSpanTasks,2022.2.1,Win32,164.2845408,,,,,,,,3.0149,,,,,,,,,,,,,,1,v,0.9851,17.4320197,1,4.0149,1,,,,,,17.4320197,0,1.448620949,,,,,,,,,,,,,0,92,92,30,1,0.545178213,1,,,,,,,,,,,,,,,,,,,,,,,,,,,,,,,,,,,,,,,,,,,,,,,,,,,,,,,,,,,,,,,,,,,,,,,,,,,,,,,,
,,5f0b72abf1f9950dce8c0f1e,2022-09-08_13h10.05.929,CGTgamblingSpanTasks,2022.2.1,Win32,164.2845408,,,,,,,,2.987,,,,,,,,,,,,,,2,n,1.013,0,1,3.987,1,,,,,,27.88092897,0,2.771762788,,,,,,,,,,,,,0,93,93,117,1,0.499466648,1,,,,,,,,,,,,,,,,,,,,,,,,,,,,,,,,,,,,,,,,,,,,,,,,,,,,,,,,,,,,,,,,,,,,,,,,,,,,,,,,
,,5f0b72abf1f9950dce8c0f1e,2022-09-08_13h10.05.929,CGTgamblingSpanTasks,2022.2.1,Win32,164.2845408,,,,,,,,3.1665,,,,,,,,,,,,,,2,n,0.8335,0,1,4.1665,1,,,,,,21.16780451,0,2.469465385,,,,,,,,,,,,,0,94,94,32,1,0.456531699,1,,,,,,,,,,,,,,,,,,,,,,,,,,,,,,,,,,,,,,,,,,,,,,,,,,,,,,,,,,,,,,,,,,,,,,,,,,,,,,,,
,,5f0b72abf1f9950dce8c0f1e,2022-09-08_13h10.05.929,CGTgamblingSpanTasks,2022.2.1,Win32,164.2845408,,,,,,,,2.8998,,,,,,,,,,,,,,1,v,1.1002,21.48443242,1,3.8998,1,,,,,,21.48443242,0,2.229247341,,,,,,,,,,,,,0,95,95,63,1,0.488155912,1,,,,,,,,,,,,,,,,,,,,,,,,,,,,,,,,,,,,,,,,,,,,,,,,,,,,,,,,,,,,,,,,,,,,,,,,,,,,,,,,
,,5f0b72abf1f9950dce8c0f1e,2022-09-08_13h10.05.929,CGTgamblingSpanTasks,2022.2.1,Win32,164.2845408,,,,,,,,2.7324,,,,,,,,,,,,,,1,n,1.2676,4.462262453,0,3.7324,1,,,,,,0.192759042,0,4.462262453,,,,,,,,,,,,,0,96,96,52,1,0.003553223,0,,,,,,,,,,,,,,,,,,,,,,,,,,,,,,,,,,,,,,,,,,,,,,,,,,,,,,,,,,,,,,,,,,,,,,,,,,,,,,,,
,,5f0b72abf1f9950dce8c0f1e,2022-09-08_13h10.05.929,CGTgamblingSpanTasks,2022.2.1,Win32,164.2845408,,,,,,,,3.1334,,,,,,,,,,,,,,1,v,0.8666,0,1,4.6334,1.5,,,,,,27.93093084,0,0.050207531,,,,,,,,,,,,,0,97,97,83,1,0.920505936,0,,,,,,,,,,,,,,,,,,,,,,,,,,,,,,,,,,,,,,,,,,,,,,,,,,,,,,,,,,,,,,,,,,,,,,,,,,,,,,,,
,,5f0b72abf1f9950dce8c0f1e,2022-09-08_13h10.05.929,CGTgamblingSpanTasks,2022.2.1,Win32,164.2845408,,,,,,,,2.9031,,,,,,,,,,,,,,2,n,1.0969,21.00799273,1,4.4031,1.5,,,,,,21.00799273,0,0.067969053,,,,,,,,,,,,,0,98,98,92,1,0.904360262,0,,,,,,,,,,,,,,,,,,,,,,,,,,,,,,,,,,,,,,,,,,,,,,,,,,,,,,,,,,,,,,,,,,,,,,,,,,,,,,,,
,,5f0b72abf1f9950dce8c0f1e,2022-09-08_13h10.05.929,CGTgamblingSpanTasks,2022.2.1,Win32,164.2845408,,,,,,,,2.5521,,,,,,,,,,,,,,1,n,1.4479,10.3417501,0,4.0521,1.5,,,,,,15.21435748,0,10.3417501,,,,,,,,,,,,,0,99,99,72,1,0.060969226,0,,,,,,,,,,,,,,,,,,,,,,,,,,,,,,,,,,,,,,,,,,,,,,,,,,,,,,,,,,,,,,,,,,,,,,,,,,,,,,,,
,,5f0b72abf1f9950dce8c0f1e,2022-09-08_13h10.05.929,CGTgamblingSpanTasks,2022.2.1,Win32,164.2845408,,,,,,,,2.916,,,,,,,,,,,,,,2,n,1.084,0,1,3.916,1,,,,,,9.012590634,0,1.002188111,,,,,,,,,,,,,0,100,100,12,1,0.46958041,1,,,,,,,,,,,,,,,,,,,,,,,,,,,,,,,,,,,,,,,,,,,,,,,,,,,,,,,,,,,,,,,,,,,,,,,,,,,,,,,,
,,5f0b72abf1f9950dce8c0f1e,2022-09-08_13h10.05.929,CGTgamblingSpanTasks,2022.2.1,Win32,164.2845408,,,,,,,,2.633,,,,,,,,,,,,,,2,n,1.367,28.9381277,1,3.633,1,,,,,,28.9381277,0,2.663622024,,,,,,,,,,,,,0,101,101,103,1,0.519453367,1,,,,,,,,,,,,,,,,,,,,,,,,,,,,,,,,,,,,,,,,,,,,,,,,,,,,,,,,,,,,,,,,,,,,,,,,,,,,,,,,
,,5f0b72abf1f9950dce8c0f1e,2022-09-08_13h10.05.929,CGTgamblingSpanTasks,2022.2.1,Win32,164.2845408,,,,,,,,3.2482,,,,,,,,,,,,,,2,n,0.7518,0,1,4.2482,1,,,,,,22.87092517,0,0.059276504,,,,,,,,,,,,,0,102,102,27,1,0.911114935,0,,,,,,,,,,,,,,,,,,,,,,,,,,,,,,,,,,,,,,,,,,,,,,,,,,,,,,,,,,,,,,,,,,,,,,,,,,,,,,,,
,,5f0b72abf1f9950dce8c0f1e,2022-09-08_13h10.05.929,CGTgamblingSpanTasks,2022.2.1,Win32,164.2845408,,,,,,,,2.4999,,,,,,,,,,,,,,2,v,1.5001,10.31611309,0,3.9999,1.5,,,,,,19.30622782,0,10.31611309,,,,,,,,,,,,,0,103,103,1,1,0.091105656,0,,,,,,,,,,,,,,,,,,,,,,,,,,,,,,,,,,,,,,,,,,,,,,,,,,,,,,,,,,,,,,,,,,,,,,,,,,,,,,,,
,,5f0b72abf1f9950dce8c0f1e,2022-09-08_13h10.05.929,CGTgamblingSpanTasks,2022.2.1,Win32,164.2845408,,,,,,,,2.9829,,,,,,,,,,,,,,2,n,1.0171,15.73000491,1,3.9829,1,,,,,,15.73000491,0,8.830252162,,,,,,,,,,,,,0,104,104,95,1,0.084193143,0,,,,,,,,,,,,,,,,,,,,,,,,,,,,,,,,,,,,,,,,,,,,,,,,,,,,,,,,,,,,,,,,,,,,,,,,,,,,,,,,
,,5f0b72abf1f9950dce8c0f1e,2022-09-08_13h10.05.929,CGTgamblingSpanTasks,2022.2.1,Win32,164.2845408,,,,,,,,3.016,,,,,,,,,,,,,,2,n,0.984,0,1,4.516,1.5,,,,,,25.0707644,0,0.067651625,,,,,,,,,,,,,0,105,105,70,1,0.909952349,0,,,,,,,,,,,,,,,,,,,,,,,,,,,,,,,,,,,,,,,,,,,,,,,,,,,,,,,,,,,,,,,,,,,,,,,,,,,,,,,,
,,5f0b72abf1f9950dce8c0f1e,2022-09-08_13h10.05.929,CGTgamblingSpanTasks,2022.2.1,Win32,164.2845408,,,,,,,,2.7528,,,,,,,,,,,,,,2,n,1.2472,0,1,3.7528,1,,,,,,13.84410806,0,1.535873964,,,,,,,,,,,,,0,106,106,88,1,0.470209002,1,,,,,,,,,,,,,,,,,,,,,,,,,,,,,,,,,,,,,,,,,,,,,,,,,,,,,,,,,,,,,,,,,,,,,,,,,,,,,,,,
,,5f0b72abf1f9950dce8c0f1e,2022-09-08_13h10.05.929,CGTgamblingSpanTasks,2022.2.1,Win32,164.2845408,,,,,,,,2.9025,,,,,,,,,,,,,,2,n,1.0975,8.217594828,1,4.4025,1.5,,,,,,8.217594828,0,0.951019374,,,,,,,,,,,,,0,107,107,87,1,0.458722936,1,,,,,,,,,,,,,,,,,,,,,,,,,,,,,,,,,,,,,,,,,,,,,,,,,,,,,,,,,,,,,,,,,,,,,,,,,,,,,,,,
,,5f0b72abf1f9950dce8c0f1e,2022-09-08_13h10.05.929,CGTgamblingSpanTasks,2022.2.1,Win32,164.2845408,,,,,,,,1.7359,,,,,,,,,,,,,,1,n,2.2641,6.833409611,0,2.7359,1,,,,,,6.325091157,0,6.833409611,,,,,,,,,,,,,0,108,108,58,1,0.027113638,0,,,,,,,,,,,,,,,,,,,,,,,,,,,,,,,,,,,,,,,,,,,,,,,,,,,,,,,,,,,,,,,,,,,,,,,,,,,,,,,,
,,5f0b72abf1f9950dce8c0f1e,2022-09-08_13h10.05.929,CGTgamblingSpanTasks,2022.2.1,Win32,164.2845408,,,,,,,,2.8503,,,,,,,,,,,,,,1,v,1.1497,0,1,4.3503,1.5,,,,,,19.5450126,0,2.123581464,,,,,,,,,,,,,0,109,109,65,1,0.475836144,1,,,,,,,,,,,,,,,,,,,,,,,,,,,,,,,,,,,,,,,,,,,,,,,,,,,,,,,,,,,,,,,,,,,,,,,,,,,,,,,,
,,5f0b72abf1f9950dce8c0f1e,2022-09-08_13h10.05.929,CGTgamblingSpanTasks,2022.2.1,Win32,164.2845408,,,,,,,,2.95,,,,,,,,,,,,,,2,n,1.05,0,1,3.95,1,,,,,,18.51345298,0,1.932334278,,,,,,,,,,,,,0,110,110,31,1,0.48658696,1,,,,,,,,,,,,,,,,,,,,,,,,,,,,,,,,,,,,,,,,,,,,,,,,,,,,,,,,,,,,,,,,,,,,,,,,,,,,,,,,
,,5f0b72abf1f9950dce8c0f1e,2022-09-08_13h10.05.929,CGTgamblingSpanTasks,2022.2.1,Win32,164.2845408,,,,,,,,3.0858,,,,,,,,,,,,,,2,n,0.9142,27.7711693,1,4.0858,1,,,,,,27.7711693,0,2.320849632,,,,,,,,,,,,,0,111,111,94,1,0.543786368,1,,,,,,,,,,,,,,,,,,,,,,,,,,,,,,,,,,,,,,,,,,,,,,,,,,,,,,,,,,,,,,,,,,,,,,,,,,,,,,,,
,,5f0b72abf1f9950dce8c0f1e,2022-09-08_13h10.05.929,CGTgamblingSpanTasks,2022.2.1,Win32,164.2845408,,,,,,,,3.0491,,,,,,,,,,,,,,2,n,0.9509,0,1,4.0491,1,,,,,,28.68598705,0,0.050674956,,,,,,,,,,,,,0,112,112,62,1,0.920905497,0,,,,,,,,,,,,,,,,,,,,,,,,,,,,,,,,,,,,,,,,,,,,,,,,,,,,,,,,,,,,,,,,,,,,,,,,,,,,,,,,
,,5f0b72abf1f9950dce8c0f1e,2022-09-08_13h10.05.929,CGTgamblingSpanTasks,2022.2.1,Win32,164.2845408,,,,,,,,3.034,,,,,,,,,,,,,,2,n,0.966,0,1,4.534,1.5,,,,,,25.56803059,0,2.543951743,,,,,,,,,,,,,0,113,113,41,1,0.499247217,1,,,,,,,,,,,,,,,,,,,,,,,,,,,,,,,,,,,,,,,,,,,,,,,,,,,,,,,,,,,,,,,,,,,,,,,,,,,,,,,,
,,5f0b72abf1f9950dce8c0f1e,2022-09-08_13h10.05.929,CGTgamblingSpanTasks,2022.2.1,Win32,164.2845408,,,,,,,,2.8527,,,,,,,,,,,,,,1,v,1.1473,24.8002852,1,4.3527,1.5,,,,,,24.8002852,0,0.071848086,,,,,,,,,,,,,0,114,114,16,1,0.90783559,0,,,,,,,,,,,,,,,,,,,,,,,,,,,,,,,,,,,,,,,,,,,,,,,,,,,,,,,,,,,,,,,,,,,,,,,,,,,,,,,,
,,5f0b72abf1f9950dce8c0f1e,2022-09-08_13h10.05.929,CGTgamblingSpanTasks,2022.2.1,Win32,164.2845408,,,,,,,,2.9498,,,,,,,,,,,,,,1,v,1.0502,17.92584289,1,3.9498,1,,,,,,17.92584289,0,1.878232496,,,,,,,,,,,,,0,115,115,5,1,0.485559263,1,,,,,,,,,,,,,,,,,,,,,,,,,,,,,,,,,,,,,,,,,,,,,,,,,,,,,,,,,,,,,,,,,,,,,,,,,,,,,,,,
,,5f0b72abf1f9950dce8c0f1e,2022-09-08_13h10.05.929,CGTgamblingSpanTasks,2022.2.1,Win32,164.2845408,,,,,,,,3.066,,,,,,,,,,,,,,1,v,0.934,0,1,4.066,1,,,,,,17.30137174,0,1.716380842,,,,,,,,,,,,,0,116,116,20,1,0.500020285,1,,,,,,,,,,,,,,,,,,,,,,,,,,,,,,,,,,,,,,,,,,,,,,,,,,,,,,,,,,,,,,,,,,,,,,,,,,,,,,,,
,,5f0b72abf1f9950dce8c0f1e,2022-09-08_13h10.05.929,CGTgamblingSpanTasks,2022.2.1,Win32,164.2845408,,,,,,,,3.2163,,,,,,,,,,,,,,1,v,0.7837,18.50662664,1,4.2163,1,,,,,,18.50662664,0,0.052546026,,,,,,,,,,,,,0,117,117,112,1,0.908444837,0,,,,,,,,,,,,,,,,,,,,,,,,,,,,,,,,,,,,,,,,,,,,,,,,,,,,,,,,,,,,,,,,,,,,,,,,,,,,,,,,
,,5f0b72abf1f9950dce8c0f1e,2022-09-08_13h10.05.929,CGTgamblingSpanTasks,2022.2.1,Win32,164.2845408,,,,,,,,3.1026,,,,,,,,,,,,,,1,v,0.8974,27.60724521,1,4.1026,1,,,,,,27.60724521,0,0.088432325,,,,,,,,,,,,,0,118,118,17,1,0.904684186,0,,,,,,,,,,,,,,,,,,,,,,,,,,,,,,,,,,,,,,,,,,,,,,,,,,,,,,,,,,,,,,,,,,,,,,,,,,,,,,,,
,,5f0b72abf1f9950dce8c0f1e,2022-09-08_13h10.05.929,CGTgamblingSpanTasks,2022.2.1,Win32,164.2845408,,,,,,,,2.6999,,,,,,,,,,,,,,1,v,1.3001,0,1,4.1999,1.5,,,,,,21.39646914,0,0.072474078,,,,,,,,,,,,,0,119,119,3,1,0.902848133,0,,,,,,,,,,,,,,,,,,,,,,,,,,,,,,,,,,,,,,,,,,,,,,,,,,,,,,,,,,,,,,,,,,,,,,,,,,,,,,,,
,,5f0b72abf1f9950dce8c0f1e,2022-09-08_13h10.05.929,CGTgamblingSpanTasks,2022.2.1,Win32,164.2845408,,,,,,,,,,,,,,,,,,,,,,,,,,,,,,,,,,,,,,,,,,,,,,,,,,,,,,,,return,53.7166,,,,,,,,,,,,,,,,,,,,,,,,,,,,,,,,,,,,,,,,,,,,,,,,,,,,,,,,,,,,,,,,,,,,,,,,,,,,,,
,,5f0b72abf1f9950dce8c0f1e,2022-09-08_13h10.05.929,CGTgamblingSpanTasks,2022.2.1,Win32,164.2845408,,,,,,,,,,,,,,,,,,,,,,,,,,,,,,,,,,,,,,,,,,,,,,,,,,,,,,,,,,return,17.3424,,,,,,,,,,,,,,,,,,,,,,,,,,,,,,,,,,,,,,,,,,,,,,,,,,,,,,,,,,,,,,,,,,,,,,,,,,,,
,,5f0b72abf1f9950dce8c0f1e,2022-09-08_13h10.05.929,CGTgamblingSpanTasks,2022.2.1,Win32,164.2845408,,,,,,,,,,,,,,,,,,,,,,,,,,,,,,,,,,,,,,,,,,,,,,,,,,,,,,,,,,,,return,14.6497,,,,,,,,,,,,,,,,,,,,,,,,,,,,,,,,,,,,,,,,,,,,,,,,,,,,,,,,,,,,,,,,,,,,,,,,,,
,,5f0b72abf1f9950dce8c0f1e,2022-09-08_13h10.05.929,CGTgamblingSpanTasks,2022.2.1,Win32,164.2845408,,,,,,,,,,,,,,,,,,,,,,,,,,,,,,,,,,,,,,,,,,,,,,,,,,,,,,,,,,,,,,342,1,0.066666667,-0.407407407,1,0,0,cont_buttonPractice,0,0,0,0,1,3,342,24,2,42,,,,,,,,,,,,,,,,,,,,,,,,,,,,,,,,,,,,,,,,,,,,,,,,,,,,,,,,
,,5f0b72abf1f9950dce8c0f1e,2022-09-08_13h10.05.929,CGTgamblingSpanTasks,2022.2.1,Win32,164.2845408,,,,,,,,,,,,,,,,,,,,,,,,,,,,,,,,,,,,,,,,,,,,,,,,,,,,,,,,,,,,,,7,0,0.00462963,-0.39537037,1,0,0,cont_buttonPractice,0,1,1,1,1,3,937,73,2,37,,,,,,,,,,,,,,,,,,,,,,,,,,,,,,,,,,,,,,,,,,,,,,,,,,,,,,,,
,,5f0b72abf1f9950dce8c0f1e,2022-09-08_13h10.05.929,CGTgamblingSpanTasks,2022.2.1,Win32,164.2845408,,,,,,,,,,,,,,,,,,,,,,,,,,,,,,,,,,,,,,,,,,,,,,,,,,,,,,,,,,,,,,,,,,,,,,,,,,,,,,,,return,10.5584,,,,,,,,,,,,,,,,,,,,,,,,,,,,,,,,,,,,,,,,,,,,,,,,,,,,,,
,,5f0b72abf1f9950dce8c0f1e,2022-09-08_13h10.05.929,CGTgamblingSpanTasks,2022.2.1,Win32,164.2845408,,,,,,,,,,,,,,,,,,,,,,,,,,,,,,,,,,,,,,,,,,,,,,,,,,,,,,,,,,,,,,,,,,,,,,,,,,,,,,,,,,"[6,4,3]",0,0,0,0,1,,,,,,,,,,,,,,,,,,,,,,,,,,,,,,,,,,,,,,,,,,,,,,,,
,,5f0b72abf1f9950dce8c0f1e,2022-09-08_13h10.05.929,CGTgamblingSpanTasks,2022.2.1,Win32,164.2845408,,,,,,,,,,,,,,,,,,,,,,,,,,,,,,,,,,,,,,,,,,,,,,,,,,,,,,,,,,,,,,,,,,,,,,,,,,,,,,,,,,"[6,4,3]",1,0,1,0,1,,,,,,,,,,,,,,,,,,,,,,,,,,,,,,,,,,,,,,,,,,,,,,,,
,,5f0b72abf1f9950dce8c0f1e,2022-09-08_13h10.05.929,CGTgamblingSpanTasks,2022.2.1,Win32,164.2845408,,,,,,,,,,,,,,,,,,,,,,,,,,,,,,,,,,,,,,,,,,,,,,,,,,,,,,,,,,,,,,,,,,,,,,,,,,,,,,,,,,"[6,4,3]",2,0,2,0,1,,,,,,,,,,,,,,,,,,,,,,,,,,,,,,,,,,,,,,,,,,,,,,,,
,,5f0b72abf1f9950dce8c0f1e,2022-09-08_13h10.05.929,CGTgamblingSpanTasks,2022.2.1,Win32,164.2845408,,,,,,,,,,,,,,,,,,,,,,,,,,,,,,,,,,,,,,,,,,,,,,,,,,,,,,,,,,,,,,,1,,,,,,,,,,,,,,,,,,,,,,,,,643,-0.000925926,-0.418518519,1,0,0,cont_button,0,0,0,0,1,1,,,,,,,,,,,,,,,,,,,,,,,,,,,,,,,,,,,
,,5f0b72abf1f9950dce8c0f1e,2022-09-08_13h10.05.929,CGTgamblingSpanTasks,2022.2.1,Win32,164.2845408,,,,,,,,,,,,,,,,,,,,,,,,,,,,,,,,,,,,,,,,,,,,,,,,,,,,,,,,,,,,,,,,,,,,,,,,,,,,,,,,,,"[2,7,6,1]",0,0,0,0,1,,,,,,,,,,,,,,,,,,,,,,,,,,,,,,,,,,,,,,,,,,,,,,,,
,,5f0b72abf1f9950dce8c0f1e,2022-09-08_13h10.05.929,CGTgamblingSpanTasks,2022.2.1,Win32,164.2845408,,,,,,,,,,,,,,,,,,,,,,,,,,,,,,,,,,,,,,,,,,,,,,,,,,,,,,,,,,,,,,,,,,,,,,,,,,,,,,,,,,"[2,7,6,1]",1,0,1,0,1,,,,,,,,,,,,,,,,,,,,,,,,,,,,,,,,,,,,,,,,,,,,,,,,
,,5f0b72abf1f9950dce8c0f1e,2022-09-08_13h10.05.929,CGTgamblingSpanTasks,2022.2.1,Win32,164.2845408,,,,,,,,,,,,,,,,,,,,,,,,,,,,,,,,,,,,,,,,,,,,,,,,,,,,,,,,,,,,,,,,,,,,,,,,,,,,,,,,,,"[2,7,6,1]",2,0,2,0,1,,,,,,,,,,,,,,,,,,,,,,,,,,,,,,,,,,,,,,,,,,,,,,,,
,,5f0b72abf1f9950dce8c0f1e,2022-09-08_13h10.05.929,CGTgamblingSpanTasks,2022.2.1,Win32,164.2845408,,,,,,,,,,,,,,,,,,,,,,,,,,,,,,,,,,,,,,,,,,,,,,,,,,,,,,,,,,,,,,,,,,,,,,,,,,,,,,,,,,"[2,7,6,1]",3,0,3,0,1,,,,,,,,,,,,,,,,,,,,,,,,,,,,,,,,,,,,,,,,,,,,,,,,
,,5f0b72abf1f9950dce8c0f1e,2022-09-08_13h10.05.929,CGTgamblingSpanTasks,2022.2.1,Win32,164.2845408,,,,,,,,,,,,,,,,,,,,,,,,,,,,,,,,,,,,,,,,,,,,,,,,,,,,,,,,,,,,,,,1,,,,,,,,,,,,,,,,,,,,,,,,,2761,-0.037037037,-0.387962963,1,0,0,cont_button,0,1,1,1,1,2,,,,,,,,,,,,,,,,,,,,,,,,,,,,,,,,,,,
,,5f0b72abf1f9950dce8c0f1e,2022-09-08_13h10.05.929,CGTgamblingSpanTasks,2022.2.1,Win32,164.2845408,,,,,,,,,,,,,,,,,,,,,,,,,,,,,,,,,,,,,,,,,,,,,,,,,,,,,,,,,,,,,,,,,,,,,,,,,,,,,,,,,,"[7,4,6,9,3]",0,0,0,0,1,,,,,,,,,,,,,,,,,,,,,,,,,,,,,,,,,,,,,,,,,,,,,,,,
,,5f0b72abf1f9950dce8c0f1e,2022-09-08_13h10.05.929,CGTgamblingSpanTasks,2022.2.1,Win32,164.2845408,,,,,,,,,,,,,,,,,,,,,,,,,,,,,,,,,,,,,,,,,,,,,,,,,,,,,,,,,,,,,,,,,,,,,,,,,,,,,,,,,,"[7,4,6,9,3]",1,0,1,0,1,,,,,,,,,,,,,,,,,,,,,,,,,,,,,,,,,,,,,,,,,,,,,,,,
,,5f0b72abf1f9950dce8c0f1e,2022-09-08_13h10.05.929,CGTgamblingSpanTasks,2022.2.1,Win32,164.2845408,,,,,,,,,,,,,,,,,,,,,,,,,,,,,,,,,,,,,,,,,,,,,,,,,,,,,,,,,,,,,,,,,,,,,,,,,,,,,,,,,,"[7,4,6,9,3]",2,0,2,0,1,,,,,,,,,,,,,,,,,,,,,,,,,,,,,,,,,,,,,,,,,,,,,,,,
,,5f0b72abf1f9950dce8c0f1e,2022-09-08_13h10.05.929,CGTgamblingSpanTasks,2022.2.1,Win32,164.2845408,,,,,,,,,,,,,,,,,,,,,,,,,,,,,,,,,,,,,,,,,,,,,,,,,,,,,,,,,,,,,,,,,,,,,,,,,,,,,,,,,,"[7,4,6,9,3]",3,0,3,0,1,,,,,,,,,,,,,,,,,,,,,,,,,,,,,,,,,,,,,,,,,,,,,,,,
,,5f0b72abf1f9950dce8c0f1e,2022-09-08_13h10.05.929,CGTgamblingSpanTasks,2022.2.1,Win32,164.2845408,,,,,,,,,,,,,,,,,,,,,,,,,,,,,,,,,,,,,,,,,,,,,,,,,,,,,,,,,,,,,,,,,,,,,,,,,,,,,,,,,,"[7,4,6,9,3]",4,0,4,0,1,,,,,,,,,,,,,,,,,,,,,,,,,,,,,,,,,,,,,,,,,,,,,,,,
,,5f0b72abf1f9950dce8c0f1e,2022-09-08_13h10.05.929,CGTgamblingSpanTasks,2022.2.1,Win32,164.2845408,,,,,,,,,,,,,,,,,,,,,,,,,,,,,,,,,,,,,,,,,,,,,,,,,,,,,,,,,,,,,,,1,,,,,,,,,,,,,,,,,,,,,,,,,74693,0.000925926,-0.397222222,1,0,0,cont_button,0,2,2,2,1,3,,,,,,,,,,,,,,,,,,,,,,,,,,,,,,,,,,,
,,5f0b72abf1f9950dce8c0f1e,2022-09-08_13h10.05.929,CGTgamblingSpanTasks,2022.2.1,Win32,164.2845408,,,,,,,,,,,,,,,,,,,,,,,,,,,,,,,,,,,,,,,,,,,,,,,,,,,,,,,,,,,,,,,,,,,,,,,,,,,,,,,,,,"[6,3,2,7,8,4]",0,0,0,0,1,,,,,,,,,,,,,,,,,,,,,,,,,,,,,,,,,,,,,,,,,,,,,,,,
,,5f0b72abf1f9950dce8c0f1e,2022-09-08_13h10.05.929,CGTgamblingSpanTasks,2022.2.1,Win32,164.2845408,,,,,,,,,,,,,,,,,,,,,,,,,,,,,,,,,,,,,,,,,,,,,,,,,,,,,,,,,,,,,,,,,,,,,,,,,,,,,,,,,,"[6,3,2,7,8,4]",1,0,1,0,1,,,,,,,,,,,,,,,,,,,,,,,,,,,,,,,,,,,,,,,,,,,,,,,,
,,5f0b72abf1f9950dce8c0f1e,2022-09-08_13h10.05.929,CGTgamblingSpanTasks,2022.2.1,Win32,164.2845408,,,,,,,,,,,,,,,,,,,,,,,,,,,,,,,,,,,,,,,,,,,,,,,,,,,,,,,,,,,,,,,,,,,,,,,,,,,,,,,,,,"[6,3,2,7,8,4]",2,0,2,0,1,,,,,,,,,,,,,,,,,,,,,,,,,,,,,,,,,,,,,,,,,,,,,,,,
,,5f0b72abf1f9950dce8c0f1e,2022-09-08_13h10.05.929,CGTgamblingSpanTasks,2022.2.1,Win32,164.2845408,,,,,,,,,,,,,,,,,,,,,,,,,,,,,,,,,,,,,,,,,,,,,,,,,,,,,,,,,,,,,,,,,,,,,,,,,,,,,,,,,,"[6,3,2,7,8,4]",3,0,3,0,1,,,,,,,,,,,,,,,,,,,,,,,,,,,,,,,,,,,,,,,,,,,,,,,,
,,5f0b72abf1f9950dce8c0f1e,2022-09-08_13h10.05.929,CGTgamblingSpanTasks,2022.2.1,Win32,164.2845408,,,,,,,,,,,,,,,,,,,,,,,,,,,,,,,,,,,,,,,,,,,,,,,,,,,,,,,,,,,,,,,,,,,,,,,,,,,,,,,,,,"[6,3,2,7,8,4]",4,0,4,0,1,,,,,,,,,,,,,,,,,,,,,,,,,,,,,,,,,,,,,,,,,,,,,,,,
,,5f0b72abf1f9950dce8c0f1e,2022-09-08_13h10.05.929,CGTgamblingSpanTasks,2022.2.1,Win32,164.2845408,,,,,,,,,,,,,,,,,,,,,,,,,,,,,,,,,,,,,,,,,,,,,,,,,,,,,,,,,,,,,,,,,,,,,,,,,,,,,,,,,,"[6,3,2,7,8,4]",5,0,5,0,1,,,,,,,,,,,,,,,,,,,,,,,,,,,,,,,,,,,,,,,,,,,,,,,,
,,5f0b72abf1f9950dce8c0f1e,2022-09-08_13h10.05.929,CGTgamblingSpanTasks,2022.2.1,Win32,164.2845408,,,,,,,,,,,,,,,,,,,,,,,,,,,,,,,,,,,,,,,,,,,,,,,,,,,,,,,,,,,,,,,0,,,,,,,,,,,,,,,,,,,,,,,,,623784,-0.009259259,-0.405555556,1,0,0,cont_button,0,3,3,3,1,4,,,,,,,,,,,,,,,,,,,,,,,,,,,,,,,,,,,
,,5f0b72abf1f9950dce8c0f1e,2022-09-08_13h10.05.929,CGTgamblingSpanTasks,2022.2.1,Win32,164.2845408,,,,,,,,,,,,,,,,,,,,,,,,,,,,,,,,,,,,,,,,,,,,,,,,,,,,,,,,,,,,,,,,,,,,,,,,,,,,,,,,,,"[5,3,7,9,1,6]",0,0,0,0,1,,,,,,,,,,,,,,,,,,,,,,,,,,,,,,,,,,,,,,,,,,,,,,,,
,,5f0b72abf1f9950dce8c0f1e,2022-09-08_13h10.05.929,CGTgamblingSpanTasks,2022.2.1,Win32,164.2845408,,,,,,,,,,,,,,,,,,,,,,,,,,,,,,,,,,,,,,,,,,,,,,,,,,,,,,,,,,,,,,,,,,,,,,,,,,,,,,,,,,"[5,3,7,9,1,6]",1,0,1,0,1,,,,,,,,,,,,,,,,,,,,,,,,,,,,,,,,,,,,,,,,,,,,,,,,
,,5f0b72abf1f9950dce8c0f1e,2022-09-08_13h10.05.929,CGTgamblingSpanTasks,2022.2.1,Win32,164.2845408,,,,,,,,,,,,,,,,,,,,,,,,,,,,,,,,,,,,,,,,,,,,,,,,,,,,,,,,,,,,,,,,,,,,,,,,,,,,,,,,,,"[5,3,7,9,1,6]",2,0,2,0,1,,,,,,,,,,,,,,,,,,,,,,,,,,,,,,,,,,,,,,,,,,,,,,,,
,,5f0b72abf1f9950dce8c0f1e,2022-09-08_13h10.05.929,CGTgamblingSpanTasks,2022.2.1,Win32,164.2845408,,,,,,,,,,,,,,,,,,,,,,,,,,,,,,,,,,,,,,,,,,,,,,,,,,,,,,,,,,,,,,,,,,,,,,,,,,,,,,,,,,"[5,3,7,9,1,6]",3,0,3,0,1,,,,,,,,,,,,,,,,,,,,,,,,,,,,,,,,,,,,,,,,,,,,,,,,
,,5f0b72abf1f9950dce8c0f1e,2022-09-08_13h10.05.929,CGTgamblingSpanTasks,2022.2.1,Win32,164.2845408,,,,,,,,,,,,,,,,,,,,,,,,,,,,,,,,,,,,,,,,,,,,,,,,,,,,,,,,,,,,,,,,,,,,,,,,,,,,,,,,,,"[5,3,7,9,1,6]",4,0,4,0,1,,,,,,,,,,,,,,,,,,,,,,,,,,,,,,,,,,,,,,,,,,,,,,,,
,,5f0b72abf1f9950dce8c0f1e,2022-09-08_13h10.05.929,CGTgamblingSpanTasks,2022.2.1,Win32,164.2845408,,,,,,,,,,,,,,,,,,,,,,,,,,,,,,,,,,,,,,,,,,,,,,,,,,,,,,,,,,,,,,,,,,,,,,,,,,,,,,,,,,"[5,3,7,9,1,6]",5,0,5,0,1,,,,,,,,,,,,,,,,,,,,,,,,,,,,,,,,,,,,,,,,,,,,,,,,
,,5f0b72abf1f9950dce8c0f1e,2022-09-08_13h10.05.929,CGTgamblingSpanTasks,2022.2.1,Win32,164.2845408,,,,,,,,,,,,,,,,,,,,,,,,,,,,,,,,,,,,,,,,,,,,,,,,,,,,,,,,,,,,,,,0,,,,,,,,,,,,,,,,,,,,,,,,,537196,-0.001851852,-0.405555556,1,0,0,cont_button,0,4,4,4,1,5,,,,,,,,,,,,,,,,,,,,,,,,,,,,,,,,,,,
,,5f0b72abf1f9950dce8c0f1e,2022-09-08_13h10.05.929,CGTgamblingSpanTasks,2022.2.1,Win32,164.2845408,,,,,,,,,,,,,,,,,,,,,,,,,,,,,,,,,,,,,,,,,,,,,,,,,,,,,,,,,,,,,,,,,,,,,,,,,,,,,,,,,,"[7,9,3,8,6]",0,0,0,0,1,,,,,,,,,,,,,,,,,,,,,,,,,,,,,,,,,,,,,,,,,,,,,,,,
,,5f0b72abf1f9950dce8c0f1e,2022-09-08_13h10.05.929,CGTgamblingSpanTasks,2022.2.1,Win32,164.2845408,,,,,,,,,,,,,,,,,,,,,,,,,,,,,,,,,,,,,,,,,,,,,,,,,,,,,,,,,,,,,,,,,,,,,,,,,,,,,,,,,,"[7,9,3,8,6]",1,0,1,0,1,,,,,,,,,,,,,,,,,,,,,,,,,,,,,,,,,,,,,,,,,,,,,,,,
,,5f0b72abf1f9950dce8c0f1e,2022-09-08_13h10.05.929,CGTgamblingSpanTasks,2022.2.1,Win32,164.2845408,,,,,,,,,,,,,,,,,,,,,,,,,,,,,,,,,,,,,,,,,,,,,,,,,,,,,,,,,,,,,,,,,,,,,,,,,,,,,,,,,,"[7,9,3,8,6]",2,0,2,0,1,,,,,,,,,,,,,,,,,,,,,,,,,,,,,,,,,,,,,,,,,,,,,,,,
,,5f0b72abf1f9950dce8c0f1e,2022-09-08_13h10.05.929,CGTgamblingSpanTasks,2022.2.1,Win32,164.2845408,,,,,,,,,,,,,,,,,,,,,,,,,,,,,,,,,,,,,,,,,,,,,,,,,,,,,,,,,,,,,,,,,,,,,,,,,,,,,,,,,,"[7,9,3,8,6]",3,0,3,0,1,,,,,,,,,,,,,,,,,,,,,,,,,,,,,,,,,,,,,,,,,,,,,,,,
,,5f0b72abf1f9950dce8c0f1e,2022-09-08_13h10.05.929,CGTgamblingSpanTasks,2022.2.1,Win32,164.2845408,,,,,,,,,,,,,,,,,,,,,,,,,,,,,,,,,,,,,,,,,,,,,,,,,,,,,,,,,,,,,,,,,,,,,,,,,,,,,,,,,,"[7,9,3,8,6]",4,0,4,0,1,,,,,,,,,,,,,,,,,,,,,,,,,,,,,,,,,,,,,,,,,,,,,,,,
,,5f0b72abf1f9950dce8c0f1e,2022-09-08_13h10.05.929,CGTgamblingSpanTasks,2022.2.1,Win32,164.2845408,,,,,,,,,,,,,,,,,,,,,,,,,,,,,,,,,,,,,,,,,,,,,,,,,,,,,,,,,,,,,,,1,,,,,,,,,,,,,,,,,,,,,,,,,79386,-0.001851852,-0.405555556,1,0,0,cont_button,0,5,5,5,1,6,,,,,,,,,,,,,,,,,,,,,,,,,,,,,,,,,,,
,,5f0b72abf1f9950dce8c0f1e,2022-09-08_13h10.05.929,CGTgamblingSpanTasks,2022.2.1,Win32,164.2845408,,,,,,,,,,,,,,,,,,,,,,,,,,,,,,,,,,,,,,,,,,,,,,,,,,,,,,,,,,,,,,,,,,,,,,,,,,,,,,,,,,"[5,3,9,4,6,2]",0,0,0,0,1,,,,,,,,,,,,,,,,,,,,,,,,,,,,,,,,,,,,,,,,,,,,,,,,
,,5f0b72abf1f9950dce8c0f1e,2022-09-08_13h10.05.929,CGTgamblingSpanTasks,2022.2.1,Win32,164.2845408,,,,,,,,,,,,,,,,,,,,,,,,,,,,,,,,,,,,,,,,,,,,,,,,,,,,,,,,,,,,,,,,,,,,,,,,,,,,,,,,,,"[5,3,9,4,6,2]",1,0,1,0,1,,,,,,,,,,,,,,,,,,,,,,,,,,,,,,,,,,,,,,,,,,,,,,,,
,,5f0b72abf1f9950dce8c0f1e,2022-09-08_13h10.05.929,CGTgamblingSpanTasks,2022.2.1,Win32,164.2845408,,,,,,,,,,,,,,,,,,,,,,,,,,,,,,,,,,,,,,,,,,,,,,,,,,,,,,,,,,,,,,,,,,,,,,,,,,,,,,,,,,"[5,3,9,4,6,2]",2,0,2,0,1,,,,,,,,,,,,,,,,,,,,,,,,,,,,,,,,,,,,,,,,,,,,,,,,
,,5f0b72abf1f9950dce8c0f1e,2022-09-08_13h10.05.929,CGTgamblingSpanTasks,2022.2.1,Win32,164.2845408,,,,,,,,,,,,,,,,,,,,,,,,,,,,,,,,,,,,,,,,,,,,,,,,,,,,,,,,,,,,,,,,,,,,,,,,,,,,,,,,,,"[5,3,9,4,6,2]",3,0,3,0,1,,,,,,,,,,,,,,,,,,,,,,,,,,,,,,,,,,,,,,,,,,,,,,,,
,,5f0b72abf1f9950dce8c0f1e,2022-09-08_13h10.05.929,CGTgamblingSpanTasks,2022.2.1,Win32,164.2845408,,,,,,,,,,,,,,,,,,,,,,,,,,,,,,,,,,,,,,,,,,,,,,,,,,,,,,,,,,,,,,,,,,,,,,,,,,,,,,,,,,"[5,3,9,4,6,2]",4,0,4,0,1,,,,,,,,,,,,,,,,,,,,,,,,,,,,,,,,,,,,,,,,,,,,,,,,
,,5f0b72abf1f9950dce8c0f1e,2022-09-08_13h10.05.929,CGTgamblingSpanTasks,2022.2.1,Win32,164.2845408,,,,,,,,,,,,,,,,,,,,,,,,,,,,,,,,,,,,,,,,,,,,,,,,,,,,,,,,,,,,,,,,,,,,,,,,,,,,,,,,,,"[5,3,9,4,6,2]",5,0,5,0,1,,,,,,,,,,,,,,,,,,,,,,,,,,,,,,,,,,,,,,,,,,,,,,,,
,,5f0b72abf1f9950dce8c0f1e,2022-09-08_13h10.05.929,CGTgamblingSpanTasks,2022.2.1,Win32,164.2845408,,,,,,,,,,,,,,,,,,,,,,,,,,,,,,,,,,,,,,,,,,,,,,,,,,,,,,,,,,,,,,,0,,,,,,,,,,,,,,,,,,,,,,,,,534962,-0.003703704,-0.42962963,1,0,0,cont_button,0,6,6,6,1,7,,,,,,,,,,,,,,,,,,,,,,,,,,,,,,,,,,,
,,5f0b72abf1f9950dce8c0f1e,2022-09-08_13h10.05.929,CGTgamblingSpanTasks,2022.2.1,Win32,164.2845408,,,,,,,,,,,,,,,,,,,,,,,,,,,,,,,,,,,,,,,,,,,,,,,,,,,,,,,,,,,,,,,,,,,,,,,,,,,,,,,,,,"[3,9,4,6,2,1]",0,0,0,0,1,,,,,,,,,,,,,,,,,,,,,,,,,,,,,,,,,,,,,,,,,,,,,,,,
,,5f0b72abf1f9950dce8c0f1e,2022-09-08_13h10.05.929,CGTgamblingSpanTasks,2022.2.1,Win32,164.2845408,,,,,,,,,,,,,,,,,,,,,,,,,,,,,,,,,,,,,,,,,,,,,,,,,,,,,,,,,,,,,,,,,,,,,,,,,,,,,,,,,,"[3,9,4,6,2,1]",1,0,1,0,1,,,,,,,,,,,,,,,,,,,,,,,,,,,,,,,,,,,,,,,,,,,,,,,,
,,5f0b72abf1f9950dce8c0f1e,2022-09-08_13h10.05.929,CGTgamblingSpanTasks,2022.2.1,Win32,164.2845408,,,,,,,,,,,,,,,,,,,,,,,,,,,,,,,,,,,,,,,,,,,,,,,,,,,,,,,,,,,,,,,,,,,,,,,,,,,,,,,,,,"[3,9,4,6,2,1]",2,0,2,0,1,,,,,,,,,,,,,,,,,,,,,,,,,,,,,,,,,,,,,,,,,,,,,,,,
,,5f0b72abf1f9950dce8c0f1e,2022-09-08_13h10.05.929,CGTgamblingSpanTasks,2022.2.1,Win32,164.2845408,,,,,,,,,,,,,,,,,,,,,,,,,,,,,,,,,,,,,,,,,,,,,,,,,,,,,,,,,,,,,,,,,,,,,,,,,,,,,,,,,,"[3,9,4,6,2,1]",3,0,3,0,1,,,,,,,,,,,,,,,,,,,,,,,,,,,,,,,,,,,,,,,,,,,,,,,,
,,5f0b72abf1f9950dce8c0f1e,2022-09-08_13h10.05.929,CGTgamblingSpanTasks,2022.2.1,Win32,164.2845408,,,,,,,,,,,,,,,,,,,,,,,,,,,,,,,,,,,,,,,,,,,,,,,,,,,,,,,,,,,,,,,,,,,,,,,,,,,,,,,,,,"[3,9,4,6,2,1]",4,0,4,0,1,,,,,,,,,,,,,,,,,,,,,,,,,,,,,,,,,,,,,,,,,,,,,,,,
,,5f0b72abf1f9950dce8c0f1e,2022-09-08_13h10.05.929,CGTgamblingSpanTasks,2022.2.1,Win32,164.2845408,,,,,,,,,,,,,,,,,,,,,,,,,,,,,,,,,,,,,,,,,,,,,,,,,,,,,,,,,,,,,,,,,,,,,,,,,,,,,,,,,,"[3,9,4,6,2,1]",5,0,5,0,1,,,,,,,,,,,,,,,,,,,,,,,,,,,,,,,,,,,,,,,,,,,,,,,,
,,5f0b72abf1f9950dce8c0f1e,2022-09-08_13h10.05.929,CGTgamblingSpanTasks,2022.2.1,Win32,164.2845408,,,,,,,,,,,,,,,,,,,,,,,,,,,,,,,,,,,,,,,,,,,,,,,,,,,,,,,,,,,,,,,1,,,,,,,,,,,,,,,,,,,,,,,,,394621,0.028703704,-0.400925926,1,0,0,cont_button,0,7,7,7,1,8,,,,,,,,,,,,,,,,,,,,,,,,,,,,,,,,,,,
,,5f0b72abf1f9950dce8c0f1e,2022-09-08_13h10.05.929,CGTgamblingSpanTasks,2022.2.1,Win32,164.2845408,,,,,,,,,,,,,,,,,,,,,,,,,,,,,,,,,,,,,,,,,,,,,,,,,,,,,,,,,,,,,,,,,,,,,,,,,,,,,,,,,,"[1,4,2,7,3,8,6]",0,0,0,0,1,,,,,,,,,,,,,,,,,,,,,,,,,,,,,,,,,,,,,,,,,,,,,,,,
,,5f0b72abf1f9950dce8c0f1e,2022-09-08_13h10.05.929,CGTgamblingSpanTasks,2022.2.1,Win32,164.2845408,,,,,,,,,,,,,,,,,,,,,,,,,,,,,,,,,,,,,,,,,,,,,,,,,,,,,,,,,,,,,,,,,,,,,,,,,,,,,,,,,,"[1,4,2,7,3,8,6]",1,0,1,0,1,,,,,,,,,,,,,,,,,,,,,,,,,,,,,,,,,,,,,,,,,,,,,,,,
,,5f0b72abf1f9950dce8c0f1e,2022-09-08_13h10.05.929,CGTgamblingSpanTasks,2022.2.1,Win32,164.2845408,,,,,,,,,,,,,,,,,,,,,,,,,,,,,,,,,,,,,,,,,,,,,,,,,,,,,,,,,,,,,,,,,,,,,,,,,,,,,,,,,,"[1,4,2,7,3,8,6]",2,0,2,0,1,,,,,,,,,,,,,,,,,,,,,,,,,,,,,,,,,,,,,,,,,,,,,,,,
,,5f0b72abf1f9950dce8c0f1e,2022-09-08_13h10.05.929,CGTgamblingSpanTasks,2022.2.1,Win32,164.2845408,,,,,,,,,,,,,,,,,,,,,,,,,,,,,,,,,,,,,,,,,,,,,,,,,,,,,,,,,,,,,,,,,,,,,,,,,,,,,,,,,,"[1,4,2,7,3,8,6]",3,0,3,0,1,,,,,,,,,,,,,,,,,,,,,,,,,,,,,,,,,,,,,,,,,,,,,,,,
,,5f0b72abf1f9950dce8c0f1e,2022-09-08_13h10.05.929,CGTgamblingSpanTasks,2022.2.1,Win32,164.2845408,,,,,,,,,,,,,,,,,,,,,,,,,,,,,,,,,,,,,,,,,,,,,,,,,,,,,,,,,,,,,,,,,,,,,,,,,,,,,,,,,,"[1,4,2,7,3,8,6]",4,0,4,0,1,,,,,,,,,,,,,,,,,,,,,,,,,,,,,,,,,,,,,,,,,,,,,,,,
,,5f0b72abf1f9950dce8c0f1e,2022-09-08_13h10.05.929,CGTgamblingSpanTasks,2022.2.1,Win32,164.2845408,,,,,,,,,,,,,,,,,,,,,,,,,,,,,,,,,,,,,,,,,,,,,,,,,,,,,,,,,,,,,,,,,,,,,,,,,,,,,,,,,,"[1,4,2,7,3,8,6]",5,0,5,0,1,,,,,,,,,,,,,,,,,,,,,,,,,,,,,,,,,,,,,,,,,,,,,,,,
,,5f0b72abf1f9950dce8c0f1e,2022-09-08_13h10.05.929,CGTgamblingSpanTasks,2022.2.1,Win32,164.2845408,,,,,,,,,,,,,,,,,,,,,,,,,,,,,,,,,,,,,,,,,,,,,,,,,,,,,,,,,,,,,,,,,,,,,,,,,,,,,,,,,,"[1,4,2,7,3,8,6]",6,0,6,0,1,,,,,,,,,,,,,,,,,,,,,,,,,,,,,,,,,,,,,,,,,,,,,,,,
,,5f0b72abf1f9950dce8c0f1e,2022-09-08_13h10.05.929,CGTgamblingSpanTasks,2022.2.1,Win32,164.2845408,,,,,,,,,,,,,,,,,,,,,,,,,,,,,,,,,,,,,,,,,,,,,,,,,,,,,,,,,,,,,,,0,,,,,,,,,,,,,,,,,,,,,,,,,142386,-0.001851852,-0.407407407,1,0,0,cont_button,0,8,8,8,1,9,,,,,,,,,,,,,,,,,,,,,,,,,,,,,,,,,,,
,,5f0b72abf1f9950dce8c0f1e,2022-09-08_13h10.05.929,CGTgamblingSpanTasks,2022.2.1,Win32,164.2845408,,,,,,,,,,,,,,,,,,,,,,,,,,,,,,,,,,,,,,,,,,,,,,,,,,,,,,,,,,,,,,,,,,,,,,,,,,,,,,,,,,"[2,3,8,6,5,1,4]",0,0,0,0,1,,,,,,,,,,,,,,,,,,,,,,,,,,,,,,,,,,,,,,,,,,,,,,,,
,,5f0b72abf1f9950dce8c0f1e,2022-09-08_13h10.05.929,CGTgamblingSpanTasks,2022.2.1,Win32,164.2845408,,,,,,,,,,,,,,,,,,,,,,,,,,,,,,,,,,,,,,,,,,,,,,,,,,,,,,,,,,,,,,,,,,,,,,,,,,,,,,,,,,"[2,3,8,6,5,1,4]",1,0,1,0,1,,,,,,,,,,,,,,,,,,,,,,,,,,,,,,,,,,,,,,,,,,,,,,,,
,,5f0b72abf1f9950dce8c0f1e,2022-09-08_13h10.05.929,CGTgamblingSpanTasks,2022.2.1,Win32,164.2845408,,,,,,,,,,,,,,,,,,,,,,,,,,,,,,,,,,,,,,,,,,,,,,,,,,,,,,,,,,,,,,,,,,,,,,,,,,,,,,,,,,"[2,3,8,6,5,1,4]",2,0,2,0,1,,,,,,,,,,,,,,,,,,,,,,,,,,,,,,,,,,,,,,,,,,,,,,,,
,,5f0b72abf1f9950dce8c0f1e,2022-09-08_13h10.05.929,CGTgamblingSpanTasks,2022.2.1,Win32,164.2845408,,,,,,,,,,,,,,,,,,,,,,,,,,,,,,,,,,,,,,,,,,,,,,,,,,,,,,,,,,,,,,,,,,,,,,,,,,,,,,,,,,"[2,3,8,6,5,1,4]",3,0,3,0,1,,,,,,,,,,,,,,,,,,,,,,,,,,,,,,,,,,,,,,,,,,,,,,,,
,,5f0b72abf1f9950dce8c0f1e,2022-09-08_13h10.05.929,CGTgamblingSpanTasks,2022.2.1,Win32,164.2845408,,,,,,,,,,,,,,,,,,,,,,,,,,,,,,,,,,,,,,,,,,,,,,,,,,,,,,,,,,,,,,,,,,,,,,,,,,,,,,,,,,"[2,3,8,6,5,1,4]",4,0,4,0,1,,,,,,,,,,,,,,,,,,,,,,,,,,,,,,,,,,,,,,,,,,,,,,,,
,,5f0b72abf1f9950dce8c0f1e,2022-09-08_13h10.05.929,CGTgamblingSpanTasks,2022.2.1,Win32,164.2845408,,,,,,,,,,,,,,,,,,,,,,,,,,,,,,,,,,,,,,,,,,,,,,,,,,,,,,,,,,,,,,,,,,,,,,,,,,,,,,,,,,"[2,3,8,6,5,1,4]",5,0,5,0,1,,,,,,,,,,,,,,,,,,,,,,,,,,,,,,,,,,,,,,,,,,,,,,,,
,,5f0b72abf1f9950dce8c0f1e,2022-09-08_13h10.05.929,CGTgamblingSpanTasks,2022.2.1,Win32,164.2845408,,,,,,,,,,,,,,,,,,,,,,,,,,,,,,,,,,,,,,,,,,,,,,,,,,,,,,,,,,,,,,,,,,,,,,,,,,,,,,,,,,"[2,3,8,6,5,1,4]",6,0,6,0,1,,,,,,,,,,,,,,,,,,,,,,,,,,,,,,,,,,,,,,,,,,,,,,,,
,,5f0b72abf1f9950dce8c0f1e,2022-09-08_13h10.05.929,CGTgamblingSpanTasks,2022.2.1,Win32,164.2845408,,,,,,,,,,,,,,,,,,,,,,,,,,,,,,,,,,,,,,,,,,,,,,,,,,,,,,,,,,,,,,,1,,,,,,,,,,,,,,,,,,,,,,,,,2386514,0.022222222,-0.375,1,0,0,cont_button,0,9,9,9,1,10,,,,,,,,,,,,,,,,,,,,,,,,,,,,,,,,,,,
,,5f0b72abf1f9950dce8c0f1e,2022-09-08_13h10.05.929,CGTgamblingSpanTasks,2022.2.1,Win32,164.2845408,,,,,,,,,,,,,,,,,,,,,,,,,,,,,,,,,,,,,,,,,,,,,,,,,,,,,,,,,,,,,,,,,,,,,,,,,,,,,,,,,,"[2,8,3,7,5,4,6,9]",0,0,0,0,1,,,,,,,,,,,,,,,,,,,,,,,,,,,,,,,,,,,,,,,,,,,,,,,,
,,5f0b72abf1f9950dce8c0f1e,2022-09-08_13h10.05.929,CGTgamblingSpanTasks,2022.2.1,Win32,164.2845408,,,,,,,,,,,,,,,,,,,,,,,,,,,,,,,,,,,,,,,,,,,,,,,,,,,,,,,,,,,,,,,,,,,,,,,,,,,,,,,,,,"[2,8,3,7,5,4,6,9]",1,0,1,0,1,,,,,,,,,,,,,,,,,,,,,,,,,,,,,,,,,,,,,,,,,,,,,,,,
,,5f0b72abf1f9950dce8c0f1e,2022-09-08_13h10.05.929,CGTgamblingSpanTasks,2022.2.1,Win32,164.2845408,,,,,,,,,,,,,,,,,,,,,,,,,,,,,,,,,,,,,,,,,,,,,,,,,,,,,,,,,,,,,,,,,,,,,,,,,,,,,,,,,,"[2,8,3,7,5,4,6,9]",2,0,2,0,1,,,,,,,,,,,,,,,,,,,,,,,,,,,,,,,,,,,,,,,,,,,,,,,,
,,5f0b72abf1f9950dce8c0f1e,2022-09-08_13h10.05.929,CGTgamblingSpanTasks,2022.2.1,Win32,164.2845408,,,,,,,,,,,,,,,,,,,,,,,,,,,,,,,,,,,,,,,,,,,,,,,,,,,,,,,,,,,,,,,,,,,,,,,,,,,,,,,,,,"[2,8,3,7,5,4,6,9]",3,0,3,0,1,,,,,,,,,,,,,,,,,,,,,,,,,,,,,,,,,,,,,,,,,,,,,,,,
,,5f0b72abf1f9950dce8c0f1e,2022-09-08_13h10.05.929,CGTgamblingSpanTasks,2022.2.1,Win32,164.2845408,,,,,,,,,,,,,,,,,,,,,,,,,,,,,,,,,,,,,,,,,,,,,,,,,,,,,,,,,,,,,,,,,,,,,,,,,,,,,,,,,,"[2,8,3,7,5,4,6,9]",4,0,4,0,1,,,,,,,,,,,,,,,,,,,,,,,,,,,,,,,,,,,,,,,,,,,,,,,,
,,5f0b72abf1f9950dce8c0f1e,2022-09-08_13h10.05.929,CGTgamblingSpanTasks,2022.2.1,Win32,164.2845408,,,,,,,,,,,,,,,,,,,,,,,,,,,,,,,,,,,,,,,,,,,,,,,,,,,,,,,,,,,,,,,,,,,,,,,,,,,,,,,,,,"[2,8,3,7,5,4,6,9]",5,0,5,0,1,,,,,,,,,,,,,,,,,,,,,,,,,,,,,,,,,,,,,,,,,,,,,,,,
,,5f0b72abf1f9950dce8c0f1e,2022-09-08_13h10.05.929,CGTgamblingSpanTasks,2022.2.1,Win32,164.2845408,,,,,,,,,,,,,,,,,,,,,,,,,,,,,,,,,,,,,,,,,,,,,,,,,,,,,,,,,,,,,,,,,,,,,,,,,,,,,,,,,,"[2,8,3,7,5,4,6,9]",6,0,6,0,1,,,,,,,,,,,,,,,,,,,,,,,,,,,,,,,,,,,,,,,,,,,,,,,,
,,5f0b72abf1f9950dce8c0f1e,2022-09-08_13h10.05.929,CGTgamblingSpanTasks,2022.2.1,Win32,164.2845408,,,,,,,,,,,,,,,,,,,,,,,,,,,,,,,,,,,,,,,,,,,,,,,,,,,,,,,,,,,,,,,,,,,,,,,,,,,,,,,,,,"[2,8,3,7,5,4,6,9]",7,0,7,0,1,,,,,,,,,,,,,,,,,,,,,,,,,,,,,,,,,,,,,,,,,,,,,,,,
,,5f0b72abf1f9950dce8c0f1e,2022-09-08_13h10.05.929,CGTgamblingSpanTasks,2022.2.1,Win32,164.2845408,,,,,,,,,,,,,,,,,,,,,,,,,,,,,,,,,,,,,,,,,,,,,,,,,,,,,,,,,,,,,,,0,,,,,,,,,,,,,,,,,,,,,,,,,283754689,0.040740741,-0.409259259,1,0,0,cont_button,0,10,10,10,1,11,,,,,,,,,,,,,,,,,,,,,,,,,,,,,,,,,,,
,,5f0b72abf1f9950dce8c0f1e,2022-09-08_13h10.05.929,CGTgamblingSpanTasks,2022.2.1,Win32,164.2845408,,,,,,,,,,,,,,,,,,,,,,,,,,,,,,,,,,,,,,,,,,,,,,,,,,,,,,,,,,,,,,,,,,,,,,,,,,,,,,,,,,"[1,5,4,6,8,2,3,9]",0,0,0,0,1,,,,,,,,,,,,,,,,,,,,,,,,,,,,,,,,,,,,,,,,,,,,,,,,
,,5f0b72abf1f9950dce8c0f1e,2022-09-08_13h10.05.929,CGTgamblingSpanTasks,2022.2.1,Win32,164.2845408,,,,,,,,,,,,,,,,,,,,,,,,,,,,,,,,,,,,,,,,,,,,,,,,,,,,,,,,,,,,,,,,,,,,,,,,,,,,,,,,,,"[1,5,4,6,8,2,3,9]",1,0,1,0,1,,,,,,,,,,,,,,,,,,,,,,,,,,,,,,,,,,,,,,,,,,,,,,,,
,,5f0b72abf1f9950dce8c0f1e,2022-09-08_13h10.05.929,CGTgamblingSpanTasks,2022.2.1,Win32,164.2845408,,,,,,,,,,,,,,,,,,,,,,,,,,,,,,,,,,,,,,,,,,,,,,,,,,,,,,,,,,,,,,,,,,,,,,,,,,,,,,,,,,"[1,5,4,6,8,2,3,9]",2,0,2,0,1,,,,,,,,,,,,,,,,,,,,,,,,,,,,,,,,,,,,,,,,,,,,,,,,
,,5f0b72abf1f9950dce8c0f1e,2022-09-08_13h10.05.929,CGTgamblingSpanTasks,2022.2.1,Win32,164.2845408,,,,,,,,,,,,,,,,,,,,,,,,,,,,,,,,,,,,,,,,,,,,,,,,,,,,,,,,,,,,,,,,,,,,,,,,,,,,,,,,,,"[1,5,4,6,8,2,3,9]",3,0,3,0,1,,,,,,,,,,,,,,,,,,,,,,,,,,,,,,,,,,,,,,,,,,,,,,,,
,,5f0b72abf1f9950dce8c0f1e,2022-09-08_13h10.05.929,CGTgamblingSpanTasks,2022.2.1,Win32,164.2845408,,,,,,,,,,,,,,,,,,,,,,,,,,,,,,,,,,,,,,,,,,,,,,,,,,,,,,,,,,,,,,,,,,,,,,,,,,,,,,,,,,"[1,5,4,6,8,2,3,9]",4,0,4,0,1,,,,,,,,,,,,,,,,,,,,,,,,,,,,,,,,,,,,,,,,,,,,,,,,
,,5f0b72abf1f9950dce8c0f1e,2022-09-08_13h10.05.929,CGTgamblingSpanTasks,2022.2.1,Win32,164.2845408,,,,,,,,,,,,,,,,,,,,,,,,,,,,,,,,,,,,,,,,,,,,,,,,,,,,,,,,,,,,,,,,,,,,,,,,,,,,,,,,,,"[1,5,4,6,8,2,3,9]",5,0,5,0,1,,,,,,,,,,,,,,,,,,,,,,,,,,,,,,,,,,,,,,,,,,,,,,,,
,,5f0b72abf1f9950dce8c0f1e,2022-09-08_13h10.05.929,CGTgamblingSpanTasks,2022.2.1,Win32,164.2845408,,,,,,,,,,,,,,,,,,,,,,,,,,,,,,,,,,,,,,,,,,,,,,,,,,,,,,,,,,,,,,,,,,,,,,,,,,,,,,,,,,"[1,5,4,6,8,2,3,9]",6,0,6,0,1,,,,,,,,,,,,,,,,,,,,,,,,,,,,,,,,,,,,,,,,,,,,,,,,
,,5f0b72abf1f9950dce8c0f1e,2022-09-08_13h10.05.929,CGTgamblingSpanTasks,2022.2.1,Win32,164.2845408,,,,,,,,,,,,,,,,,,,,,,,,,,,,,,,,,,,,,,,,,,,,,,,,,,,,,,,,,,,,,,,,,,,,,,,,,,,,,,,,,,"[1,5,4,6,8,2,3,9]",7,0,7,0,1,,,,,,,,,,,,,,,,,,,,,,,,,,,,,,,,,,,,,,,,,,,,,,,,
,,5f0b72abf1f9950dce8c0f1e,2022-09-08_13h10.05.929,CGTgamblingSpanTasks,2022.2.1,Win32,164.2845408,,,,,,,,,,,,,,,,,,,,,,,,,,,,,,,,,,,,,,,,,,,,,,,,,,,,,,,,,,,,,,,0,,,,,,,,,,,,,,,,,,,,,,,,,14568281,0.066666667,-0.414814815,1,0,0,cont_button,0,11,11,11,1,12,,,,,,,,,,,,,,,,,,,,,,,,,,,,,,,,,,,
,,5f0b72abf1f9950dce8c0f1e,2022-09-08_13h10.05.929,CGTgamblingSpanTasks,2022.2.1,Win32,164.2845408,,,,,,,,,,,,,,,,,,,,,,,,,,,,,,,,,,,,,,,,,,,,,,,,,,,,,,,,,,,,,,,,,,,,,,,,,,,,,,,,,,"[9,5,3,1,8,2,7]",0,0,0,0,1,,,,,,,,,,,,,,,,,,,,,,,,,,,,,,,,,,,,,,,,,,,,,,,,
,,5f0b72abf1f9950dce8c0f1e,2022-09-08_13h10.05.929,CGTgamblingSpanTasks,2022.2.1,Win32,164.2845408,,,,,,,,,,,,,,,,,,,,,,,,,,,,,,,,,,,,,,,,,,,,,,,,,,,,,,,,,,,,,,,,,,,,,,,,,,,,,,,,,,"[9,5,3,1,8,2,7]",1,0,1,0,1,,,,,,,,,,,,,,,,,,,,,,,,,,,,,,,,,,,,,,,,,,,,,,,,
,,5f0b72abf1f9950dce8c0f1e,2022-09-08_13h10.05.929,CGTgamblingSpanTasks,2022.2.1,Win32,164.2845408,,,,,,,,,,,,,,,,,,,,,,,,,,,,,,,,,,,,,,,,,,,,,,,,,,,,,,,,,,,,,,,,,,,,,,,,,,,,,,,,,,"[9,5,3,1,8,2,7]",2,0,2,0,1,,,,,,,,,,,,,,,,,,,,,,,,,,,,,,,,,,,,,,,,,,,,,,,,
,,5f0b72abf1f9950dce8c0f1e,2022-09-08_13h10.05.929,CGTgamblingSpanTasks,2022.2.1,Win32,164.2845408,,,,,,,,,,,,,,,,,,,,,,,,,,,,,,,,,,,,,,,,,,,,,,,,,,,,,,,,,,,,,,,,,,,,,,,,,,,,,,,,,,"[9,5,3,1,8,2,7]",3,0,3,0,1,,,,,,,,,,,,,,,,,,,,,,,,,,,,,,,,,,,,,,,,,,,,,,,,
,,5f0b72abf1f9950dce8c0f1e,2022-09-08_13h10.05.929,CGTgamblingSpanTasks,2022.2.1,Win32,164.2845408,,,,,,,,,,,,,,,,,,,,,,,,,,,,,,,,,,,,,,,,,,,,,,,,,,,,,,,,,,,,,,,,,,,,,,,,,,,,,,,,,,"[9,5,3,1,8,2,7]",4,0,4,0,1,,,,,,,,,,,,,,,,,,,,,,,,,,,,,,,,,,,,,,,,,,,,,,,,
,,5f0b72abf1f9950dce8c0f1e,2022-09-08_13h10.05.929,CGTgamblingSpanTasks,2022.2.1,Win32,164.2845408,,,,,,,,,,,,,,,,,,,,,,,,,,,,,,,,,,,,,,,,,,,,,,,,,,,,,,,,,,,,,,,,,,,,,,,,,,,,,,,,,,"[9,5,3,1,8,2,7]",5,0,5,0,1,,,,,,,,,,,,,,,,,,,,,,,,,,,,,,,,,,,,,,,,,,,,,,,,
,,5f0b72abf1f9950dce8c0f1e,2022-09-08_13h10.05.929,CGTgamblingSpanTasks,2022.2.1,Win32,164.2845408,,,,,,,,,,,,,,,,,,,,,,,,,,,,,,,,,,,,,,,,,,,,,,,,,,,,,,,,,,,,,,,,,,,,,,,,,,,,,,,,,,"[9,5,3,1,8,2,7]",6,0,6,0,1,,,,,,,,,,,,,,,,,,,,,,,,,,,,,,,,,,,,,,,,,,,,,,,,
,,5f0b72abf1f9950dce8c0f1e,2022-09-08_13h10.05.929,CGTgamblingSpanTasks,2022.2.1,Win32,164.2845408,,,,,,,,,,,,,,,,,,,,,,,,,,,,,,,,,,,,,,,,,,,,,,,,,,,,,,,,,,,,,,,0,,,,,,,,,,,,,,,,,,,,,,,,,9531858,-0.000925926,-0.377777778,1,0,0,cont_button,0,12,12,12,1,13,,,,,,,,,,,,,,,,,,,,,,,,,,,,,,,,,,,
,,5f0b72abf1f9950dce8c0f1e,2022-09-08_13h10.05.929,CGTgamblingSpanTasks,2022.2.1,Win32,164.2845408,,,,,,,,,,,,,,,,,,,,,,,,,,,,,,,,,,,,,,,,,,,,,,,,,,,,,,,,,,,,,,,,,,,,,,,,,,,,,,,,,,"[4,5,2,8,6,9,7]",0,0,0,0,1,,,,,,,,,,,,,,,,,,,,,,,,,,,,,,,,,,,,,,,,,,,,,,,,
,,5f0b72abf1f9950dce8c0f1e,2022-09-08_13h10.05.929,CGTgamblingSpanTasks,2022.2.1,Win32,164.2845408,,,,,,,,,,,,,,,,,,,,,,,,,,,,,,,,,,,,,,,,,,,,,,,,,,,,,,,,,,,,,,,,,,,,,,,,,,,,,,,,,,"[4,5,2,8,6,9,7]",1,0,1,0,1,,,,,,,,,,,,,,,,,,,,,,,,,,,,,,,,,,,,,,,,,,,,,,,,
,,5f0b72abf1f9950dce8c0f1e,2022-09-08_13h10.05.929,CGTgamblingSpanTasks,2022.2.1,Win32,164.2845408,,,,,,,,,,,,,,,,,,,,,,,,,,,,,,,,,,,,,,,,,,,,,,,,,,,,,,,,,,,,,,,,,,,,,,,,,,,,,,,,,,"[4,5,2,8,6,9,7]",2,0,2,0,1,,,,,,,,,,,,,,,,,,,,,,,,,,,,,,,,,,,,,,,,,,,,,,,,
,,5f0b72abf1f9950dce8c0f1e,2022-09-08_13h10.05.929,CGTgamblingSpanTasks,2022.2.1,Win32,164.2845408,,,,,,,,,,,,,,,,,,,,,,,,,,,,,,,,,,,,,,,,,,,,,,,,,,,,,,,,,,,,,,,,,,,,,,,,,,,,,,,,,,"[4,5,2,8,6,9,7]",3,0,3,0,1,,,,,,,,,,,,,,,,,,,,,,,,,,,,,,,,,,,,,,,,,,,,,,,,
,,5f0b72abf1f9950dce8c0f1e,2022-09-08_13h10.05.929,CGTgamblingSpanTasks,2022.2.1,Win32,164.2845408,,,,,,,,,,,,,,,,,,,,,,,,,,,,,,,,,,,,,,,,,,,,,,,,,,,,,,,,,,,,,,,,,,,,,,,,,,,,,,,,,,"[4,5,2,8,6,9,7]",4,0,4,0,1,,,,,,,,,,,,,,,,,,,,,,,,,,,,,,,,,,,,,,,,,,,,,,,,
,,5f0b72abf1f9950dce8c0f1e,2022-09-08_13h10.05.929,CGTgamblingSpanTasks,2022.2.1,Win32,164.2845408,,,,,,,,,,,,,,,,,,,,,,,,,,,,,,,,,,,,,,,,,,,,,,,,,,,,,,,,,,,,,,,,,,,,,,,,,,,,,,,,,,"[4,5,2,8,6,9,7]",5,0,5,0,1,,,,,,,,,,,,,,,,,,,,,,,,,,,,,,,,,,,,,,,,,,,,,,,,
,,5f0b72abf1f9950dce8c0f1e,2022-09-08_13h10.05.929,CGTgamblingSpanTasks,2022.2.1,Win32,164.2845408,,,,,,,,,,,,,,,,,,,,,,,,,,,,,,,,,,,,,,,,,,,,,,,,,,,,,,,,,,,,,,,,,,,,,,,,,,,,,,,,,,"[4,5,2,8,6,9,7]",6,0,6,0,1,,,,,,,,,,,,,,,,,,,,,,,,,,,,,,,,,,,,,,,,,,,,,,,,
,,5f0b72abf1f9950dce8c0f1e,2022-09-08_13h10.05.929,CGTgamblingSpanTasks,2022.2.1,Win32,164.2845408,,,,,,,,,,,,,,,,,,,,,,,,,,,,,,,,,,,,,,,,,,,,,,,,,,,,,,,,,,,,,,,0,,,,,,,,,,,,,,,,,,,,,,,,,482697,-0.013888889,-0.412037037,1,0,0,cont_button,0,13,13,13,1,14,,,,,,,,,,,,,,,,,,,,,,,,,,,,,,,,,,,
,,5f0b72abf1f9950dce8c0f1e,2022-09-08_13h10.05.929,CGTgamblingSpanTasks,2022.2.1,Win32,164.2845408,,,,,,,,,,,,,,,,,,,,,,,,,,,,,,,,,,,,,,,,,,,,,,,,,,,,,,,,,,,,,,,,,,,,,,,,,,,,,,,,,,,,,,,,,,,,,,,,,,,,,return,345.1504,,,,,,,,,,,,,,,,,,,,,,,,,,,,,,,,,
,,5f0b72abf1f9950dce8c0f1e,2022-09-08_13h10.05.929,CGTgamblingSpanTasks,2022.2.1,Win32,164.2845408,,,,,,,,,,,,,,,,,,,,,,,,,,,,,,,,,,,,,,,,,,,,,,,,,,,,,,,,,,,,,,,,,,,,,,,,,,,,,,,,,,,,,,,,,,,,,,,,,,,,,,,return,226.8337,,,,,,,,,,,,,,,,,,,,,,,,,,,,,,,
,,5f0b72abf1f9950dce8c0f1e,2022-09-08_13h10.05.929,CGTgamblingSpanTasks,2022.2.1,Win32,164.2845408,,,,,,,,,,,,,,,,,,,,,,,,,,,,,,,,,,,,,,,,,,,,,,,,,,,,,,,,,,,,,,,1,,,,,,,,,,,,3,342,24,2,42,,,,,,,,,,,,,,,,,,,,,,,,,,42,0.062037037,-0.419444444,1,0,0,cont_buttonPractice_2,0,0,0,0,1,,,,,,,,,,,,,,,,,,,
,,5f0b72abf1f9950dce8c0f1e,2022-09-08_13h10.05.929,CGTgamblingSpanTasks,2022.2.1,Win32,164.2845408,,,,,,,,,,,,,,,,,,,,,,,,,,,,,,,,,,,,,,,,,,,,,,,,,,,,,,,,,,,,,,,1,,,,,,,,,,,,3,937,73,2,37,,,,,,,,,,,,,,,,,,,,,,,,,,37,0.030555556,-0.410185185,1,0,0,cont_buttonPractice_2,0,1,1,1,1,,,,,,,,,,,,,,,,,,,
,,5f0b72abf1f9950dce8c0f1e,2022-09-08_13h10.05.929,CGTgamblingSpanTasks,2022.2.1,Win32,164.2845408,,,,,,,,,,,,,,,,,,,,,,,,,,,,,,,,,,,,,,,,,,,,,,,,,,,,,,,,,,,,,,,,,,,,,,,,,,,,,,,,,,,,,,,,,,,,,,,,,,,,,,,,,,,,,,,,,,,,,return,9.7505,,,,,,,,,,,,,,,,,
,,5f0b72abf1f9950dce8c0f1e,2022-09-08_13h10.05.929,CGTgamblingSpanTasks,2022.2.1,Win32,164.2845408,,,,,,,,,,,,,,,,,,,,,,,,,,,,,,,,,,,,,,,,,,,,,,,,,,,,,,,,,,,,,,,,,,,,,,,,,,,,,,,,,,"[7,3]",,,,,,,,,,,,,,,,,,,,,,,,,,,,,,,,,,,,,0,0,0,0,1,,,,,,,,,,,,
,,5f0b72abf1f9950dce8c0f1e,2022-09-08_13h10.05.929,CGTgamblingSpanTasks,2022.2.1,Win32,164.2845408,,,,,,,,,,,,,,,,,,,,,,,,,,,,,,,,,,,,,,,,,,,,,,,,,,,,,,,,,,,,,,,,,,,,,,,,,,,,,,,,,,"[7,3]",,,,,,,,,,,,,,,,,,,,,,,,,,,,,,,,,,,,,1,0,1,0,1,,,,,,,,,,,,
,,5f0b72abf1f9950dce8c0f1e,2022-09-08_13h10.05.929,CGTgamblingSpanTasks,2022.2.1,Win32,164.2845408,,,,,,,,,,,,,,,,,,,,,,,,,,,,,,,,,,,,,,,,,,,,,,,,,,,,,,,,,,,,,,,1,,,,,,,,,,,,,,,,,,,,,,,,,,,,,,,,,,,,,1,,,,,,,,,,,,,,,,,,,,,,,,37,-0.026851852,-0.399074074,1,0,0,cont_buttonBS,0,0,0,0,1
,,5f0b72abf1f9950dce8c0f1e,2022-09-08_13h10.05.929,CGTgamblingSpanTasks,2022.2.1,Win32,164.2845408,,,,,,,,,,,,,,,,,,,,,,,,,,,,,,,,,,,,,,,,,,,,,,,,,,,,,,,,,,,,,,,,,,,,,,,,,,,,,,,,,,"[8,4,7]",,,,,,,,,,,,,,,,,,,,,,,,,,,,,,,,,,,,,0,0,0,0,1,,,,,,,,,,,,
,,5f0b72abf1f9950dce8c0f1e,2022-09-08_13h10.05.929,CGTgamblingSpanTasks,2022.2.1,Win32,164.2845408,,,,,,,,,,,,,,,,,,,,,,,,,,,,,,,,,,,,,,,,,,,,,,,,,,,,,,,,,,,,,,,,,,,,,,,,,,,,,,,,,,"[8,4,7]",,,,,,,,,,,,,,,,,,,,,,,,,,,,,,,,,,,,,1,0,1,0,1,,,,,,,,,,,,
,,5f0b72abf1f9950dce8c0f1e,2022-09-08_13h10.05.929,CGTgamblingSpanTasks,2022.2.1,Win32,164.2845408,,,,,,,,,,,,,,,,,,,,,,,,,,,,,,,,,,,,,,,,,,,,,,,,,,,,,,,,,,,,,,,,,,,,,,,,,,,,,,,,,,"[8,4,7]",,,,,,,,,,,,,,,,,,,,,,,,,,,,,,,,,,,,,2,0,2,0,1,,,,,,,,,,,,
,,5f0b72abf1f9950dce8c0f1e,2022-09-08_13h10.05.929,CGTgamblingSpanTasks,2022.2.1,Win32,164.2845408,,,,,,,,,,,,,,,,,,,,,,,,,,,,,,,,,,,,,,,,,,,,,,,,,,,,,,,,,,,,,,,0,,,,,,,,,,,,,,,,,,,,,,,,,,,,,,,,,,,,,2,,,,,,,,,,,,,,,,,,,,,,,,742,-0.026851852,-0.399074074,1,0,0,cont_buttonBS,0,1,1,1,1
,,5f0b72abf1f9950dce8c0f1e,2022-09-08_13h10.05.929,CGTgamblingSpanTasks,2022.2.1,Win32,164.2845408,,,,,,,,,,,,,,,,,,,,,,,,,,,,,,,,,,,,,,,,,,,,,,,,,,,,,,,,,,,,,,,,,,,,,,,,,,,,,,,,,,"[9,6,5]",,,,,,,,,,,,,,,,,,,,,,,,,,,,,,,,,,,,,0,0,0,0,1,,,,,,,,,,,,
,,5f0b72abf1f9950dce8c0f1e,2022-09-08_13h10.05.929,CGTgamblingSpanTasks,2022.2.1,Win32,164.2845408,,,,,,,,,,,,,,,,,,,,,,,,,,,,,,,,,,,,,,,,,,,,,,,,,,,,,,,,,,,,,,,,,,,,,,,,,,,,,,,,,,"[9,6,5]",,,,,,,,,,,,,,,,,,,,,,,,,,,,,,,,,,,,,1,0,1,0,1,,,,,,,,,,,,
,,5f0b72abf1f9950dce8c0f1e,2022-09-08_13h10.05.929,CGTgamblingSpanTasks,2022.2.1,Win32,164.2845408,,,,,,,,,,,,,,,,,,,,,,,,,,,,,,,,,,,,,,,,,,,,,,,,,,,,,,,,,,,,,,,,,,,,,,,,,,,,,,,,,,"[9,6,5]",,,,,,,,,,,,,,,,,,,,,,,,,,,,,,,,,,,,,2,0,2,0,1,,,,,,,,,,,,
,,5f0b72abf1f9950dce8c0f1e,2022-09-08_13h10.05.929,CGTgamblingSpanTasks,2022.2.1,Win32,164.2845408,,,,,,,,,,,,,,,,,,,,,,,,,,,,,,,,,,,,,,,,,,,,,,,,,,,,,,,,,,,,,,,1,,,,,,,,,,,,,,,,,,,,,,,,,,,,,,,,,,,,,3,,,,,,,,,,,,,,,,,,,,,,,,569,-0.026851852,-0.399074074,1,0,0,cont_buttonBS,0,2,2,2,1
,,5f0b72abf1f9950dce8c0f1e,2022-09-08_13h10.05.929,CGTgamblingSpanTasks,2022.2.1,Win32,164.2845408,,,,,,,,,,,,,,,,,,,,,,,,,,,,,,,,,,,,,,,,,,,,,,,,,,,,,,,,,,,,,,,,,,,,,,,,,,,,,,,,,,"[4,8,5,7]",,,,,,,,,,,,,,,,,,,,,,,,,,,,,,,,,,,,,0,0,0,0,1,,,,,,,,,,,,
,,5f0b72abf1f9950dce8c0f1e,2022-09-08_13h10.05.929,CGTgamblingSpanTasks,2022.2.1,Win32,164.2845408,,,,,,,,,,,,,,,,,,,,,,,,,,,,,,,,,,,,,,,,,,,,,,,,,,,,,,,,,,,,,,,,,,,,,,,,,,,,,,,,,,"[4,8,5,7]",,,,,,,,,,,,,,,,,,,,,,,,,,,,,,,,,,,,,1,0,1,0,1,,,,,,,,,,,,
,,5f0b72abf1f9950dce8c0f1e,2022-09-08_13h10.05.929,CGTgamblingSpanTasks,2022.2.1,Win32,164.2845408,,,,,,,,,,,,,,,,,,,,,,,,,,,,,,,,,,,,,,,,,,,,,,,,,,,,,,,,,,,,,,,,,,,,,,,,,,,,,,,,,,"[4,8,5,7]",,,,,,,,,,,,,,,,,,,,,,,,,,,,,,,,,,,,,2,0,2,0,1,,,,,,,,,,,,
,,5f0b72abf1f9950dce8c0f1e,2022-09-08_13h10.05.929,CGTgamblingSpanTasks,2022.2.1,Win32,164.2845408,,,,,,,,,,,,,,,,,,,,,,,,,,,,,,,,,,,,,,,,,,,,,,,,,,,,,,,,,,,,,,,,,,,,,,,,,,,,,,,,,,"[4,8,5,7]",,,,,,,,,,,,,,,,,,,,,,,,,,,,,,,,,,,,,3,0,3,0,1,,,,,,,,,,,,
,,5f0b72abf1f9950dce8c0f1e,2022-09-08_13h10.05.929,CGTgamblingSpanTasks,2022.2.1,Win32,164.2845408,,,,,,,,,,,,,,,,,,,,,,,,,,,,,,,,,,,,,,,,,,,,,,,,,,,,,,,,,,,,,,,1,,,,,,,,,,,,,,,,,,,,,,,,,,,,,,,,,,,,,4,,,,,,,,,,,,,,,,,,,,,,,,7584,-0.067592593,-0.39537037,1,0,0,cont_buttonBS,0,3,3,3,1
,,5f0b72abf1f9950dce8c0f1e,2022-09-08_13h10.05.929,CGTgamblingSpanTasks,2022.2.1,Win32,164.2845408,,,,,,,,,,,,,,,,,,,,,,,,,,,,,,,,,,,,,,,,,,,,,,,,,,,,,,,,,,,,,,,,,,,,,,,,,,,,,,,,,,"[6,4,8,2,9]",,,,,,,,,,,,,,,,,,,,,,,,,,,,,,,,,,,,,0,0,0,0,1,,,,,,,,,,,,
,,5f0b72abf1f9950dce8c0f1e,2022-09-08_13h10.05.929,CGTgamblingSpanTasks,2022.2.1,Win32,164.2845408,,,,,,,,,,,,,,,,,,,,,,,,,,,,,,,,,,,,,,,,,,,,,,,,,,,,,,,,,,,,,,,,,,,,,,,,,,,,,,,,,,"[6,4,8,2,9]",,,,,,,,,,,,,,,,,,,,,,,,,,,,,,,,,,,,,1,0,1,0,1,,,,,,,,,,,,
,,5f0b72abf1f9950dce8c0f1e,2022-09-08_13h10.05.929,CGTgamblingSpanTasks,2022.2.1,Win32,164.2845408,,,,,,,,,,,,,,,,,,,,,,,,,,,,,,,,,,,,,,,,,,,,,,,,,,,,,,,,,,,,,,,,,,,,,,,,,,,,,,,,,,"[6,4,8,2,9]",,,,,,,,,,,,,,,,,,,,,,,,,,,,,,,,,,,,,2,0,2,0,1,,,,,,,,,,,,
,,5f0b72abf1f9950dce8c0f1e,2022-09-08_13h10.05.929,CGTgamblingSpanTasks,2022.2.1,Win32,164.2845408,,,,,,,,,,,,,,,,,,,,,,,,,,,,,,,,,,,,,,,,,,,,,,,,,,,,,,,,,,,,,,,,,,,,,,,,,,,,,,,,,,"[6,4,8,2,9]",,,,,,,,,,,,,,,,,,,,,,,,,,,,,,,,,,,,,3,0,3,0,1,,,,,,,,,,,,
,,5f0b72abf1f9950dce8c0f1e,2022-09-08_13h10.05.929,CGTgamblingSpanTasks,2022.2.1,Win32,164.2845408,,,,,,,,,,,,,,,,,,,,,,,,,,,,,,,,,,,,,,,,,,,,,,,,,,,,,,,,,,,,,,,,,,,,,,,,,,,,,,,,,,"[6,4,8,2,9]",,,,,,,,,,,,,,,,,,,,,,,,,,,,,,,,,,,,,4,0,4,0,1,,,,,,,,,,,,
,,5f0b72abf1f9950dce8c0f1e,2022-09-08_13h10.05.929,CGTgamblingSpanTasks,2022.2.1,Win32,164.2845408,,,,,,,,,,,,,,,,,,,,,,,,,,,,,,,,,,,,,,,,,,,,,,,,,,,,,,,,,,,,,,,0,,,,,,,,,,,,,,,,,,,,,,,,,,,,,,,,,,,,,5,,,,,,,,,,,,,,,,,,,,,,,,9284,-0.067592593,-0.39537037,1,0,0,cont_buttonBS,0,4,4,4,1
,,5f0b72abf1f9950dce8c0f1e,2022-09-08_13h10.05.929,CGTgamblingSpanTasks,2022.2.1,Win32,164.2845408,,,,,,,,,,,,,,,,,,,,,,,,,,,,,,,,,,,,,,,,,,,,,,,,,,,,,,,,,,,,,,,,,,,,,,,,,,,,,,,,,,"[8,1,5,7,6]",,,,,,,,,,,,,,,,,,,,,,,,,,,,,,,,,,,,,0,0,0,0,1,,,,,,,,,,,,
,,5f0b72abf1f9950dce8c0f1e,2022-09-08_13h10.05.929,CGTgamblingSpanTasks,2022.2.1,Win32,164.2845408,,,,,,,,,,,,,,,,,,,,,,,,,,,,,,,,,,,,,,,,,,,,,,,,,,,,,,,,,,,,,,,,,,,,,,,,,,,,,,,,,,"[8,1,5,7,6]",,,,,,,,,,,,,,,,,,,,,,,,,,,,,,,,,,,,,1,0,1,0,1,,,,,,,,,,,,
,,5f0b72abf1f9950dce8c0f1e,2022-09-08_13h10.05.929,CGTgamblingSpanTasks,2022.2.1,Win32,164.2845408,,,,,,,,,,,,,,,,,,,,,,,,,,,,,,,,,,,,,,,,,,,,,,,,,,,,,,,,,,,,,,,,,,,,,,,,,,,,,,,,,,"[8,1,5,7,6]",,,,,,,,,,,,,,,,,,,,,,,,,,,,,,,,,,,,,2,0,2,0,1,,,,,,,,,,,,
,,5f0b72abf1f9950dce8c0f1e,2022-09-08_13h10.05.929,CGTgamblingSpanTasks,2022.2.1,Win32,164.2845408,,,,,,,,,,,,,,,,,,,,,,,,,,,,,,,,,,,,,,,,,,,,,,,,,,,,,,,,,,,,,,,,,,,,,,,,,,,,,,,,,,"[8,1,5,7,6]",,,,,,,,,,,,,,,,,,,,,,,,,,,,,,,,,,,,,3,0,3,0,1,,,,,,,,,,,,
,,5f0b72abf1f9950dce8c0f1e,2022-09-08_13h10.05.929,CGTgamblingSpanTasks,2022.2.1,Win32,164.2845408,,,,,,,,,,,,,,,,,,,,,,,,,,,,,,,,,,,,,,,,,,,,,,,,,,,,,,,,,,,,,,,,,,,,,,,,,,,,,,,,,,"[8,1,5,7,6]",,,,,,,,,,,,,,,,,,,,,,,,,,,,,,,,,,,,,4,0,4,0,1,,,,,,,,,,,,
,,5f0b72abf1f9950dce8c0f1e,2022-09-08_13h10.05.929,CGTgamblingSpanTasks,2022.2.1,Win32,164.2845408,,,,,,,,,,,,,,,,,,,,,,,,,,,,,,,,,,,,,,,,,,,,,,,,,,,,,,,,,,,,,,,0,,,,,,,,,,,,,,,,,,,,,,,,,,,,,,,,,,,,,6,,,,,,,,,,,,,,,,,,,,,,,,67581,-0.067592593,-0.39537037,1,0,0,cont_buttonBS,0,5,5,5,1
,,5f0b72abf1f9950dce8c0f1e,2022-09-08_13h10.05.929,CGTgamblingSpanTasks,2022.2.1,Win32,164.2845408,,,,,,,,,,,,,,,,,,,,,,,,,,,,,,,,,,,,,,,,,,,,,,,,,,,,,,,,,,,,,,,,,,,,,,,,,,,,,,,,,,"[2,3,6,7]",,,,,,,,,,,,,,,,,,,,,,,,,,,,,,,,,,,,,0,0,0,0,1,,,,,,,,,,,,
,,5f0b72abf1f9950dce8c0f1e,2022-09-08_13h10.05.929,CGTgamblingSpanTasks,2022.2.1,Win32,164.2845408,,,,,,,,,,,,,,,,,,,,,,,,,,,,,,,,,,,,,,,,,,,,,,,,,,,,,,,,,,,,,,,,,,,,,,,,,,,,,,,,,,"[2,3,6,7]",,,,,,,,,,,,,,,,,,,,,,,,,,,,,,,,,,,,,1,0,1,0,1,,,,,,,,,,,,
,,5f0b72abf1f9950dce8c0f1e,2022-09-08_13h10.05.929,CGTgamblingSpanTasks,2022.2.1,Win32,164.2845408,,,,,,,,,,,,,,,,,,,,,,,,,,,,,,,,,,,,,,,,,,,,,,,,,,,,,,,,,,,,,,,,,,,,,,,,,,,,,,,,,,"[2,3,6,7]",,,,,,,,,,,,,,,,,,,,,,,,,,,,,,,,,,,,,2,0,2,0,1,,,,,,,,,,,,
,,5f0b72abf1f9950dce8c0f1e,2022-09-08_13h10.05.929,CGTgamblingSpanTasks,2022.2.1,Win32,164.2845408,,,,,,,,,,,,,,,,,,,,,,,,,,,,,,,,,,,,,,,,,,,,,,,,,,,,,,,,,,,,,,,,,,,,,,,,,,,,,,,,,,"[2,3,6,7]",,,,,,,,,,,,,,,,,,,,,,,,,,,,,,,,,,,,,3,0,3,0,1,,,,,,,,,,,,
,,5f0b72abf1f9950dce8c0f1e,2022-09-08_13h10.05.929,CGTgamblingSpanTasks,2022.2.1,Win32,164.2845408,,,,,,,,,,,,,,,,,,,,,,,,,,,,,,,,,,,,,,,,,,,,,,,,,,,,,,,,,,,,,,,0,,,,,,,,,,,,,,,,,,,,,,,,,,,,,,,,,,,,,7,,,,,,,,,,,,,,,,,,,,,,,,7453,0.087037037,-0.403703704,1,0,0,cont_buttonBS,0,6,6,6,1
,,5f0b72abf1f9950dce8c0f1e,2022-09-08_13h10.05.929,CGTgamblingSpanTasks,2022.2.1,Win32,164.2845408,,,,,,,,,,,,,,,,,,,,,,,,,,,,,,,,,,,,,,,,,,,,,,,,,,,,,,,,,,,,,,,,,,,,,,,,,,,,,,,,,,"[5,1,2,8]",,,,,,,,,,,,,,,,,,,,,,,,,,,,,,,,,,,,,0,0,0,0,1,,,,,,,,,,,,
,,5f0b72abf1f9950dce8c0f1e,2022-09-08_13h10.05.929,CGTgamblingSpanTasks,2022.2.1,Win32,164.2845408,,,,,,,,,,,,,,,,,,,,,,,,,,,,,,,,,,,,,,,,,,,,,,,,,,,,,,,,,,,,,,,,,,,,,,,,,,,,,,,,,,"[5,1,2,8]",,,,,,,,,,,,,,,,,,,,,,,,,,,,,,,,,,,,,1,0,1,0,1,,,,,,,,,,,,
,,5f0b72abf1f9950dce8c0f1e,2022-09-08_13h10.05.929,CGTgamblingSpanTasks,2022.2.1,Win32,164.2845408,,,,,,,,,,,,,,,,,,,,,,,,,,,,,,,,,,,,,,,,,,,,,,,,,,,,,,,,,,,,,,,,,,,,,,,,,,,,,,,,,,"[5,1,2,8]",,,,,,,,,,,,,,,,,,,,,,,,,,,,,,,,,,,,,2,0,2,0,1,,,,,,,,,,,,
,,5f0b72abf1f9950dce8c0f1e,2022-09-08_13h10.05.929,CGTgamblingSpanTasks,2022.2.1,Win32,164.2845408,,,,,,,,,,,,,,,,,,,,,,,,,,,,,,,,,,,,,,,,,,,,,,,,,,,,,,,,,,,,,,,,,,,,,,,,,,,,,,,,,,"[5,1,2,8]",,,,,,,,,,,,,,,,,,,,,,,,,,,,,,,,,,,,,3,0,3,0,1,,,,,,,,,,,,
,,5f0b72abf1f9950dce8c0f1e,2022-09-08_13h10.05.929,CGTgamblingSpanTasks,2022.2.1,Win32,164.2845408,,,,,,,,,,,,,,,,,,,,,,,,,,,,,,,,,,,,,,,,,,,,,,,,,,,,,,,,,,,,,,,1,,,,,,,,,,,,,,,,,,,,,,,,,,,,,,,,,,,,,8,,,,,,,,,,,,,,,,,,,,,,,,8215,-0.018518519,-0.418518519,1,0,0,cont_buttonBS,0,7,7,7,1
,,5f0b72abf1f9950dce8c0f1e,2022-09-08_13h10.05.929,CGTgamblingSpanTasks,2022.2.1,Win32,164.2845408,,,,,,,,,,,,,,,,,,,,,,,,,,,,,,,,,,,,,,,,,,,,,,,,,,,,,,,,,,,,,,,,,,,,,,,,,,,,,,,,,,"[8,3,7,6,1]",,,,,,,,,,,,,,,,,,,,,,,,,,,,,,,,,,,,,0,0,0,0,1,,,,,,,,,,,,
,,5f0b72abf1f9950dce8c0f1e,2022-09-08_13h10.05.929,CGTgamblingSpanTasks,2022.2.1,Win32,164.2845408,,,,,,,,,,,,,,,,,,,,,,,,,,,,,,,,,,,,,,,,,,,,,,,,,,,,,,,,,,,,,,,,,,,,,,,,,,,,,,,,,,"[8,3,7,6,1]",,,,,,,,,,,,,,,,,,,,,,,,,,,,,,,,,,,,,1,0,1,0,1,,,,,,,,,,,,
,,5f0b72abf1f9950dce8c0f1e,2022-09-08_13h10.05.929,CGTgamblingSpanTasks,2022.2.1,Win32,164.2845408,,,,,,,,,,,,,,,,,,,,,,,,,,,,,,,,,,,,,,,,,,,,,,,,,,,,,,,,,,,,,,,,,,,,,,,,,,,,,,,,,,"[8,3,7,6,1]",,,,,,,,,,,,,,,,,,,,,,,,,,,,,,,,,,,,,2,0,2,0,1,,,,,,,,,,,,
,,5f0b72abf1f9950dce8c0f1e,2022-09-08_13h10.05.929,CGTgamblingSpanTasks,2022.2.1,Win32,164.2845408,,,,,,,,,,,,,,,,,,,,,,,,,,,,,,,,,,,,,,,,,,,,,,,,,,,,,,,,,,,,,,,,,,,,,,,,,,,,,,,,,,"[8,3,7,6,1]",,,,,,,,,,,,,,,,,,,,,,,,,,,,,,,,,,,,,3,0,3,0,1,,,,,,,,,,,,
,,5f0b72abf1f9950dce8c0f1e,2022-09-08_13h10.05.929,CGTgamblingSpanTasks,2022.2.1,Win32,164.2845408,,,,,,,,,,,,,,,,,,,,,,,,,,,,,,,,,,,,,,,,,,,,,,,,,,,,,,,,,,,,,,,,,,,,,,,,,,,,,,,,,,"[8,3,7,6,1]",,,,,,,,,,,,,,,,,,,,,,,,,,,,,,,,,,,,,4,0,4,0,1,,,,,,,,,,,,
,,5f0b72abf1f9950dce8c0f1e,2022-09-08_13h10.05.929,CGTgamblingSpanTasks,2022.2.1,Win32,164.2845408,,,,,,,,,,,,,,,,,,,,,,,,,,,,,,,,,,,,,,,,,,,,,,,,,,,,,,,,,,,,,,,1,,,,,,,,,,,,,,,,,,,,,,,,,,,,,,,,,,,,,9,,,,,,,,,,,,,,,,,,,,,,,,16738,-0.080555556,-0.396296296,1,0,0,cont_buttonBS,0,8,8,8,1
,,5f0b72abf1f9950dce8c0f1e,2022-09-08_13h10.05.929,CGTgamblingSpanTasks,2022.2.1,Win32,164.2845408,,,,,,,,,,,,,,,,,,,,,,,,,,,,,,,,,,,,,,,,,,,,,,,,,,,,,,,,,,,,,,,,,,,,,,,,,,,,,,,,,,"[9,1,6,2,4,5]",,,,,,,,,,,,,,,,,,,,,,,,,,,,,,,,,,,,,0,0,0,0,1,,,,,,,,,,,,
,,5f0b72abf1f9950dce8c0f1e,2022-09-08_13h10.05.929,CGTgamblingSpanTasks,2022.2.1,Win32,164.2845408,,,,,,,,,,,,,,,,,,,,,,,,,,,,,,,,,,,,,,,,,,,,,,,,,,,,,,,,,,,,,,,,,,,,,,,,,,,,,,,,,,"[9,1,6,2,4,5]",,,,,,,,,,,,,,,,,,,,,,,,,,,,,,,,,,,,,1,0,1,0,1,,,,,,,,,,,,
,,5f0b72abf1f9950dce8c0f1e,2022-09-08_13h10.05.929,CGTgamblingSpanTasks,2022.2.1,Win32,164.2845408,,,,,,,,,,,,,,,,,,,,,,,,,,,,,,,,,,,,,,,,,,,,,,,,,,,,,,,,,,,,,,,,,,,,,,,,,,,,,,,,,,"[9,1,6,2,4,5]",,,,,,,,,,,,,,,,,,,,,,,,,,,,,,,,,,,,,2,0,2,0,1,,,,,,,,,,,,
,,5f0b72abf1f9950dce8c0f1e,2022-09-08_13h10.05.929,CGTgamblingSpanTasks,2022.2.1,Win32,164.2845408,,,,,,,,,,,,,,,,,,,,,,,,,,,,,,,,,,,,,,,,,,,,,,,,,,,,,,,,,,,,,,,,,,,,,,,,,,,,,,,,,,"[9,1,6,2,4,5]",,,,,,,,,,,,,,,,,,,,,,,,,,,,,,,,,,,,,3,0,3,0,1,,,,,,,,,,,,
,,5f0b72abf1f9950dce8c0f1e,2022-09-08_13h10.05.929,CGTgamblingSpanTasks,2022.2.1,Win32,164.2845408,,,,,,,,,,,,,,,,,,,,,,,,,,,,,,,,,,,,,,,,,,,,,,,,,,,,,,,,,,,,,,,,,,,,,,,,,,,,,,,,,,"[9,1,6,2,4,5]",,,,,,,,,,,,,,,,,,,,,,,,,,,,,,,,,,,,,4,0,4,0,1,,,,,,,,,,,,
,,5f0b72abf1f9950dce8c0f1e,2022-09-08_13h10.05.929,CGTgamblingSpanTasks,2022.2.1,Win32,164.2845408,,,,,,,,,,,,,,,,,,,,,,,,,,,,,,,,,,,,,,,,,,,,,,,,,,,,,,,,,,,,,,,,,,,,,,,,,,,,,,,,,,"[9,1,6,2,4,5]",,,,,,,,,,,,,,,,,,,,,,,,,,,,,,,,,,,,,5,0,5,0,1,,,,,,,,,,,,
,,5f0b72abf1f9950dce8c0f1e,2022-09-08_13h10.05.929,CGTgamblingSpanTasks,2022.2.1,Win32,164.2845408,,,,,,,,,,,,,,,,,,,,,,,,,,,,,,,,,,,,,,,,,,,,,,,,,,,,,,,,,,,,,,,0,,,,,,,,,,,,,,,,,,,,,,,,,,,,,,,,,,,,,10,,,,,,,,,,,,,,,,,,,,,,,,34567,-0.02037037,-0.383333333,1,0,0,cont_buttonBS,0,9,9,9,1
,,5f0b72abf1f9950dce8c0f1e,2022-09-08_13h10.05.929,CGTgamblingSpanTasks,2022.2.1,Win32,164.2845408,,,,,,,,,,,,,,,,,,,,,,,,,,,,,,,,,,,,,,,,,,,,,,,,,,,,,,,,,,,,,,,,,,,,,,,,,,,,,,,,,,"[5,1,9,8,2,6]",,,,,,,,,,,,,,,,,,,,,,,,,,,,,,,,,,,,,0,0,0,0,1,,,,,,,,,,,,
,,5f0b72abf1f9950dce8c0f1e,2022-09-08_13h10.05.929,CGTgamblingSpanTasks,2022.2.1,Win32,164.2845408,,,,,,,,,,,,,,,,,,,,,,,,,,,,,,,,,,,,,,,,,,,,,,,,,,,,,,,,,,,,,,,,,,,,,,,,,,,,,,,,,,"[5,1,9,8,2,6]",,,,,,,,,,,,,,,,,,,,,,,,,,,,,,,,,,,,,1,0,1,0,1,,,,,,,,,,,,
,,5f0b72abf1f9950dce8c0f1e,2022-09-08_13h10.05.929,CGTgamblingSpanTasks,2022.2.1,Win32,164.2845408,,,,,,,,,,,,,,,,,,,,,,,,,,,,,,,,,,,,,,,,,,,,,,,,,,,,,,,,,,,,,,,,,,,,,,,,,,,,,,,,,,"[5,1,9,8,2,6]",,,,,,,,,,,,,,,,,,,,,,,,,,,,,,,,,,,,,2,0,2,0,1,,,,,,,,,,,,
,,5f0b72abf1f9950dce8c0f1e,2022-09-08_13h10.05.929,CGTgamblingSpanTasks,2022.2.1,Win32,164.2845408,,,,,,,,,,,,,,,,,,,,,,,,,,,,,,,,,,,,,,,,,,,,,,,,,,,,,,,,,,,,,,,,,,,,,,,,,,,,,,,,,,"[5,1,9,8,2,6]",,,,,,,,,,,,,,,,,,,,,,,,,,,,,,,,,,,,,3,0,3,0,1,,,,,,,,,,,,
,,5f0b72abf1f9950dce8c0f1e,2022-09-08_13h10.05.929,CGTgamblingSpanTasks,2022.2.1,Win32,164.2845408,,,,,,,,,,,,,,,,,,,,,,,,,,,,,,,,,,,,,,,,,,,,,,,,,,,,,,,,,,,,,,,,,,,,,,,,,,,,,,,,,,"[5,1,9,8,2,6]",,,,,,,,,,,,,,,,,,,,,,,,,,,,,,,,,,,,,4,0,4,0,1,,,,,,,,,,,,
