initITIstatic,initITIdynamic,participant,date,expName,psychopyVersion,OS,frameRate,inst1.keys,inst1.rt,startPracResp.keys,startPracResp.rt,choice1.keys,choice1.rt,outcome,extraITI,trials.thisRepN,trials.thisTrialN,trials.thisN,trials.thisIndex,trials.ran,riskyGain,riskyLoss,alternative,isi,iti,loc,postPractResp.keys,postPractResp.rt,realloc,realChoice.keys,realChoice.rt,outcomes,choices,actualITI,init ITI,staticRDM.thisRepN,staticRDM.thisTrialN,staticRDM.thisN,staticRDM.thisIndex,staticRDM.ran,riskyoption1,riskyoption2,safeoption,ischecktrial,dynamicChoiceSetName,dynamicChoiceSetPath,bestRho,bestMu,trials_2.thisRepN,trials_2.thisTrialN,trials_2.thisN,trials_2.thisIndex,trials_2.ran,key_resp.keys,key_resp.rt,dynamicRDM.thisRepN,dynamicRDM.thisTrialN,dynamicRDM.thisN,dynamicRDM.thisIndex,dynamicRDM.ran,choiceP,easy0difficult1,stopBreak.keys,stopBreak.rt,movealong.keys,movealong.rt,startPractice.keys,startPractice.rt,textboxPractice.text,correct,mousePractice.x,mousePractice.y,mousePractice.leftButton,mousePractice.midButton,mousePractice.rightButton,mousePractice.clicked_name,trialFSPractice.thisRepN,trialFSPractice.thisTrialN,trialFSPractice.thisN,trialFSPractice.thisIndex,trialFSPractice.ran,digitSpanForward,digits,digitsReverse,digitSpanReverse,digitsReverseCorrAnswer,startFSreal.keys,startFSreal.rt,digitsForTrial,digitLoop.thisRepN,digitLoop.thisTrialN,digitLoop.thisN,digitLoop.thisIndex,digitLoop.ran,textbox.text,mouse_3.x,mouse_3.y,mouse_3.leftButton,mouse_3.midButton,mouse_3.rightButton,mouse_3.clicked_name,trialsFS.thisRepN,trialsFS.thisTrialN,trialsFS.thisN,trialsFS.thisIndex,trialsFS.ran,trialNumber,moveToBS.keys,moveToBS.rt,startBSprac.keys,startBSprac.rt,textboxPractice_2.text,mousePractice_2.x,mousePractice_2.y,mousePractice_2.leftButton,mousePractice_2.midButton,mousePractice_2.rightButton,mousePractice_2.clicked_name,trialsPracticeBS.thisRepN,trialsPracticeBS.thisTrialN,trialsPracticeBS.thisN,trialsPracticeBS.thisIndex,trialsPracticeBS.ran,startBSreal.keys,startBSreal.rt,digitLoopBS.thisRepN,digitLoopBS.thisTrialN,digitLoopBS.thisN,digitLoopBS.thisIndex,digitLoopBS.ran,textboxBS.text,mouseBS.x,mouseBS.y,mouseBS.leftButton,mouseBS.midButton,mouseBS.rightButton,mouseBS.clicked_name,trialsBS.thisRepN,trialsBS.thisTrialN,trialsBS.thisN,trialsBS.thisIndex,trialsBS.ran
"[1,1.5,1,1.5,1,1.5,1.5,1.5,1,1,1,1.5,1,1.5,1.5,1,1.5,1.5,1.5,1.5,1,1.5,1,1,1.5,1.5,1.5,1,1,1.5,1,1.5,1.5,1.5,1,1,1.5,1,1.5,1,1,1,1,1,1,1,1.5,1.5,1.5,1]","[1.5,1.5,1.5,1,1.5,1.5,1.5,1.5,1.5,1,1,1.5,1,1,1,1.5,1,1.5,1,1,1.5,1.5,1.5,1,1,1,1.5,1,1.5,1,1,1,1.5,1.5,1,1,1,1.5,1.5,1.5,1.5,1.5,1,1,1,1,1.5,1,1.5,1,1,1.5,1,1.5,1.5,1,1.5,1,1,1.5,1.5,1,1,1,1,1.5,1.5,1.5,1.5,1,1.5,1,1.5,1.5,1.5,1,1,1,1.5,1.5,1.5,1.5,1,1,1,1.5,1,1,1,1,1,1,1.5,1,1.5,1,1.5,1.5,1.5,1.5,1,1,1,1.5,1,1.5,1,1,1.5,1.5,1,1.5,1,1,1.5,1.5,1.5,1,1.5,1.5]",5f58d7941af44708223b94da,2022-09-08_13h57.02.896,CGTgamblingSpanTasks,2022.2.1,Win32,60.0060006,,,,,,,,,,,,,,,,,,,,,,,,,,,,,,,,,,,,,,,,,,,,,,,,,,,,,,,,,,,,,,,,,,,,,,,,,,,,,,,,,,,,,,,,,,,,,,,,,,,,,,,,,,,,,,,,,,,,,,,,,,,,,,,,,,,,,,,
,,5f58d7941af44708223b94da,2022-09-08_13h57.02.896,CGTgamblingSpanTasks,2022.2.1,Win32,60.0060006,return,10.4056,,,,,,,,,,,,,,,,,,,,,,,,,,,,,,,,,,,,,,,,,,,,,,,,,,,,,,,,,,,,,,,,,,,,,,,,,,,,,,,,,,,,,,,,,,,,,,,,,,,,,,,,,,,,,,,,,,,,,,,,,,,,,,,,,,,,,
,,5f58d7941af44708223b94da,2022-09-08_13h57.02.896,CGTgamblingSpanTasks,2022.2.1,Win32,60.0060006,,,v,1.4284,,,,,,,,,,,,,,,,,,,,,,,,,,,,,,,,,,,,,,,,,,,,,,,,,,,,,,,,,,,,,,,,,,,,,,,,,,,,,,,,,,,,,,,,,,,,,,,,,,,,,,,,,,,,,,,,,,,,,,,,,,,,,,,,,,,
,,5f58d7941af44708223b94da,2022-09-08_13h57.02.896,CGTgamblingSpanTasks,2022.2.1,Win32,60.0060006,,,,,n,2.5271,9.45,1.4729,0,0,0,0,1,18.23,0,9.45,2,1,1,,,,,,,,,,,,,,,,,,,,,,,,,,,,,,,,,,,,,,,,,,,,,,,,,,,,,,,,,,,,,,,,,,,,,,,,,,,,,,,,,,,,,,,,,,,,,,,,,,,,,,,,,,,,,,,,,,,,
,,5f58d7941af44708223b94da,2022-09-08_13h57.02.896,CGTgamblingSpanTasks,2022.2.1,Win32,60.0060006,,,,,n,1.7919,35.16,2.2081,0,1,1,1,1,53.27,0,35.16,1,1.5,1,,,,,,,,,,,,,,,,,,,,,,,,,,,,,,,,,,,,,,,,,,,,,,,,,,,,,,,,,,,,,,,,,,,,,,,,,,,,,,,,,,,,,,,,,,,,,,,,,,,,,,,,,,,,,,,,,,,,
,,5f58d7941af44708223b94da,2022-09-08_13h57.02.896,CGTgamblingSpanTasks,2022.2.1,Win32,60.0060006,,,,,n,1.1649,8.27,2.8351,0,2,2,2,1,8.27,0,1.15,1,1.5,2,,,,,,,,,,,,,,,,,,,,,,,,,,,,,,,,,,,,,,,,,,,,,,,,,,,,,,,,,,,,,,,,,,,,,,,,,,,,,,,,,,,,,,,,,,,,,,,,,,,,,,,,,,,,,,,,,,,,
,,5f58d7941af44708223b94da,2022-09-08_13h57.02.896,CGTgamblingSpanTasks,2022.2.1,Win32,60.0060006,,,,,n,1.2977,40.41,2.7023,0,3,3,3,1,45.88,0,40.41,3,1,1,,,,,,,,,,,,,,,,,,,,,,,,,,,,,,,,,,,,,,,,,,,,,,,,,,,,,,,,,,,,,,,,,,,,,,,,,,,,,,,,,,,,,,,,,,,,,,,,,,,,,,,,,,,,,,,,,,,,
,,5f58d7941af44708223b94da,2022-09-08_13h57.02.896,CGTgamblingSpanTasks,2022.2.1,Win32,60.0060006,,,,,v,1.4006,11.96,2.5994,0,4,4,4,1,21.56,0,11.96,1,1.5,2,,,,,,,,,,,,,,,,,,,,,,,,,,,,,,,,,,,,,,,,,,,,,,,,,,,,,,,,,,,,,,,,,,,,,,,,,,,,,,,,,,,,,,,,,,,,,,,,,,,,,,,,,,,,,,,,,,,,
,,5f58d7941af44708223b94da,2022-09-08_13h57.02.896,CGTgamblingSpanTasks,2022.2.1,Win32,60.0060006,,,,,,,,,,,,,,,,,,,,v,26.2631,,,,,,,,,,,,,,,,,,,,,,,,,,,,,,,,,,,,,,,,,,,,,,,,,,,,,,,,,,,,,,,,,,,,,,,,,,,,,,,,,,,,,,,,,,,,,,,,,,,,,,,,,,,,,,,,,,
,,5f58d7941af44708223b94da,2022-09-08_13h57.02.896,CGTgamblingSpanTasks,2022.2.1,Win32,60.0060006,,,,,,,,1.4162,,,,,,,,,,,,,,2,v,2.5838,5.03,0,2.4162,1,0,0,0,8,1,13.94,0,5.03,0,,,,,,,,,,,,,,,,,,,,,,,,,,,,,,,,,,,,,,,,,,,,,,,,,,,,,,,,,,,,,,,,,,,,,,,,,,,,,,,,,,,,,,,,,,,,,,,,,,
,,5f58d7941af44708223b94da,2022-09-08_13h57.02.896,CGTgamblingSpanTasks,2022.2.1,Win32,60.0060006,,,,,,,,2.6947,,,,,,,,,,,,,,2,v,1.3053,6.29,0,4.1947,1.5,0,1,1,24,1,11.43,0,6.29,0,,,,,,,,,,,,,,,,,,,,,,,,,,,,,,,,,,,,,,,,,,,,,,,,,,,,,,,,,,,,,,,,,,,,,,,,,,,,,,,,,,,,,,,,,,,,,,,,,,
,,5f58d7941af44708223b94da,2022-09-08_13h57.02.896,CGTgamblingSpanTasks,2022.2.1,Win32,60.0060006,,,,,,,,2.6128,,,,,,,,,,,,,,2,v,1.3872,8.36,0,3.6128,1,0,2,2,13,1,19.28,0,8.36,0,,,,,,,,,,,,,,,,,,,,,,,,,,,,,,,,,,,,,,,,,,,,,,,,,,,,,,,,,,,,,,,,,,,,,,,,,,,,,,,,,,,,,,,,,,,,,,,,,,
,,5f58d7941af44708223b94da,2022-09-08_13h57.02.896,CGTgamblingSpanTasks,2022.2.1,Win32,60.0060006,,,,,,,,2.1455,,,,,,,,,,,,,,2,n,1.8545,13.04,1,3.6455,1.5,0,3,3,12,1,13.04,0,5.48,0,,,,,,,,,,,,,,,,,,,,,,,,,,,,,,,,,,,,,,,,,,,,,,,,,,,,,,,,,,,,,,,,,,,,,,,,,,,,,,,,,,,,,,,,,,,,,,,,,,
,,5f58d7941af44708223b94da,2022-09-08_13h57.02.896,CGTgamblingSpanTasks,2022.2.1,Win32,60.0060006,,,,,,,,1.8241,,,,,,,,,,,,,,2,v,2.1759,9.03,0,2.8241,1,0,4,4,19,1,17.94,0,9.03,0,,,,,,,,,,,,,,,,,,,,,,,,,,,,,,,,,,,,,,,,,,,,,,,,,,,,,,,,,,,,,,,,,,,,,,,,,,,,,,,,,,,,,,,,,,,,,,,,,,
,,5f58d7941af44708223b94da,2022-09-08_13h57.02.896,CGTgamblingSpanTasks,2022.2.1,Win32,60.0060006,,,,,,,,2.9173,,,,,,,,,,,,,,1,v,1.0827,0,1,4.4173,1.5,0,5,5,42,1,19.86,0,0,1,,,,,,,,,,,,,,,,,,,,,,,,,,,,,,,,,,,,,,,,,,,,,,,,,,,,,,,,,,,,,,,,,,,,,,,,,,,,,,,,,,,,,,,,,,,,,,,,,,
,,5f58d7941af44708223b94da,2022-09-08_13h57.02.896,CGTgamblingSpanTasks,2022.2.1,Win32,60.0060006,,,,,,,,2.3802,,,,,,,,,,,,,,1,n,1.6198,10.27,0,3.8802,1.5,0,6,6,35,1,15.47,0,10.27,0,,,,,,,,,,,,,,,,,,,,,,,,,,,,,,,,,,,,,,,,,,,,,,,,,,,,,,,,,,,,,,,,,,,,,,,,,,,,,,,,,,,,,,,,,,,,,,,,,,
,,5f58d7941af44708223b94da,2022-09-08_13h57.02.896,CGTgamblingSpanTasks,2022.2.1,Win32,60.0060006,,,,,,,,2.5653,,,,,,,,,,,,,,1,n,1.4347,6.94,0,4.0653,1.5,0,7,7,38,1,10.12,0,6.94,0,,,,,,,,,,,,,,,,,,,,,,,,,,,,,,,,,,,,,,,,,,,,,,,,,,,,,,,,,,,,,,,,,,,,,,,,,,,,,,,,,,,,,,,,,,,,,,,,,,
,,5f58d7941af44708223b94da,2022-09-08_13h57.02.896,CGTgamblingSpanTasks,2022.2.1,Win32,60.0060006,,,,,,,,3.0212,,,,,,,,,,,,,,1,n,0.9788,10.46,0,4.0212,1,0,8,8,39,1,15.09,0,10.46,0,,,,,,,,,,,,,,,,,,,,,,,,,,,,,,,,,,,,,,,,,,,,,,,,,,,,,,,,,,,,,,,,,,,,,,,,,,,,,,,,,,,,,,,,,,,,,,,,,,
,,5f58d7941af44708223b94da,2022-09-08_13h57.02.896,CGTgamblingSpanTasks,2022.2.1,Win32,60.0060006,,,,,,,,2.449,,,,,,,,,,,,,,1,n,1.551,6.4,0,3.449,1,0,9,9,26,1,11.2,0,6.4,0,,,,,,,,,,,,,,,,,,,,,,,,,,,,,,,,,,,,,,,,,,,,,,,,,,,,,,,,,,,,,,,,,,,,,,,,,,,,,,,,,,,,,,,,,,,,,,,,,,
,,5f58d7941af44708223b94da,2022-09-08_13h57.02.896,CGTgamblingSpanTasks,2022.2.1,Win32,60.0060006,,,,,,,,2.8426,,,,,,,,,,,,,,2,v,1.1574,6.53,0,3.8426,1,0,10,10,28,1,10.95,0,6.53,0,,,,,,,,,,,,,,,,,,,,,,,,,,,,,,,,,,,,,,,,,,,,,,,,,,,,,,,,,,,,,,,,,,,,,,,,,,,,,,,,,,,,,,,,,,,,,,,,,,
,,5f58d7941af44708223b94da,2022-09-08_13h57.02.896,CGTgamblingSpanTasks,2022.2.1,Win32,60.0060006,,,,,,,,2.8955,,,,,,,,,,,,,,1,n,1.1045,5.66,0,4.3955,1.5,0,11,11,14,1,12.68,0,5.66,0,,,,,,,,,,,,,,,,,,,,,,,,,,,,,,,,,,,,,,,,,,,,,,,,,,,,,,,,,,,,,,,,,,,,,,,,,,,,,,,,,,,,,,,,,,,,,,,,,,
,,5f58d7941af44708223b94da,2022-09-08_13h57.02.896,CGTgamblingSpanTasks,2022.2.1,Win32,60.0060006,,,,,,,,3.0717,,,,,,,,,,,,,,1,n,0.9283,10.37,0,4.0717,1,0,12,12,37,1,15.27,0,10.37,0,,,,,,,,,,,,,,,,,,,,,,,,,,,,,,,,,,,,,,,,,,,,,,,,,,,,,,,,,,,,,,,,,,,,,,,,,,,,,,,,,,,,,,,,,,,,,,,,,,
,,5f58d7941af44708223b94da,2022-09-08_13h57.02.896,CGTgamblingSpanTasks,2022.2.1,Win32,60.0060006,,,,,,,,2.9151,,,,,,,,,,,,,,1,v,1.0849,0,1,4.4151,1.5,0,13,13,2,1,17.73,0,3.13,0,,,,,,,,,,,,,,,,,,,,,,,,,,,,,,,,,,,,,,,,,,,,,,,,,,,,,,,,,,,,,,,,,,,,,,,,,,,,,,,,,,,,,,,,,,,,,,,,,,
,,5f58d7941af44708223b94da,2022-09-08_13h57.02.896,CGTgamblingSpanTasks,2022.2.1,Win32,60.0060006,,,,,,,,3.1861,,,,,,,,,,,,,,1,n,0.8139,10.25,0,4.6861,1.5,0,14,14,46,1,0,0,10.25,1,,,,,,,,,,,,,,,,,,,,,,,,,,,,,,,,,,,,,,,,,,,,,,,,,,,,,,,,,,,,,,,,,,,,,,,,,,,,,,,,,,,,,,,,,,,,,,,,,,
,,5f58d7941af44708223b94da,2022-09-08_13h57.02.896,CGTgamblingSpanTasks,2022.2.1,Win32,60.0060006,,,,,,,,2.842,,,,,,,,,,,,,,1,n,1.158,6.19,0,3.842,1,0,15,15,22,1,11.62,0,6.19,0,,,,,,,,,,,,,,,,,,,,,,,,,,,,,,,,,,,,,,,,,,,,,,,,,,,,,,,,,,,,,,,,,,,,,,,,,,,,,,,,,,,,,,,,,,,,,,,,,,
,,5f58d7941af44708223b94da,2022-09-08_13h57.02.896,CGTgamblingSpanTasks,2022.2.1,Win32,60.0060006,,,,,,,,2.4703,,,,,,,,,,,,,,1,n,1.5297,10.68,0,3.9703,1.5,0,16,16,48,1,10.68,0,10.68,1,,,,,,,,,,,,,,,,,,,,,,,,,,,,,,,,,,,,,,,,,,,,,,,,,,,,,,,,,,,,,,,,,,,,,,,,,,,,,,,,,,,,,,,,,,,,,,,,,,
,,5f58d7941af44708223b94da,2022-09-08_13h57.02.896,CGTgamblingSpanTasks,2022.2.1,Win32,60.0060006,,,,,,,,0,,,,,,,,,,,,,,1,,,,,1.5,1.5,0,17,17,6,1,14.72,0,4.64,0,,,,,,,,,,,,,,,,,,,,,,,,,,,,,,,,,,,,,,,,,,,,,,,,,,,,,,,,,,,,,,,,,,,,,,,,,,,,,,,,,,,,,,,,,,,,,,,,,,
,,5f58d7941af44708223b94da,2022-09-08_13h57.02.896,CGTgamblingSpanTasks,2022.2.1,Win32,60.0060006,,,,,,,,2.9824,,,,,,,,,,,,,,2,v,1.0176,5.96,0,4.4824,1.5,0,18,18,18,1,12.08,0,5.96,0,,,,,,,,,,,,,,,,,,,,,,,,,,,,,,,,,,,,,,,,,,,,,,,,,,,,,,,,,,,,,,,,,,,,,,,,,,,,,,,,,,,,,,,,,,,,,,,,,,
,,5f58d7941af44708223b94da,2022-09-08_13h57.02.896,CGTgamblingSpanTasks,2022.2.1,Win32,60.0060006,,,,,,,,3.1905,,,,,,,,,,,,,,2,v,0.8095,9.2,0,4.6905,1.5,0,19,19,21,1,17.59,0,9.2,0,,,,,,,,,,,,,,,,,,,,,,,,,,,,,,,,,,,,,,,,,,,,,,,,,,,,,,,,,,,,,,,,,,,,,,,,,,,,,,,,,,,,,,,,,,,,,,,,,,
,,5f58d7941af44708223b94da,2022-09-08_13h57.02.896,CGTgamblingSpanTasks,2022.2.1,Win32,60.0060006,,,,,,,,3.0534,,,,,,,,,,,,,,1,v,0.9466,10.35,1,4.0534,1,0,20,20,40,1,10.35,0,0,1,,,,,,,,,,,,,,,,,,,,,,,,,,,,,,,,,,,,,,,,,,,,,,,,,,,,,,,,,,,,,,,,,,,,,,,,,,,,,,,,,,,,,,,,,,,,,,,,,,
,,5f58d7941af44708223b94da,2022-09-08_13h57.02.896,CGTgamblingSpanTasks,2022.2.1,Win32,60.0060006,,,,,,,,2.8503,,,,,,,,,,,,,,2,v,1.1497,10.15,0,4.3503,1.5,0,21,21,33,1,15.7,0,10.15,0,,,,,,,,,,,,,,,,,,,,,,,,,,,,,,,,,,,,,,,,,,,,,,,,,,,,,,,,,,,,,,,,,,,,,,,,,,,,,,,,,,,,,,,,,,,,,,,,,,
,,5f58d7941af44708223b94da,2022-09-08_13h57.02.896,CGTgamblingSpanTasks,2022.2.1,Win32,60.0060006,,,,,,,,2.9761,,,,,,,,,,,,,,2,n,1.0239,28.21,1,3.9761,1,0,22,22,1,1,28.21,0,3.89,0,,,,,,,,,,,,,,,,,,,,,,,,,,,,,,,,,,,,,,,,,,,,,,,,,,,,,,,,,,,,,,,,,,,,,,,,,,,,,,,,,,,,,,,,,,,,,,,,,,
,,5f58d7941af44708223b94da,2022-09-08_13h57.02.896,CGTgamblingSpanTasks,2022.2.1,Win32,60.0060006,,,,,,,,2.4124,,,,,,,,,,,,,,1,n,1.5876,7.73,0,3.4124,1,0,23,23,9,1,20.53,0,7.73,0,,,,,,,,,,,,,,,,,,,,,,,,,,,,,,,,,,,,,,,,,,,,,,,,,,,,,,,,,,,,,,,,,,,,,,,,,,,,,,,,,,,,,,,,,,,,,,,,,,
,,5f58d7941af44708223b94da,2022-09-08_13h57.02.896,CGTgamblingSpanTasks,2022.2.1,Win32,60.0060006,,,,,,,,2.6246,,,,,,,,,,,,,,1,n,1.3754,9.7,0,4.1246,1.5,0,24,24,27,1,16.6,0,9.7,0,,,,,,,,,,,,,,,,,,,,,,,,,,,,,,,,,,,,,,,,,,,,,,,,,,,,,,,,,,,,,,,,,,,,,,,,,,,,,,,,,,,,,,,,,,,,,,,,,,
,,5f58d7941af44708223b94da,2022-09-08_13h57.02.896,CGTgamblingSpanTasks,2022.2.1,Win32,60.0060006,,,,,,,,3.0004,,,,,,,,,,,,,,2,n,0.9996,22.97,1,4.5004,1.5,0,25,25,5,1,22.97,0,6.51,0,,,,,,,,,,,,,,,,,,,,,,,,,,,,,,,,,,,,,,,,,,,,,,,,,,,,,,,,,,,,,,,,,,,,,,,,,,,,,,,,,,,,,,,,,,,,,,,,,,
,,5f58d7941af44708223b94da,2022-09-08_13h57.02.896,CGTgamblingSpanTasks,2022.2.1,Win32,60.0060006,,,,,,,,2.8884,,,,,,,,,,,,,,1,n,1.1116,6.99,0,4.3884,1.5,0,26,26,43,1,16.11,6.99,6.99,1,,,,,,,,,,,,,,,,,,,,,,,,,,,,,,,,,,,,,,,,,,,,,,,,,,,,,,,,,,,,,,,,,,,,,,,,,,,,,,,,,,,,,,,,,,,,,,,,,,
,,5f58d7941af44708223b94da,2022-09-08_13h57.02.896,CGTgamblingSpanTasks,2022.2.1,Win32,60.0060006,,,,,,,,2.5927,,,,,,,,,,,,,,2,n,1.4073,13.1,1,3.5927,1,0,27,27,44,1,13.1,7.73,4.68,1,,,,,,,,,,,,,,,,,,,,,,,,,,,,,,,,,,,,,,,,,,,,,,,,,,,,,,,,,,,,,,,,,,,,,,,,,,,,,,,,,,,,,,,,,,,,,,,,,,
,,5f58d7941af44708223b94da,2022-09-08_13h57.02.896,CGTgamblingSpanTasks,2022.2.1,Win32,60.0060006,,,,,,,,1.9797,,,,,,,,,,,,,,1,n,2.0203,8.84,0,2.9797,1,0,28,28,17,1,18.33,0,8.84,0,,,,,,,,,,,,,,,,,,,,,,,,,,,,,,,,,,,,,,,,,,,,,,,,,,,,,,,,,,,,,,,,,,,,,,,,,,,,,,,,,,,,,,,,,,,,,,,,,,
,,5f58d7941af44708223b94da,2022-09-08_13h57.02.896,CGTgamblingSpanTasks,2022.2.1,Win32,60.0060006,,,,,,,,2.4485,,,,,,,,,,,,,,1,v,1.5515,20.03,1,3.9485,1.5,0,29,29,0,1,20.03,0,1.99,0,,,,,,,,,,,,,,,,,,,,,,,,,,,,,,,,,,,,,,,,,,,,,,,,,,,,,,,,,,,,,,,,,,,,,,,,,,,,,,,,,,,,,,,,,,,,,,,,,,
,,5f58d7941af44708223b94da,2022-09-08_13h57.02.896,CGTgamblingSpanTasks,2022.2.1,Win32,60.0060006,,,,,,,,2.9748,,,,,,,,,,,,,,1,n,1.0252,9.92,0,3.9748,1,0,30,30,49,1,6.79,0,9.92,1,,,,,,,,,,,,,,,,,,,,,,,,,,,,,,,,,,,,,,,,,,,,,,,,,,,,,,,,,,,,,,,,,,,,,,,,,,,,,,,,,,,,,,,,,,,,,,,,,,
,,5f58d7941af44708223b94da,2022-09-08_13h57.02.896,CGTgamblingSpanTasks,2022.2.1,Win32,60.0060006,,,,,,,,3.0035,,,,,,,,,,,,,,2,v,0.9965,9.36,0,4.5035,1.5,0,31,31,23,1,17.28,0,9.36,0,,,,,,,,,,,,,,,,,,,,,,,,,,,,,,,,,,,,,,,,,,,,,,,,,,,,,,,,,,,,,,,,,,,,,,,,,,,,,,,,,,,,,,,,,,,,,,,,,,
,,5f58d7941af44708223b94da,2022-09-08_13h57.02.896,CGTgamblingSpanTasks,2022.2.1,Win32,60.0060006,,,,,,,,2.7235,,,,,,,,,,,,,,2,n,1.2765,13.45,1,4.2235,1.5,0,32,32,10,1,13.45,0,5.27,0,,,,,,,,,,,,,,,,,,,,,,,,,,,,,,,,,,,,,,,,,,,,,,,,,,,,,,,,,,,,,,,,,,,,,,,,,,,,,,,,,,,,,,,,,,,,,,,,,,
,,5f58d7941af44708223b94da,2022-09-08_13h57.02.896,CGTgamblingSpanTasks,2022.2.1,Win32,60.0060006,,,,,,,,3.1228,,,,,,,,,,,,,,1,n,0.8772,3.13,0,4.6228,1.5,0,33,33,47,1,0,0,3.13,1,,,,,,,,,,,,,,,,,,,,,,,,,,,,,,,,,,,,,,,,,,,,,,,,,,,,,,,,,,,,,,,,,,,,,,,,,,,,,,,,,,,,,,,,,,,,,,,,,,
,,5f58d7941af44708223b94da,2022-09-08_13h57.02.896,CGTgamblingSpanTasks,2022.2.1,Win32,60.0060006,,,,,,,,2.6667,,,,,,,,,,,,,,2,v,1.3333,6.63,0,3.6667,1,0,34,34,30,1,10.73,0,6.63,0,,,,,,,,,,,,,,,,,,,,,,,,,,,,,,,,,,,,,,,,,,,,,,,,,,,,,,,,,,,,,,,,,,,,,,,,,,,,,,,,,,,,,,,,,,,,,,,,,,
,,5f58d7941af44708223b94da,2022-09-08_13h57.02.896,CGTgamblingSpanTasks,2022.2.1,Win32,60.0060006,,,,,,,,2.6234,,,,,,,,,,,,,,2,v,1.3766,6.08,0,3.6234,1,0,35,35,20,1,11.84,0,6.08,0,,,,,,,,,,,,,,,,,,,,,,,,,,,,,,,,,,,,,,,,,,,,,,,,,,,,,,,,,,,,,,,,,,,,,,,,,,,,,,,,,,,,,,,,,,,,,,,,,,
,,5f58d7941af44708223b94da,2022-09-08_13h57.02.896,CGTgamblingSpanTasks,2022.2.1,Win32,60.0060006,,,,,,,,2.506,,,,,,,,,,,,,,1,n,1.494,10.02,0,4.006,1.5,0,36,36,31,1,15.96,0,10.02,0,,,,,,,,,,,,,,,,,,,,,,,,,,,,,,,,,,,,,,,,,,,,,,,,,,,,,,,,,,,,,,,,,,,,,,,,,,,,,,,,,,,,,,,,,,,,,,,,,,
,,5f58d7941af44708223b94da,2022-09-08_13h57.02.896,CGTgamblingSpanTasks,2022.2.1,Win32,60.0060006,,,,,,,,3.0501,,,,,,,,,,,,,,1,n,0.9499,7.55,0,4.0501,1,0,37,37,45,1,0,0,7.55,1,,,,,,,,,,,,,,,,,,,,,,,,,,,,,,,,,,,,,,,,,,,,,,,,,,,,,,,,,,,,,,,,,,,,,,,,,,,,,,,,,,,,,,,,,,,,,,,,,,
,,5f58d7941af44708223b94da,2022-09-08_13h57.02.896,CGTgamblingSpanTasks,2022.2.1,Win32,60.0060006,,,,,,,,3.1096,,,,,,,,,,,,,,1,v,0.8904,0,1,4.6096,1.5,0,38,38,41,1,14.26,0,0,1,,,,,,,,,,,,,,,,,,,,,,,,,,,,,,,,,,,,,,,,,,,,,,,,,,,,,,,,,,,,,,,,,,,,,,,,,,,,,,,,,,,,,,,,,,,,,,,,,,
,,5f58d7941af44708223b94da,2022-09-08_13h57.02.896,CGTgamblingSpanTasks,2022.2.1,Win32,60.0060006,,,,,,,,3.2783,,,,,,,,,,,,,,2,n,0.7217,0,1,4.2783,1,0,39,39,4,1,16,0,4,0,,,,,,,,,,,,,,,,,,,,,,,,,,,,,,,,,,,,,,,,,,,,,,,,,,,,,,,,,,,,,,,,,,,,,,,,,,,,,,,,,,,,,,,,,,,,,,,,,,
,,5f58d7941af44708223b94da,2022-09-08_13h57.02.896,CGTgamblingSpanTasks,2022.2.1,Win32,60.0060006,,,,,,,,3.049,,,,,,,,,,,,,,2,v,0.951,6.88,0,4.049,1,0,40,40,36,1,10.24,0,6.88,0,,,,,,,,,,,,,,,,,,,,,,,,,,,,,,,,,,,,,,,,,,,,,,,,,,,,,,,,,,,,,,,,,,,,,,,,,,,,,,,,,,,,,,,,,,,,,,,,,,
,,5f58d7941af44708223b94da,2022-09-08_13h57.02.896,CGTgamblingSpanTasks,2022.2.1,Win32,60.0060006,,,,,,,,2.9333,,,,,,,,,,,,,,1,v,1.0667,0,1,3.9333,1,0,41,41,3,1,25.2,0,5.4,0,,,,,,,,,,,,,,,,,,,,,,,,,,,,,,,,,,,,,,,,,,,,,,,,,,,,,,,,,,,,,,,,,,,,,,,,,,,,,,,,,,,,,,,,,,,,,,,,,,
,,5f58d7941af44708223b94da,2022-09-08_13h57.02.896,CGTgamblingSpanTasks,2022.2.1,Win32,60.0060006,,,,,,,,2.929,,,,,,,,,,,,,,2,v,1.071,6.73,0,3.929,1,0,42,42,32,1,10.55,0,6.73,0,,,,,,,,,,,,,,,,,,,,,,,,,,,,,,,,,,,,,,,,,,,,,,,,,,,,,,,,,,,,,,,,,,,,,,,,,,,,,,,,,,,,,,,,,,,,,,,,,,
,,5f58d7941af44708223b94da,2022-09-08_13h57.02.896,CGTgamblingSpanTasks,2022.2.1,Win32,60.0060006,,,,,,,,2.884,,,,,,,,,,,,,,2,v,1.116,6.81,0,3.884,1,0,43,43,34,1,10.39,0,6.81,0,,,,,,,,,,,,,,,,,,,,,,,,,,,,,,,,,,,,,,,,,,,,,,,,,,,,,,,,,,,,,,,,,,,,,,,,,,,,,,,,,,,,,,,,,,,,,,,,,,
,,5f58d7941af44708223b94da,2022-09-08_13h57.02.896,CGTgamblingSpanTasks,2022.2.1,Win32,60.0060006,,,,,,,,2.2958,,,,,,,,,,,,,,1,n,1.7042,8.61,0,3.2958,1,0,44,44,15,1,18.77,0,8.61,0,,,,,,,,,,,,,,,,,,,,,,,,,,,,,,,,,,,,,,,,,,,,,,,,,,,,,,,,,,,,,,,,,,,,,,,,,,,,,,,,,,,,,,,,,,,,,,,,,,
,,5f58d7941af44708223b94da,2022-09-08_13h57.02.896,CGTgamblingSpanTasks,2022.2.1,Win32,60.0060006,,,,,,,,2.8513,,,,,,,,,,,,,,1,n,1.1487,5.82,0,3.8513,1,0,45,45,16,1,12.36,0,5.82,0,,,,,,,,,,,,,,,,,,,,,,,,,,,,,,,,,,,,,,,,,,,,,,,,,,,,,,,,,,,,,,,,,,,,,,,,,,,,,,,,,,,,,,,,,,,,,,,,,,
,,5f58d7941af44708223b94da,2022-09-08_13h57.02.896,CGTgamblingSpanTasks,2022.2.1,Win32,60.0060006,,,,,,,,2.6235,,,,,,,,,,,,,,1,n,1.3765,9.87,0,4.1235,1.5,0,46,46,29,1,16.26,0,9.87,0,,,,,,,,,,,,,,,,,,,,,,,,,,,,,,,,,,,,,,,,,,,,,,,,,,,,,,,,,,,,,,,,,,,,,,,,,,,,,,,,,,,,,,,,,,,,,,,,,,
,,5f58d7941af44708223b94da,2022-09-08_13h57.02.896,CGTgamblingSpanTasks,2022.2.1,Win32,60.0060006,,,,,,,,2.8887,,,,,,,,,,,,,,2,v,1.1113,9.5,0,4.3887,1.5,0,47,47,25,1,17,0,9.5,0,,,,,,,,,,,,,,,,,,,,,,,,,,,,,,,,,,,,,,,,,,,,,,,,,,,,,,,,,,,,,,,,,,,,,,,,,,,,,,,,,,,,,,,,,,,,,,,,,,
,,5f58d7941af44708223b94da,2022-09-08_13h57.02.896,CGTgamblingSpanTasks,2022.2.1,Win32,60.0060006,,,,,,,,2.9037,,,,,,,,,,,,,,2,n,1.0963,21.32,1,4.4037,1.5,0,48,48,7,1,21.32,0,7.34,0,,,,,,,,,,,,,,,,,,,,,,,,,,,,,,,,,,,,,,,,,,,,,,,,,,,,,,,,,,,,,,,,,,,,,,,,,,,,,,,,,,,,,,,,,,,,,,,,,,
,,5f58d7941af44708223b94da,2022-09-08_13h57.02.896,CGTgamblingSpanTasks,2022.2.1,Win32,60.0060006,,,,,,,,2.5911,,,,,,,,,,,,,,1,n,1.4089,8.07,0,3.5911,1,0,49,49,11,1,19.86,0,8.07,0,,,,,,,,,,,,,,,,,,,,,,,,,,,,,,,,,,,,,,,,,,,,,,,,,,,,,,,,,,,,,,,,,,,,,,,,,,,,,,,,,,,,,,,,,,,,,,,,,,
,,5f58d7941af44708223b94da,2022-09-08_13h57.02.896,CGTgamblingSpanTasks,2022.2.1,Win32,60.0060006,,,,,,,,,,,,,,,,,,,,,,,,,,,,,,,,,,,,,,bespoke_choiceset_rhoInd036_muInd052.csv,bespoke_choicesets/bespoke_choiceset_rhoInd036_muInd052.csv,36,52,0,0,0,0,1,,,,,,,,,,,,,,,,,,,,,,,,,,,,,,,,,,,,,,,,,,,,,,,,,,,,,,,,,,,,,,,,,,,,,,,,,,,,,,,,,,,,,,,,,
,,5f58d7941af44708223b94da,2022-09-08_13h57.02.896,CGTgamblingSpanTasks,2022.2.1,Win32,60.0060006,,,,,,,,,,,,,,,,,,,,,,,,,,,,,,,,,,,,,,,,,,,,,,,,,,,,,,,,,,,,,,,,,,,,,,,,,,,,,,,,,,,,,,,,,,,,,,,,,,,,,,,,,,,,,,,,,,,,,,,,,,,,,,,,,,,,,,,
,,5f58d7941af44708223b94da,2022-09-08_13h57.02.896,CGTgamblingSpanTasks,2022.2.1,Win32,60.0060006,,,,,,,,,,,,,,,,,,,,,,,,,,,,,,,,,,,,,,,,,,,,,,,v,7.09,,,,,,,,,,,,,,,,,,,,,,,,,,,,,,,,,,,,,,,,,,,,,,,,,,,,,,,,,,,,,,,,,,,,,,,,,,,,,,,,,,,,,,,
,,5f58d7941af44708223b94da,2022-09-08_13h57.02.896,CGTgamblingSpanTasks,2022.2.1,Win32,60.0060006,,,,,,,,2.3209,,,,,,,,,,,,,,1,v,1.6791,0,1,3.8209,1.5,,,,,,21.46599803,0,0.059789256,,,,,,,,,,,,,0,0,0,8,1,0.909019081,0,,,,,,,,,,,,,,,,,,,,,,,,,,,,,,,,,,,,,,,,,,,,,,,,,,,,,,,,,,,,,,,,,,,,,,,,,,,,,,,,
,,5f58d7941af44708223b94da,2022-09-08_13h57.02.896,CGTgamblingSpanTasks,2022.2.1,Win32,60.0060006,,,,,,,,2.918,,,,,,,,,,,,,,1,v,1.082,27.93093084,1,4.418,1.5,,,,,,27.93093084,0,0.050207531,,,,,,,,,,,,,0,1,1,83,1,0.920505936,0,,,,,,,,,,,,,,,,,,,,,,,,,,,,,,,,,,,,,,,,,,,,,,,,,,,,,,,,,,,,,,,,,,,,,,,,,,,,,,,,
,,5f58d7941af44708223b94da,2022-09-08_13h57.02.896,CGTgamblingSpanTasks,2022.2.1,Win32,60.0060006,,,,,,,,3.0209,,,,,,,,,,,,,,2,n,0.9791,11.08143071,1,4.5209,1.5,,,,,,11.08143071,0,1.207538756,,,,,,,,,,,,,0,2,2,84,1,0.475047453,1,,,,,,,,,,,,,,,,,,,,,,,,,,,,,,,,,,,,,,,,,,,,,,,,,,,,,,,,,,,,,,,,,,,,,,,,,,,,,,,,
,,5f58d7941af44708223b94da,2022-09-08_13h57.02.896,CGTgamblingSpanTasks,2022.2.1,Win32,60.0060006,,,,,,,,3.1247,,,,,,,,,,,,,,2,n,0.8753,0,1,4.1247,1,,,,,,22.25959835,0,0.065383587,,,,,,,,,,,,,0,3,3,97,1,0.907413875,0,,,,,,,,,,,,,,,,,,,,,,,,,,,,,,,,,,,,,,,,,,,,,,,,,,,,,,,,,,,,,,,,,,,,,,,,,,,,,,,,
,,5f58d7941af44708223b94da,2022-09-08_13h57.02.896,CGTgamblingSpanTasks,2022.2.1,Win32,60.0060006,,,,,,,,3.1123,,,,,,,,,,,,,,2,n,0.8877,19.3050342,1,4.6123,1.5,,,,,,19.3050342,0,2.030232342,,,,,,,,,,,,,0,4,4,73,1,0.484573227,1,,,,,,,,,,,,,,,,,,,,,,,,,,,,,,,,,,,,,,,,,,,,,,,,,,,,,,,,,,,,,,,,,,,,,,,,,,,,,,,,
,,5f58d7941af44708223b94da,2022-09-08_13h57.02.896,CGTgamblingSpanTasks,2022.2.1,Win32,60.0060006,,,,,,,,2.9684,,,,,,,,,,,,,,1,n,1.0316,11.93550497,0,4.4684,1.5,,,,,,14.20587264,0,11.93550497,,,,,,,,,,,,,0,5,5,21,1,0.041340301,0,,,,,,,,,,,,,,,,,,,,,,,,,,,,,,,,,,,,,,,,,,,,,,,,,,,,,,,,,,,,,,,,,,,,,,,,,,,,,,,,
,,5f58d7941af44708223b94da,2022-09-08_13h57.02.896,CGTgamblingSpanTasks,2022.2.1,Win32,60.0060006,,,,,,,,2.6884,,,,,,,,,,,,,,1,n,1.3116,6.833409611,0,4.1884,1.5,,,,,,6.325091157,0,6.833409611,,,,,,,,,,,,,0,6,6,58,1,0.027113638,0,,,,,,,,,,,,,,,,,,,,,,,,,,,,,,,,,,,,,,,,,,,,,,,,,,,,,,,,,,,,,,,,,,,,,,,,,,,,,,,,
,,5f58d7941af44708223b94da,2022-09-08_13h57.02.896,CGTgamblingSpanTasks,2022.2.1,Win32,60.0060006,,,,,,,,2.495,,,,,,,,,,,,,,1,n,1.505,5.526483034,0,3.995,1.5,,,,,,9.725876653,0,5.526483034,,,,,,,,,,,,,0,7,7,44,1,0.082550696,0,,,,,,,,,,,,,,,,,,,,,,,,,,,,,,,,,,,,,,,,,,,,,,,,,,,,,,,,,,,,,,,,,,,,,,,,,,,,,,,,
,,5f58d7941af44708223b94da,2022-09-08_13h57.02.896,CGTgamblingSpanTasks,2022.2.1,Win32,60.0060006,,,,,,,,2.2858,,,,,,,,,,,,,,2,v,1.7142,8.830252162,0,3.7858,1.5,,,,,,15.73000491,0,8.830252162,,,,,,,,,,,,,0,8,8,95,1,0.084193143,0,,,,,,,,,,,,,,,,,,,,,,,,,,,,,,,,,,,,,,,,,,,,,,,,,,,,,,,,,,,,,,,,,,,,,,,,,,,,,,,,
,,5f58d7941af44708223b94da,2022-09-08_13h57.02.896,CGTgamblingSpanTasks,2022.2.1,Win32,60.0060006,,,,,,,,2.687,,,,,,,,,,,,,,1,v,1.313,27.12325385,1,3.687,1,,,,,,27.12325385,0,0.080932047,,,,,,,,,,,,,0,9,9,14,1,0.906929184,0,,,,,,,,,,,,,,,,,,,,,,,,,,,,,,,,,,,,,,,,,,,,,,,,,,,,,,,,,,,,,,,,,,,,,,,,,,,,,,,,
,,5f58d7941af44708223b94da,2022-09-08_13h57.02.896,CGTgamblingSpanTasks,2022.2.1,Win32,60.0060006,,,,,,,,2.9072,,,,,,,,,,,,,,1,v,1.0928,0,1,3.9072,1,,,,,,27.37527992,0,2.860319095,,,,,,,,,,,,,0,10,10,39,1,0.486304156,1,,,,,,,,,,,,,,,,,,,,,,,,,,,,,,,,,,,,,,,,,,,,,,,,,,,,,,,,,,,,,,,,,,,,,,,,,,,,,,,,
,,5f58d7941af44708223b94da,2022-09-08_13h57.02.896,CGTgamblingSpanTasks,2022.2.1,Win32,60.0060006,,,,,,,,1.9578,,,,,,,,,,,,,,2,n,2.0422,24.479109,1,3.4578,1.5,,,,,,24.479109,0,0.089582697,,,,,,,,,,,,,0,11,11,89,1,0.900200232,0,,,,,,,,,,,,,,,,,,,,,,,,,,,,,,,,,,,,,,,,,,,,,,,,,,,,,,,,,,,,,,,,,,,,,,,,,,,,,,,,
,,5f58d7941af44708223b94da,2022-09-08_13h57.02.896,CGTgamblingSpanTasks,2022.2.1,Win32,60.0060006,,,,,,,,1.4292,,,,,,,,,,,,,,2,n,2.5708,0,1,2.4292,1,,,,,,18.20422443,0,1.635040165,,,,,,,,,,,,,0,12,12,82,1,0.525708991,1,,,,,,,,,,,,,,,,,,,,,,,,,,,,,,,,,,,,,,,,,,,,,,,,,,,,,,,,,,,,,,,,,,,,,,,,,,,,,,,,
,,5f58d7941af44708223b94da,2022-09-08_13h57.02.896,CGTgamblingSpanTasks,2022.2.1,Win32,60.0060006,,,,,,,,2.9389,,,,,,,,,,,,,,1,v,1.0611,27.53810185,1,3.9389,1,,,,,,27.53810185,0,0.097022401,,,,,,,,,,,,,0,13,13,50,1,0.901515865,0,,,,,,,,,,,,,,,,,,,,,,,,,,,,,,,,,,,,,,,,,,,,,,,,,,,,,,,,,,,,,,,,,,,,,,,,,,,,,,,,
,,5f58d7941af44708223b94da,2022-09-08_13h57.02.896,CGTgamblingSpanTasks,2022.2.1,Win32,60.0060006,,,,,,,,3.1815,,,,,,,,,,,,,,1,v,0.8185,0,1,4.1815,1,,,,,,27.7711693,0,2.320849632,,,,,,,,,,,,,0,14,14,94,1,0.543786368,1,,,,,,,,,,,,,,,,,,,,,,,,,,,,,,,,,,,,,,,,,,,,,,,,,,,,,,,,,,,,,,,,,,,,,,,,,,,,,,,,
,,5f58d7941af44708223b94da,2022-09-08_13h57.02.896,CGTgamblingSpanTasks,2022.2.1,Win32,60.0060006,,,,,,,,3.1617,,,,,,,,,,,,,,2,n,0.8383,0,1,4.6617,1.5,,,,,,19.68065872,0,1.843597162,,,,,,,,,,,,,0,15,15,80,1,0.514941058,1,,,,,,,,,,,,,,,,,,,,,,,,,,,,,,,,,,,,,,,,,,,,,,,,,,,,,,,,,,,,,,,,,,,,,,,,,,,,,,,,
,,5f58d7941af44708223b94da,2022-09-08_13h57.02.896,CGTgamblingSpanTasks,2022.2.1,Win32,60.0060006,,,,,,,,3.1536,,,,,,,,,,,,,,2,n,0.8464,26.11188619,1,4.1536,1,,,,,,26.11188619,0,0.081942421,,,,,,,,,,,,,0,16,16,105,1,0.905343856,0,,,,,,,,,,,,,,,,,,,,,,,,,,,,,,,,,,,,,,,,,,,,,,,,,,,,,,,,,,,,,,,,,,,,,,,,,,,,,,,,
,,5f58d7941af44708223b94da,2022-09-08_13h57.02.896,CGTgamblingSpanTasks,2022.2.1,Win32,60.0060006,,,,,,,,2.8444,,,,,,,,,,,,,,1,v,1.1556,0,1,4.3444,1.5,,,,,,27.4965044,0,2.461467004,,,,,,,,,,,,,0,17,17,36,1,0.526550878,1,,,,,,,,,,,,,,,,,,,,,,,,,,,,,,,,,,,,,,,,,,,,,,,,,,,,,,,,,,,,,,,,,,,,,,,,,,,,,,,,
,,5f58d7941af44708223b94da,2022-09-08_13h57.02.896,CGTgamblingSpanTasks,2022.2.1,Win32,60.0060006,,,,,,,,3.2833,,,,,,,,,,,,,,1,v,0.7167,27.60724521,1,4.2833,1,,,,,,27.60724521,0,0.088432325,,,,,,,,,,,,,0,18,18,17,1,0.904684186,0,,,,,,,,,,,,,,,,,,,,,,,,,,,,,,,,,,,,,,,,,,,,,,,,,,,,,,,,,,,,,,,,,,,,,,,,,,,,,,,,
,,5f58d7941af44708223b94da,2022-09-08_13h57.02.896,CGTgamblingSpanTasks,2022.2.1,Win32,60.0060006,,,,,,,,2.2006,,,,,,,,,,,,,,1,n,1.7994,7.50753835,0,3.2006,1,,,,,,2.231316635,0,7.50753835,,,,,,,,,,,,,0,19,19,29,1,0.010273427,0,,,,,,,,,,,,,,,,,,,,,,,,,,,,,,,,,,,,,,,,,,,,,,,,,,,,,,,,,,,,,,,,,,,,,,,,,,,,,,,,
,,5f58d7941af44708223b94da,2022-09-08_13h57.02.896,CGTgamblingSpanTasks,2022.2.1,Win32,60.0060006,,,,,,,,2.9801,,,,,,,,,,,,,,1,v,1.0199,28.18900855,1,4.4801,1.5,,,,,,28.18900855,0,0.05384276,,,,,,,,,,,,,0,20,20,55,1,0.919081308,0,,,,,,,,,,,,,,,,,,,,,,,,,,,,,,,,,,,,,,,,,,,,,,,,,,,,,,,,,,,,,,,,,,,,,,,,,,,,,,,,
,,5f58d7941af44708223b94da,2022-09-08_13h57.02.896,CGTgamblingSpanTasks,2022.2.1,Win32,60.0060006,,,,,,,,2.9964,,,,,,,,,,,,,,1,v,1.0036,27.77179191,1,4.4964,1.5,,,,,,27.77179191,0,0.074524436,,,,,,,,,,,,,0,21,21,99,1,0.910114387,0,,,,,,,,,,,,,,,,,,,,,,,,,,,,,,,,,,,,,,,,,,,,,,,,,,,,,,,,,,,,,,,,,,,,,,,,,,,,,,,,
,,5f58d7941af44708223b94da,2022-09-08_13h57.02.896,CGTgamblingSpanTasks,2022.2.1,Win32,60.0060006,,,,,,,,3.259,,,,,,,,,,,,,,2,n,0.741,0,1,4.759,1.5,,,,,,13.96521039,0,1.591282699,,,,,,,,,,,,,0,22,22,49,1,0.462956344,1,,,,,,,,,,,,,,,,,,,,,,,,,,,,,,,,,,,,,,,,,,,,,,,,,,,,,,,,,,,,,,,,,,,,,,,,,,,,,,,,
,,5f58d7941af44708223b94da,2022-09-08_13h57.02.896,CGTgamblingSpanTasks,2022.2.1,Win32,60.0060006,,,,,,,,3.1332,,,,,,,,,,,,,,1,v,0.8668,0,1,4.1332,1,,,,,,22.62475578,0,2.397643354,,,,,,,,,,,,,0,23,23,93,1,0.482527609,1,,,,,,,,,,,,,,,,,,,,,,,,,,,,,,,,,,,,,,,,,,,,,,,,,,,,,,,,,,,,,,,,,,,,,,,,,,,,,,,,
,,5f58d7941af44708223b94da,2022-09-08_13h57.02.896,CGTgamblingSpanTasks,2022.2.1,Win32,60.0060006,,,,,,,,3.1512,,,,,,,,,,,,,,1,v,0.8488,27.2532142,1,4.1512,1,,,,,,27.2532142,0,0.08089327,,,,,,,,,,,,,0,24,24,119,1,0.907091845,0,,,,,,,,,,,,,,,,,,,,,,,,,,,,,,,,,,,,,,,,,,,,,,,,,,,,,,,,,,,,,,,,,,,,,,,,,,,,,,,,
,,5f58d7941af44708223b94da,2022-09-08_13h57.02.896,CGTgamblingSpanTasks,2022.2.1,Win32,60.0060006,,,,,,,,3.2764,,,,,,,,,,,,,,2,n,0.7236,0,1,4.2764,1,,,,,,21.39646914,0,0.072474078,,,,,,,,,,,,,0,25,25,3,1,0.902848133,0,,,,,,,,,,,,,,,,,,,,,,,,,,,,,,,,,,,,,,,,,,,,,,,,,,,,,,,,,,,,,,,,,,,,,,,,,,,,,,,,
,,5f58d7941af44708223b94da,2022-09-08_13h57.02.896,CGTgamblingSpanTasks,2022.2.1,Win32,60.0060006,,,,,,,,2.678,,,,,,,,,,,,,,1,n,1.322,5.683635938,0,4.178,1.5,,,,,,4.941039335,0,5.683635938,,,,,,,,,,,,,0,26,26,9,1,0.025481984,0,,,,,,,,,,,,,,,,,,,,,,,,,,,,,,,,,,,,,,,,,,,,,,,,,,,,,,,,,,,,,,,,,,,,,,,,,,,,,,,,
,,5f58d7941af44708223b94da,2022-09-08_13h57.02.896,CGTgamblingSpanTasks,2022.2.1,Win32,60.0060006,,,,,,,,3.2381,,,,,,,,,,,,,,1,v,0.7619,0,1,4.2381,1,,,,,,29.76099779,0,0.095763086,,,,,,,,,,,,,0,27,27,35,1,0.904537896,0,,,,,,,,,,,,,,,,,,,,,,,,,,,,,,,,,,,,,,,,,,,,,,,,,,,,,,,,,,,,,,,,,,,,,,,,,,,,,,,,
,,5f58d7941af44708223b94da,2022-09-08_13h57.02.896,CGTgamblingSpanTasks,2022.2.1,Win32,60.0060006,,,,,,,,3.1776,,,,,,,,,,,,,,1,v,0.8224,21.17800335,1,4.6776,1.5,,,,,,21.17800335,0,0.059830985,,,,,,,,,,,,,0,28,28,67,1,0.908594974,0,,,,,,,,,,,,,,,,,,,,,,,,,,,,,,,,,,,,,,,,,,,,,,,,,,,,,,,,,,,,,,,,,,,,,,,,,,,,,,,,
,,5f58d7941af44708223b94da,2022-09-08_13h57.02.896,CGTgamblingSpanTasks,2022.2.1,Win32,60.0060006,,,,,,,,2.9754,,,,,,,,,,,,,,2,v,1.0246,3.877530383,0,3.9754,1,,,,,,3.471484939,0,3.877530383,,,,,,,,,,,,,0,29,29,40,1,0.02623078,0,,,,,,,,,,,,,,,,,,,,,,,,,,,,,,,,,,,,,,,,,,,,,,,,,,,,,,,,,,,,,,,,,,,,,,,,,,,,,,,,
,,5f58d7941af44708223b94da,2022-09-08_13h57.02.896,CGTgamblingSpanTasks,2022.2.1,Win32,60.0060006,,,,,,,,3.149,,,,,,,,,,,,,,1,v,0.851,27.38828234,1,4.149,1,,,,,,27.38828234,0,0.0639233,,,,,,,,,,,,,0,30,30,43,1,0.914010176,0,,,,,,,,,,,,,,,,,,,,,,,,,,,,,,,,,,,,,,,,,,,,,,,,,,,,,,,,,,,,,,,,,,,,,,,,,,,,,,,,
,,5f58d7941af44708223b94da,2022-09-08_13h57.02.896,CGTgamblingSpanTasks,2022.2.1,Win32,60.0060006,,,,,,,,2.7363,,,,,,,,,,,,,,2,n,1.2637,0,1,3.7363,1,,,,,,8.217594828,0,0.951019374,,,,,,,,,,,,,0,31,31,87,1,0.458722936,1,,,,,,,,,,,,,,,,,,,,,,,,,,,,,,,,,,,,,,,,,,,,,,,,,,,,,,,,,,,,,,,,,,,,,,,,,,,,,,,,
,,5f58d7941af44708223b94da,2022-09-08_13h57.02.896,CGTgamblingSpanTasks,2022.2.1,Win32,60.0060006,,,,,,,,2.908,,,,,,,,,,,,,,1,v,1.092,7.534278541,1,4.408,1.5,,,,,,7.534278541,0,0.747140182,,,,,,,,,,,,,0,32,32,37,1,0.50012466,1,,,,,,,,,,,,,,,,,,,,,,,,,,,,,,,,,,,,,,,,,,,,,,,,,,,,,,,,,,,,,,,,,,,,,,,,,,,,,,,,
,,5f58d7941af44708223b94da,2022-09-08_13h57.02.896,CGTgamblingSpanTasks,2022.2.1,Win32,60.0060006,,,,,,,,3.0695,,,,,,,,,,,,,,1,v,0.9305,28.13634754,1,4.5695,1.5,,,,,,28.13634754,0,2.532806323,,,,,,,,,,,,,0,33,33,28,1,0.525136524,1,,,,,,,,,,,,,,,,,,,,,,,,,,,,,,,,,,,,,,,,,,,,,,,,,,,,,,,,,,,,,,,,,,,,,,,,,,,,,,,,
,,5f58d7941af44708223b94da,2022-09-08_13h57.02.896,CGTgamblingSpanTasks,2022.2.1,Win32,60.0060006,,,,,,,,3.0359,,,,,,,,,,,,,,2,n,0.9641,0,1,4.0359,1,,,,,,15.87668502,0,8.42547829,,,,,,,,,,,,,0,34,34,56,1,0.092099462,0,,,,,,,,,,,,,,,,,,,,,,,,,,,,,,,,,,,,,,,,,,,,,,,,,,,,,,,,,,,,,,,,,,,,,,,,,,,,,,,,
,,5f58d7941af44708223b94da,2022-09-08_13h57.02.896,CGTgamblingSpanTasks,2022.2.1,Win32,60.0060006,,,,,,,,3.1368,,,,,,,,,,,,,,2,v,0.8632,7.646213173,0,4.1368,1,,,,,,2.042350179,0,7.646213173,,,,,,,,,,,,,0,35,35,53,1,0.009522273,0,,,,,,,,,,,,,,,,,,,,,,,,,,,,,,,,,,,,,,,,,,,,,,,,,,,,,,,,,,,,,,,,,,,,,,,,,,,,,,,,
,,5f58d7941af44708223b94da,2022-09-08_13h57.02.896,CGTgamblingSpanTasks,2022.2.1,Win32,60.0060006,,,,,,,,3.1968,,,,,,,,,,,,,,1,v,0.8032,24.35708027,1,4.1968,1,,,,,,24.35708027,0,2.738695417,,,,,,,,,,,,,0,36,36,114,1,0.466573634,1,,,,,,,,,,,,,,,,,,,,,,,,,,,,,,,,,,,,,,,,,,,,,,,,,,,,,,,,,,,,,,,,,,,,,,,,,,,,,,,,
,,5f58d7941af44708223b94da,2022-09-08_13h57.02.896,CGTgamblingSpanTasks,2022.2.1,Win32,60.0060006,,,,,,,,3.0716,,,,,,,,,,,,,,1,v,0.9284,0,1,4.5716,1.5,,,,,,17.92584289,0,1.878232496,,,,,,,,,,,,,0,37,37,5,1,0.485559263,1,,,,,,,,,,,,,,,,,,,,,,,,,,,,,,,,,,,,,,,,,,,,,,,,,,,,,,,,,,,,,,,,,,,,,,,,,,,,,,,,
,,5f58d7941af44708223b94da,2022-09-08_13h57.02.896,CGTgamblingSpanTasks,2022.2.1,Win32,60.0060006,,,,,,,,3.1833,,,,,,,,,,,,,,2,n,0.8167,0,1,4.6833,1.5,,,,,,29.30724159,0,3.247012935,,,,,,,,,,,,,0,38,38,71,1,0.470571125,1,,,,,,,,,,,,,,,,,,,,,,,,,,,,,,,,,,,,,,,,,,,,,,,,,,,,,,,,,,,,,,,,,,,,,,,,,,,,,,,,
,,5f58d7941af44708223b94da,2022-09-08_13h57.02.896,CGTgamblingSpanTasks,2022.2.1,Win32,60.0060006,,,,,,,,3.2235,,,,,,,,,,,,,,2,n,0.7765,26.4985979,1,4.7235,1.5,,,,,,26.4985979,0,0.051324376,,,,,,,,,,,,,0,39,39,106,1,0.918747215,0,,,,,,,,,,,,,,,,,,,,,,,,,,,,,,,,,,,,,,,,,,,,,,,,,,,,,,,,,,,,,,,,,,,,,,,,,,,,,,,,
,,5f58d7941af44708223b94da,2022-09-08_13h57.02.896,CGTgamblingSpanTasks,2022.2.1,Win32,60.0060006,,,,,,,,2.8149,,,,,,,,,,,,,,1,v,1.1851,0,1,4.3149,1.5,,,,,,13.84410806,0,1.535873964,,,,,,,,,,,,,0,40,40,88,1,0.470209002,1,,,,,,,,,,,,,,,,,,,,,,,,,,,,,,,,,,,,,,,,,,,,,,,,,,,,,,,,,,,,,,,,,,,,,,,,,,,,,,,,
,,5f58d7941af44708223b94da,2022-09-08_13h57.02.896,CGTgamblingSpanTasks,2022.2.1,Win32,60.0060006,,,,,,,,3.0718,,,,,,,,,,,,,,1,v,0.9282,0,1,4.5718,1.5,,,,,,17.23907308,0,2.055848574,,,,,,,,,,,,,0,41,41,66,1,0.450504458,1,,,,,,,,,,,,,,,,,,,,,,,,,,,,,,,,,,,,,,,,,,,,,,,,,,,,,,,,,,,,,,,,,,,,,,,,,,,,,,,,
,,5f58d7941af44708223b94da,2022-09-08_13h57.02.896,CGTgamblingSpanTasks,2022.2.1,Win32,60.0060006,,,,,,,,3.1746,,,,,,,,,,,,,,1,v,0.8254,20.31034258,1,4.1746,1,,,,,,20.31034258,0,1.870404296,,,,,,,,,,,,,0,42,42,85,1,0.519325853,1,,,,,,,,,,,,,,,,,,,,,,,,,,,,,,,,,,,,,,,,,,,,,,,,,,,,,,,,,,,,,,,,,,,,,,,,,,,,,,,,
,,5f58d7941af44708223b94da,2022-09-08_13h57.02.896,CGTgamblingSpanTasks,2022.2.1,Win32,60.0060006,,,,,,,,2.8754,,,,,,,,,,,,,,2,v,1.1246,11.35147481,0,3.8754,1,,,,,,17.67865084,0,11.35147481,,,,,,,,,,,,,0,43,43,91,1,0.067304606,0,,,,,,,,,,,,,,,,,,,,,,,,,,,,,,,,,,,,,,,,,,,,,,,,,,,,,,,,,,,,,,,,,,,,,,,,,,,,,,,,
,,5f58d7941af44708223b94da,2022-09-08_13h57.02.896,CGTgamblingSpanTasks,2022.2.1,Win32,60.0060006,,,,,,,,3.1664,,,,,,,,,,,,,,2,n,0.8336,27.94544945,1,4.1664,1,,,,,,27.94544945,0,2.32030209,,,,,,,,,,,,,0,44,44,115,1,0.545390564,1,,,,,,,,,,,,,,,,,,,,,,,,,,,,,,,,,,,,,,,,,,,,,,,,,,,,,,,,,,,,,,,,,,,,,,,,,,,,,,,,
,,5f58d7941af44708223b94da,2022-09-08_13h57.02.896,CGTgamblingSpanTasks,2022.2.1,Win32,60.0060006,,,,,,,,3.2747,,,,,,,,,,,,,,1,v,0.7253,0,1,4.2747,1,,,,,,28.14876717,0,3.117906378,,,,,,,,,,,,,0,45,45,76,1,0.470636736,1,,,,,,,,,,,,,,,,,,,,,,,,,,,,,,,,,,,,,,,,,,,,,,,,,,,,,,,,,,,,,,,,,,,,,,,,,,,,,,,,
,,5f58d7941af44708223b94da,2022-09-08_13h57.02.896,CGTgamblingSpanTasks,2022.2.1,Win32,60.0060006,,,,,,,,2.8789,,,,,,,,,,,,,,2,v,1.1211,10.3417501,0,4.3789,1.5,,,,,,15.21435748,0,10.3417501,,,,,,,,,,,,,0,46,46,72,1,0.060969226,0,,,,,,,,,,,,,,,,,,,,,,,,,,,,,,,,,,,,,,,,,,,,,,,,,,,,,,,,,,,,,,,,,,,,,,,,,,,,,,,,
,,5f58d7941af44708223b94da,2022-09-08_13h57.02.896,CGTgamblingSpanTasks,2022.2.1,Win32,60.0060006,,,,,,,,2.3015,,,,,,,,,,,,,,2,v,1.6985,8.512335864,0,3.3015,1,,,,,,10.05300841,0,8.512335864,,,,,,,,,,,,,0,47,47,74,1,0.040729225,0,,,,,,,,,,,,,,,,,,,,,,,,,,,,,,,,,,,,,,,,,,,,,,,,,,,,,,,,,,,,,,,,,,,,,,,,,,,,,,,,
,,5f58d7941af44708223b94da,2022-09-08_13h57.02.896,CGTgamblingSpanTasks,2022.2.1,Win32,60.0060006,,,,,,,,2.1762,,,,,,,,,,,,,,1,n,1.8238,11.41737518,0,3.6762,1.5,,,,,,18.11029021,0,11.41737518,,,,,,,,,,,,,0,48,48,48,1,0.069445859,0,,,,,,,,,,,,,,,,,,,,,,,,,,,,,,,,,,,,,,,,,,,,,,,,,,,,,,,,,,,,,,,,,,,,,,,,,,,,,,,,
,,5f58d7941af44708223b94da,2022-09-08_13h57.02.896,CGTgamblingSpanTasks,2022.2.1,Win32,60.0060006,,,,,,,,2.2098,,,,,,,,,,,,,,1,n,1.7902,10.31611309,0,3.2098,1,,,,,,19.30622782,0,10.31611309,,,,,,,,,,,,,0,49,49,1,1,0.091105656,0,,,,,,,,,,,,,,,,,,,,,,,,,,,,,,,,,,,,,,,,,,,,,,,,,,,,,,,,,,,,,,,,,,,,,,,,,,,,,,,,
,,5f58d7941af44708223b94da,2022-09-08_13h57.02.896,CGTgamblingSpanTasks,2022.2.1,Win32,60.0060006,,,,,,,,2.2459,,,,,,,,,,,,,,2,n,1.7541,0,1,3.2459,1,,,,,,27.76752685,0,0.083968035,,,,,,,,,,,,,0,50,50,13,1,0.906513967,0,,,,,,,,,,,,,,,,,,,,,,,,,,,,,,,,,,,,,,,,,,,,,,,,,,,,,,,,,,,,,,,,,,,,,,,,,,,,,,,,
,,5f58d7941af44708223b94da,2022-09-08_13h57.02.896,CGTgamblingSpanTasks,2022.2.1,Win32,60.0060006,,,,,,,,0.1935,,,,,,,,,,,,,,1,n,3.8065,2.543951743,0,1.6935,1.5,,,,,,25.56803059,0,2.543951743,,,,,,,,,,,,,0,51,51,41,1,0.499247217,1,,,,,,,,,,,,,,,,,,,,,,,,,,,,,,,,,,,,,,,,,,,,,,,,,,,,,,,,,,,,,,,,,,,,,,,,,,,,,,,,
,,5f58d7941af44708223b94da,2022-09-08_13h57.02.896,CGTgamblingSpanTasks,2022.2.1,Win32,60.0060006,,,,,,,,1.6107,,,,,,,,,,,,,,2,n,2.3893,0,1,2.6107,1,,,,,,27.88092897,0,2.771762788,,,,,,,,,,,,,0,52,52,117,1,0.499466648,1,,,,,,,,,,,,,,,,,,,,,,,,,,,,,,,,,,,,,,,,,,,,,,,,,,,,,,,,,,,,,,,,,,,,,,,,,,,,,,,,
,,5f58d7941af44708223b94da,2022-09-08_13h57.02.896,CGTgamblingSpanTasks,2022.2.1,Win32,60.0060006,,,,,,,,2.1163,,,,,,,,,,,,,,2,n,1.8837,0,1,3.6163,1.5,,,,,,22.72923833,0,0.067170781,,,,,,,,,,,,,0,53,53,86,1,0.907226703,0,,,,,,,,,,,,,,,,,,,,,,,,,,,,,,,,,,,,,,,,,,,,,,,,,,,,,,,,,,,,,,,,,,,,,,,,,,,,,,,,
,,5f58d7941af44708223b94da,2022-09-08_13h57.02.896,CGTgamblingSpanTasks,2022.2.1,Win32,60.0060006,,,,,,,,2.8513,,,,,,,,,,,,,,1,v,1.1487,0,1,4.3513,1.5,,,,,,7.066129113,0,0.585581699,,,,,,,,,,,,,0,54,54,19,1,0.545860632,1,,,,,,,,,,,,,,,,,,,,,,,,,,,,,,,,,,,,,,,,,,,,,,,,,,,,,,,,,,,,,,,,,,,,,,,,,,,,,,,,
,,5f58d7941af44708223b94da,2022-09-08_13h57.02.896,CGTgamblingSpanTasks,2022.2.1,Win32,60.0060006,,,,,,,,2.7312,,,,,,,,,,,,,,2,v,1.2688,6.091504705,0,3.7312,1,,,,,,6.662965216,0,6.091504705,,,,,,,,,,,,,0,55,55,102,1,0.035087099,0,,,,,,,,,,,,,,,,,,,,,,,,,,,,,,,,,,,,,,,,,,,,,,,,,,,,,,,,,,,,,,,,,,,,,,,,,,,,,,,,
,,5f58d7941af44708223b94da,2022-09-08_13h57.02.896,CGTgamblingSpanTasks,2022.2.1,Win32,60.0060006,,,,,,,,2.926,,,,,,,,,,,,,,2,n,1.074,0,1,4.426,1.5,,,,,,21.48443242,0,2.229247341,,,,,,,,,,,,,0,56,56,63,1,0.488155912,1,,,,,,,,,,,,,,,,,,,,,,,,,,,,,,,,,,,,,,,,,,,,,,,,,,,,,,,,,,,,,,,,,,,,,,,,,,,,,,,,
,,5f58d7941af44708223b94da,2022-09-08_13h57.02.896,CGTgamblingSpanTasks,2022.2.1,Win32,60.0060006,,,,,,,,3.2555,,,,,,,,,,,,,,2,n,0.7445,26.16821818,1,4.2555,1,,,,,,26.16821818,0,0.093528069,,,,,,,,,,,,,0,57,57,42,1,0.901022427,0,,,,,,,,,,,,,,,,,,,,,,,,,,,,,,,,,,,,,,,,,,,,,,,,,,,,,,,,,,,,,,,,,,,,,,,,,,,,,,,,
,,5f58d7941af44708223b94da,2022-09-08_13h57.02.896,CGTgamblingSpanTasks,2022.2.1,Win32,60.0060006,,,,,,,,2.9714,,,,,,,,,,,,,,2,n,1.0286,0,1,3.9714,1,,,,,,22.86604061,0,2.293289792,,,,,,,,,,,,,0,58,58,51,1,0.49715382,1,,,,,,,,,,,,,,,,,,,,,,,,,,,,,,,,,,,,,,,,,,,,,,,,,,,,,,,,,,,,,,,,,,,,,,,,,,,,,,,,
,,5f58d7941af44708223b94da,2022-09-08_13h57.02.896,CGTgamblingSpanTasks,2022.2.1,Win32,60.0060006,,,,,,,,3.2791,,,,,,,,,,,,,,1,v,0.7209,0,1,4.7791,1.5,,,,,,19.36415485,0,1.966229494,,,,,,,,,,,,,0,59,59,96,1,0.493893111,1,,,,,,,,,,,,,,,,,,,,,,,,,,,,,,,,,,,,,,,,,,,,,,,,,,,,,,,,,,,,,,,,,,,,,,,,,,,,,,,,
,,5f58d7941af44708223b94da,2022-09-08_13h57.02.896,CGTgamblingSpanTasks,2022.2.1,Win32,60.0060006,,,,,,,,2.7665,,,,,,,,,,,,,,1,v,1.2335,13.4287264,1,4.2665,1.5,,,,,,13.4287264,0,1.317368801,,,,,,,,,,,,,0,60,60,100,1,0.502953125,1,,,,,,,,,,,,,,,,,,,,,,,,,,,,,,,,,,,,,,,,,,,,,,,,,,,,,,,,,,,,,,,,,,,,,,,,,,,,,,,,
,,5f58d7941af44708223b94da,2022-09-08_13h57.02.896,CGTgamblingSpanTasks,2022.2.1,Win32,60.0060006,,,,,,,,2.8149,,,,,,,,,,,,,,1,v,1.1851,18.16238569,1,3.8149,1,,,,,,18.16238569,0,1.540604093,,,,,,,,,,,,,0,61,61,34,1,0.540092491,1,,,,,,,,,,,,,,,,,,,,,,,,,,,,,,,,,,,,,,,,,,,,,,,,,,,,,,,,,,,,,,,,,,,,,,,,,,,,,,,,
,,5f58d7941af44708223b94da,2022-09-08_13h57.02.896,CGTgamblingSpanTasks,2022.2.1,Win32,60.0060006,,,,,,,,3.1389,,,,,,,,,,,,,,2,n,0.8611,19.5450126,1,4.1389,1,,,,,,19.5450126,0,2.123581464,,,,,,,,,,,,,0,62,62,65,1,0.475836144,1,,,,,,,,,,,,,,,,,,,,,,,,,,,,,,,,,,,,,,,,,,,,,,,,,,,,,,,,,,,,,,,,,,,,,,,,,,,,,,,,
,,5f58d7941af44708223b94da,2022-09-08_13h57.02.896,CGTgamblingSpanTasks,2022.2.1,Win32,60.0060006,,,,,,,,2.6798,,,,,,,,,,,,,,2,v,1.3202,11.6744431,0,3.6798,1,,,,,,10.43004651,0,11.6744431,,,,,,,,,,,,,0,63,63,15,1,0.026176489,0,,,,,,,,,,,,,,,,,,,,,,,,,,,,,,,,,,,,,,,,,,,,,,,,,,,,,,,,,,,,,,,,,,,,,,,,,,,,,,,,
,,5f58d7941af44708223b94da,2022-09-08_13h57.02.896,CGTgamblingSpanTasks,2022.2.1,Win32,60.0060006,,,,,,,,2.9223,,,,,,,,,,,,,,1,v,1.0777,21.03408097,1,3.9223,1,,,,,,21.03408097,0,2.208275162,,,,,,,,,,,,,0,64,64,0,1,0.485031246,1,,,,,,,,,,,,,,,,,,,,,,,,,,,,,,,,,,,,,,,,,,,,,,,,,,,,,,,,,,,,,,,,,,,,,,,,,,,,,,,,
,,5f58d7941af44708223b94da,2022-09-08_13h57.02.896,CGTgamblingSpanTasks,2022.2.1,Win32,60.0060006,,,,,,,,2.1196,,,,,,,,,,,,,,1,n,1.8804,4.462262453,0,3.6196,1.5,,,,,,0.192759042,0,4.462262453,,,,,,,,,,,,,0,65,65,52,1,0.003553223,0,,,,,,,,,,,,,,,,,,,,,,,,,,,,,,,,,,,,,,,,,,,,,,,,,,,,,,,,,,,,,,,,,,,,,,,,,,,,,,,,
,,5f58d7941af44708223b94da,2022-09-08_13h57.02.896,CGTgamblingSpanTasks,2022.2.1,Win32,60.0060006,,,,,,,,2.9906,,,,,,,,,,,,,,1,v,1.0094,17.85020524,1,4.4906,1.5,,,,,,17.85020524,0,2.058701084,,,,,,,,,,,,,0,66,66,25,1,0.459662216,1,,,,,,,,,,,,,,,,,,,,,,,,,,,,,,,,,,,,,,,,,,,,,,,,,,,,,,,,,,,,,,,,,,,,,,,,,,,,,,,,
,,5f58d7941af44708223b94da,2022-09-08_13h57.02.896,CGTgamblingSpanTasks,2022.2.1,Win32,60.0060006,,,,,,,,0,,,,,,,,,,,,,,2,,,,,1.5,1.5,,,,,,21.2188881,0,2.067660742,,,,,,,,,,,,,0,67,67,107,1,0.50470775,1,,,,,,,,,,,,,,,,,,,,,,,,,,,,,,,,,,,,,,,,,,,,,,,,,,,,,,,,,,,,,,,,,,,,,,,,,,,,,,,,
,,5f58d7941af44708223b94da,2022-09-08_13h57.02.896,CGTgamblingSpanTasks,2022.2.1,Win32,60.0060006,,,,,,,,3.1673,,,,,,,,,,,,,,2,n,0.8327,27.57491653,1,4.6673,1.5,,,,,,27.57491653,0,2.99133314,,,,,,,,,,,,,0,68,68,10,1,0.47625893,1,,,,,,,,,,,,,,,,,,,,,,,,,,,,,,,,,,,,,,,,,,,,,,,,,,,,,,,,,,,,,,,,,,,,,,,,,,,,,,,,
,,5f58d7941af44708223b94da,2022-09-08_13h57.02.896,CGTgamblingSpanTasks,2022.2.1,Win32,60.0060006,,,,,,,,3.3571,,,,,,,,,,,,,,1,v,0.6429,25.76582409,1,4.3571,1,,,,,,25.76582409,0,2.393193076,,,,,,,,,,,,,0,69,69,46,1,0.517129855,1,,,,,,,,,,,,,,,,,,,,,,,,,,,,,,,,,,,,,,,,,,,,,,,,,,,,,,,,,,,,,,,,,,,,,,,,,,,,,,,,
,,5f58d7941af44708223b94da,2022-09-08_13h57.02.896,CGTgamblingSpanTasks,2022.2.1,Win32,60.0060006,,,,,,,,3.3131,,,,,,,,,,,,,,2,n,0.6869,17.30137174,1,4.8131,1.5,,,,,,17.30137174,0,1.716380842,,,,,,,,,,,,,0,70,70,20,1,0.500020285,1,,,,,,,,,,,,,,,,,,,,,,,,,,,,,,,,,,,,,,,,,,,,,,,,,,,,,,,,,,,,,,,,,,,,,,,,,,,,,,,,
,,5f58d7941af44708223b94da,2022-09-08_13h57.02.896,CGTgamblingSpanTasks,2022.2.1,Win32,60.0060006,,,,,,,,3.1533,,,,,,,,,,,,,,1,n,0.8467,4.251676631,0,4.1533,1,,,,,,3.395192929,0,4.251676631,,,,,,,,,,,,,0,71,71,7,1,0.023467153,0,,,,,,,,,,,,,,,,,,,,,,,,,,,,,,,,,,,,,,,,,,,,,,,,,,,,,,,,,,,,,,,,,,,,,,,,,,,,,,,,
,,5f58d7941af44708223b94da,2022-09-08_13h57.02.896,CGTgamblingSpanTasks,2022.2.1,Win32,60.0060006,,,,,,,,3.0285,,,,,,,,,,,,,,2,n,0.9715,24.66627941,1,4.5285,1.5,,,,,,24.66627941,0,2.765426402,,,,,,,,,,,,,0,72,72,24,1,0.467360588,1,,,,,,,,,,,,,,,,,,,,,,,,,,,,,,,,,,,,,,,,,,,,,,,,,,,,,,,,,,,,,,,,,,,,,,,,,,,,,,,,
,,5f58d7941af44708223b94da,2022-09-08_13h57.02.896,CGTgamblingSpanTasks,2022.2.1,Win32,60.0060006,,,,,,,,3.1795,,,,,,,,,,,,,,2,n,0.8205,0,1,4.6795,1.5,,,,,,28.68598705,0,0.050674956,,,,,,,,,,,,,0,73,73,62,1,0.920905497,0,,,,,,,,,,,,,,,,,,,,,,,,,,,,,,,,,,,,,,,,,,,,,,,,,,,,,,,,,,,,,,,,,,,,,,,,,,,,,,,,
,,5f58d7941af44708223b94da,2022-09-08_13h57.02.896,CGTgamblingSpanTasks,2022.2.1,Win32,60.0060006,,,,,,,,3.2679,,,,,,,,,,,,,,2,n,0.7321,0,1,4.7679,1.5,,,,,,28.9381277,0,2.663622024,,,,,,,,,,,,,0,74,74,103,1,0.519453367,1,,,,,,,,,,,,,,,,,,,,,,,,,,,,,,,,,,,,,,,,,,,,,,,,,,,,,,,,,,,,,,,,,,,,,,,,,,,,,,,,
,,5f58d7941af44708223b94da,2022-09-08_13h57.02.896,CGTgamblingSpanTasks,2022.2.1,Win32,60.0060006,,,,,,,,3.1154,,,,,,,,,,,,,,1,v,0.8846,0,1,4.1154,1,,,,,,15.43649625,0,1.65459324,,,,,,,,,,,,,0,75,75,33,1,0.479480163,1,,,,,,,,,,,,,,,,,,,,,,,,,,,,,,,,,,,,,,,,,,,,,,,,,,,,,,,,,,,,,,,,,,,,,,,,,,,,,,,,
,,5f58d7941af44708223b94da,2022-09-08_13h57.02.896,CGTgamblingSpanTasks,2022.2.1,Win32,60.0060006,,,,,,,,2.6964,,,,,,,,,,,,,,2,v,1.3036,11.39288827,0,3.6964,1,,,,,,20.97851654,0,11.39288827,,,,,,,,,,,,,0,76,76,2,1,0.088791079,0,,,,,,,,,,,,,,,,,,,,,,,,,,,,,,,,,,,,,,,,,,,,,,,,,,,,,,,,,,,,,,,,,,,,,,,,,,,,,,,,
,,5f58d7941af44708223b94da,2022-09-08_13h57.02.896,CGTgamblingSpanTasks,2022.2.1,Win32,60.0060006,,,,,,,,2.9081,,,,,,,,,,,,,,1,v,1.0919,28.33977875,1,3.9081,1,,,,,,28.33977875,0,2.768313633,,,,,,,,,,,,,0,77,77,116,1,0.50406901,1,,,,,,,,,,,,,,,,,,,,,,,,,,,,,,,,,,,,,,,,,,,,,,,,,,,,,,,,,,,,,,,,,,,,,,,,,,,,,,,,
,,5f58d7941af44708223b94da,2022-09-08_13h57.02.896,CGTgamblingSpanTasks,2022.2.1,Win32,60.0060006,,,,,,,,3.142,,,,,,,,,,,,,,2,n,0.858,9.012590634,1,4.642,1.5,,,,,,9.012590634,0,1.002188111,,,,,,,,,,,,,0,78,78,12,1,0.46958041,1,,,,,,,,,,,,,,,,,,,,,,,,,,,,,,,,,,,,,,,,,,,,,,,,,,,,,,,,,,,,,,,,,,,,,,,,,,,,,,,,
,,5f58d7941af44708223b94da,2022-09-08_13h57.02.896,CGTgamblingSpanTasks,2022.2.1,Win32,60.0060006,,,,,,,,2.7249,,,,,,,,,,,,,,1,n,1.2751,8.653432553,0,4.2249,1.5,,,,,,15.13999312,0,8.653432553,,,,,,,,,,,,,0,79,79,54,1,0.081767484,0,,,,,,,,,,,,,,,,,,,,,,,,,,,,,,,,,,,,,,,,,,,,,,,,,,,,,,,,,,,,,,,,,,,,,,,,,,,,,,,,
,,5f58d7941af44708223b94da,2022-09-08_13h57.02.896,CGTgamblingSpanTasks,2022.2.1,Win32,60.0060006,,,,,,,,2.7189,,,,,,,,,,,,,,2,v,1.2811,11.19311486,0,4.2189,1.5,,,,,,8.17598802,0,11.19311486,,,,,,,,,,,,,0,80,80,110,1,0.021568003,0,,,,,,,,,,,,,,,,,,,,,,,,,,,,,,,,,,,,,,,,,,,,,,,,,,,,,,,,,,,,,,,,,,,,,,,,,,,,,,,,
,,5f58d7941af44708223b94da,2022-09-08_13h57.02.896,CGTgamblingSpanTasks,2022.2.1,Win32,60.0060006,,,,,,,,2.4543,,,,,,,,,,,,,,1,v,1.5457,25.54604005,1,3.9543,1.5,,,,,,25.54604005,0,0.088845411,,,,,,,,,,,,,0,81,81,79,1,0.901957831,0,,,,,,,,,,,,,,,,,,,,,,,,,,,,,,,,,,,,,,,,,,,,,,,,,,,,,,,,,,,,,,,,,,,,,,,,,,,,,,,,
,,5f58d7941af44708223b94da,2022-09-08_13h57.02.896,CGTgamblingSpanTasks,2022.2.1,Win32,60.0060006,,,,,,,,2.6383,,,,,,,,,,,,,,2,n,1.3617,0,1,3.6383,1,,,,,,21.16780451,0,2.469465385,,,,,,,,,,,,,0,82,82,32,1,0.456531699,1,,,,,,,,,,,,,,,,,,,,,,,,,,,,,,,,,,,,,,,,,,,,,,,,,,,,,,,,,,,,,,,,,,,,,,,,,,,,,,,,
,,5f58d7941af44708223b94da,2022-09-08_13h57.02.896,CGTgamblingSpanTasks,2022.2.1,Win32,60.0060006,,,,,,,,0.946,,,,,,,,,,,,,,2,n,3.054,0,1,1.946,1,,,,,,24.57684014,0,0.061756244,,,,,,,,,,,,,0,83,83,68,1,0.911988903,0,,,,,,,,,,,,,,,,,,,,,,,,,,,,,,,,,,,,,,,,,,,,,,,,,,,,,,,,,,,,,,,,,,,,,,,,,,,,,,,,
,,5f58d7941af44708223b94da,2022-09-08_13h57.02.896,CGTgamblingSpanTasks,2022.2.1,Win32,60.0060006,,,,,,,,2.8083,,,,,,,,,,,,,,1,v,1.1917,17.4320197,1,3.8083,1,,,,,,17.4320197,0,1.448620949,,,,,,,,,,,,,0,84,84,30,1,0.545178213,1,,,,,,,,,,,,,,,,,,,,,,,,,,,,,,,,,,,,,,,,,,,,,,,,,,,,,,,,,,,,,,,,,,,,,,,,,,,,,,,,
,,5f58d7941af44708223b94da,2022-09-08_13h57.02.896,CGTgamblingSpanTasks,2022.2.1,Win32,60.0060006,,,,,,,,2.9761,,,,,,,,,,,,,,2,n,1.0239,23.4214135,1,4.4761,1.5,,,,,,23.4214135,0,2.485985001,,,,,,,,,,,,,0,85,85,81,1,0.482105905,1,,,,,,,,,,,,,,,,,,,,,,,,,,,,,,,,,,,,,,,,,,,,,,,,,,,,,,,,,,,,,,,,,,,,,,,,,,,,,,,,
,,5f58d7941af44708223b94da,2022-09-08_13h57.02.896,CGTgamblingSpanTasks,2022.2.1,Win32,60.0060006,,,,,,,,2.9692,,,,,,,,,,,,,,1,v,1.0308,0,1,3.9692,1,,,,,,21.00799273,0,0.067969053,,,,,,,,,,,,,0,86,86,92,1,0.904360262,0,,,,,,,,,,,,,,,,,,,,,,,,,,,,,,,,,,,,,,,,,,,,,,,,,,,,,,,,,,,,,,,,,,,,,,,,,,,,,,,,
,,5f58d7941af44708223b94da,2022-09-08_13h57.02.896,CGTgamblingSpanTasks,2022.2.1,Win32,60.0060006,,,,,,,,2.8276,,,,,,,,,,,,,,2,n,1.1724,25.0707644,1,3.8276,1,,,,,,25.0707644,0,0.067651625,,,,,,,,,,,,,0,87,87,70,1,0.909952349,0,,,,,,,,,,,,,,,,,,,,,,,,,,,,,,,,,,,,,,,,,,,,,,,,,,,,,,,,,,,,,,,,,,,,,,,,,,,,,,,,
,,5f58d7941af44708223b94da,2022-09-08_13h57.02.896,CGTgamblingSpanTasks,2022.2.1,Win32,60.0060006,,,,,,,,3.175,,,,,,,,,,,,,,2,v,0.825,2.78925142,0,4.175,1,,,,,,25.26994993,0,2.78925142,,,,,,,,,,,,,0,88,88,108,1,0.471582922,1,,,,,,,,,,,,,,,,,,,,,,,,,,,,,,,,,,,,,,,,,,,,,,,,,,,,,,,,,,,,,,,,,,,,,,,,,,,,,,,,
,,5f58d7941af44708223b94da,2022-09-08_13h57.02.896,CGTgamblingSpanTasks,2022.2.1,Win32,60.0060006,,,,,,,,3.0839,,,,,,,,,,,,,,1,v,0.9161,0,1,4.0839,1,,,,,,25.65316415,0,0.079652925,,,,,,,,,,,,,0,89,89,109,1,0.90568168,0,,,,,,,,,,,,,,,,,,,,,,,,,,,,,,,,,,,,,,,,,,,,,,,,,,,,,,,,,,,,,,,,,,,,,,,,,,,,,,,,
,,5f58d7941af44708223b94da,2022-09-08_13h57.02.896,CGTgamblingSpanTasks,2022.2.1,Win32,60.0060006,,,,,,,,3.1923,,,,,,,,,,,,,,2,n,0.8077,27.39221343,1,4.1923,1,,,,,,27.39221343,0,2.743407746,,,,,,,,,,,,,0,90,90,47,1,0.49752044,1,,,,,,,,,,,,,,,,,,,,,,,,,,,,,,,,,,,,,,,,,,,,,,,,,,,,,,,,,,,,,,,,,,,,,,,,,,,,,,,,
,,5f58d7941af44708223b94da,2022-09-08_13h57.02.896,CGTgamblingSpanTasks,2022.2.1,Win32,60.0060006,,,,,,,,2.9466,,,,,,,,,,,,,,2,v,1.0534,4.904872644,0,3.9466,1,,,,,,4.698775357,0,4.904872644,,,,,,,,,,,,,0,91,91,75,1,0.028064484,0,,,,,,,,,,,,,,,,,,,,,,,,,,,,,,,,,,,,,,,,,,,,,,,,,,,,,,,,,,,,,,,,,,,,,,,,,,,,,,,,
,,5f58d7941af44708223b94da,2022-09-08_13h57.02.896,CGTgamblingSpanTasks,2022.2.1,Win32,60.0060006,,,,,,,,2.9357,,,,,,,,,,,,,,2,n,1.0643,18.50662664,1,4.4357,1.5,,,,,,18.50662664,0,0.052546026,,,,,,,,,,,,,0,92,92,112,1,0.908444837,0,,,,,,,,,,,,,,,,,,,,,,,,,,,,,,,,,,,,,,,,,,,,,,,,,,,,,,,,,,,,,,,,,,,,,,,,,,,,,,,,
,,5f58d7941af44708223b94da,2022-09-08_13h57.02.896,CGTgamblingSpanTasks,2022.2.1,Win32,60.0060006,,,,,,,,2.583,,,,,,,,,,,,,,1,n,1.417,11.61882862,0,3.583,1,,,,,,4.022743614,0,11.61882862,,,,,,,,,,,,,0,93,93,38,1,0.011499376,0,,,,,,,,,,,,,,,,,,,,,,,,,,,,,,,,,,,,,,,,,,,,,,,,,,,,,,,,,,,,,,,,,,,,,,,,,,,,,,,,
,,5f58d7941af44708223b94da,2022-09-08_13h57.02.896,CGTgamblingSpanTasks,2022.2.1,Win32,60.0060006,,,,,,,,1.7875,,,,,,,,,,,,,,1,n,2.2125,11.42134125,0,3.2875,1.5,,,,,,12.9904115,0,11.42134125,,,,,,,,,,,,,0,94,94,118,1,0.037876033,0,,,,,,,,,,,,,,,,,,,,,,,,,,,,,,,,,,,,,,,,,,,,,,,,,,,,,,,,,,,,,,,,,,,,,,,,,,,,,,,,
,,5f58d7941af44708223b94da,2022-09-08_13h57.02.896,CGTgamblingSpanTasks,2022.2.1,Win32,60.0060006,,,,,,,,3.0349,,,,,,,,,,,,,,1,v,0.9651,0,1,4.0349,1,,,,,,23.0613391,0,2.387726776,,,,,,,,,,,,,0,95,95,69,1,0.488727763,1,,,,,,,,,,,,,,,,,,,,,,,,,,,,,,,,,,,,,,,,,,,,,,,,,,,,,,,,,,,,,,,,,,,,,,,,,,,,,,,,
,,5f58d7941af44708223b94da,2022-09-08_13h57.02.896,CGTgamblingSpanTasks,2022.2.1,Win32,60.0060006,,,,,,,,3.2319,,,,,,,,,,,,,,2,n,0.7681,0,1,4.7319,1.5,,,,,,26.36733703,0,2.201057101,,,,,,,,,,,,,0,96,96,90,1,0.544064207,1,,,,,,,,,,,,,,,,,,,,,,,,,,,,,,,,,,,,,,,,,,,,,,,,,,,,,,,,,,,,,,,,,,,,,,,,,,,,,,,,
,,5f58d7941af44708223b94da,2022-09-08_13h57.02.896,CGTgamblingSpanTasks,2022.2.1,Win32,60.0060006,,,,,,,,2.9671,,,,,,,,,,,,,,1,n,1.0329,10.68505773,0,4.4671,1.5,,,,,,17.64114152,0,10.68505773,,,,,,,,,,,,,0,97,97,98,1,0.074299362,0,,,,,,,,,,,,,,,,,,,,,,,,,,,,,,,,,,,,,,,,,,,,,,,,,,,,,,,,,,,,,,,,,,,,,,,,,,,,,,,,
,,5f58d7941af44708223b94da,2022-09-08_13h57.02.896,CGTgamblingSpanTasks,2022.2.1,Win32,60.0060006,,,,,,,,2.343,,,,,,,,,,,,,,2,v,1.657,10.41201161,0,3.843,1.5,,,,,,6.307062696,0,10.41201161,,,,,,,,,,,,,0,98,98,23,1,0.018187109,0,,,,,,,,,,,,,,,,,,,,,,,,,,,,,,,,,,,,,,,,,,,,,,,,,,,,,,,,,,,,,,,,,,,,,,,,,,,,,,,,
,,5f58d7941af44708223b94da,2022-09-08_13h57.02.896,CGTgamblingSpanTasks,2022.2.1,Win32,60.0060006,,,,,,,,3.0061,,,,,,,,,,,,,,1,v,0.9939,24.8002852,1,4.5061,1.5,,,,,,24.8002852,0,0.071848086,,,,,,,,,,,,,0,99,99,16,1,0.90783559,0,,,,,,,,,,,,,,,,,,,,,,,,,,,,,,,,,,,,,,,,,,,,,,,,,,,,,,,,,,,,,,,,,,,,,,,,,,,,,,,,
,,5f58d7941af44708223b94da,2022-09-08_13h57.02.896,CGTgamblingSpanTasks,2022.2.1,Win32,60.0060006,,,,,,,,3.0789,,,,,,,,,,,,,,1,v,0.9211,14.3363647,1,4.0789,1,,,,,,14.3363647,0,1.396635362,,,,,,,,,,,,,0,100,100,78,1,0.504775474,1,,,,,,,,,,,,,,,,,,,,,,,,,,,,,,,,,,,,,,,,,,,,,,,,,,,,,,,,,,,,,,,,,,,,,,,,,,,,,,,,
,,5f58d7941af44708223b94da,2022-09-08_13h57.02.896,CGTgamblingSpanTasks,2022.2.1,Win32,60.0060006,,,,,,,,3.0903,,,,,,,,,,,,,,1,v,0.9097,14.11762686,1,4.0903,1,,,,,,14.11762686,0,8.579385201,,,,,,,,,,,,,0,101,101,60,1,0.073886959,0,,,,,,,,,,,,,,,,,,,,,,,,,,,,,,,,,,,,,,,,,,,,,,,,,,,,,,,,,,,,,,,,,,,,,,,,,,,,,,,,
,,5f58d7941af44708223b94da,2022-09-08_13h57.02.896,CGTgamblingSpanTasks,2022.2.1,Win32,60.0060006,,,,,,,,2.5587,,,,,,,,,,,,,,2,v,1.4413,9.936178001,0,3.5587,1,,,,,,19.58698544,0,9.936178001,,,,,,,,,,,,,0,102,102,77,1,0.098812204,0,,,,,,,,,,,,,,,,,,,,,,,,,,,,,,,,,,,,,,,,,,,,,,,,,,,,,,,,,,,,,,,,,,,,,,,,,,,,,,,,
,,5f58d7941af44708223b94da,2022-09-08_13h57.02.896,CGTgamblingSpanTasks,2022.2.1,Win32,60.0060006,,,,,,,,2.8973,,,,,,,,,,,,,,1,v,1.1027,20.5726842,1,4.3973,1.5,,,,,,20.5726842,0,0.073558523,,,,,,,,,,,,,0,103,103,26,1,0.901008565,0,,,,,,,,,,,,,,,,,,,,,,,,,,,,,,,,,,,,,,,,,,,,,,,,,,,,,,,,,,,,,,,,,,,,,,,,,,,,,,,,
,,5f58d7941af44708223b94da,2022-09-08_13h57.02.896,CGTgamblingSpanTasks,2022.2.1,Win32,60.0060006,,,,,,,,3.0816,,,,,,,,,,,,,,1,v,0.9184,0,1,4.0816,1,,,,,,21.7711579,0,2.502728921,,,,,,,,,,,,,0,104,104,101,1,0.460552621,1,,,,,,,,,,,,,,,,,,,,,,,,,,,,,,,,,,,,,,,,,,,,,,,,,,,,,,,,,,,,,,,,,,,,,,,,,,,,,,,,
,,5f58d7941af44708223b94da,2022-09-08_13h57.02.896,CGTgamblingSpanTasks,2022.2.1,Win32,60.0060006,,,,,,,,3.2846,,,,,,,,,,,,,,2,n,0.7154,8.670591867,1,4.7846,1.5,,,,,,8.670591867,0,1.025847652,,,,,,,,,,,,,0,105,105,18,1,0.452680459,1,,,,,,,,,,,,,,,,,,,,,,,,,,,,,,,,,,,,,,,,,,,,,,,,,,,,,,,,,,,,,,,,,,,,,,,,,,,,,,,,
,,5f58d7941af44708223b94da,2022-09-08_13h57.02.896,CGTgamblingSpanTasks,2022.2.1,Win32,60.0060006,,,,,,,,3.3492,,,,,,,,,,,,,,2,n,0.6508,0,1,4.3492,1,,,,,,17.5608285,0,1.825111303,,,,,,,,,,,,,0,106,106,104,1,0.487721116,1,,,,,,,,,,,,,,,,,,,,,,,,,,,,,,,,,,,,,,,,,,,,,,,,,,,,,,,,,,,,,,,,,,,,,,,,,,,,,,,,
,,5f58d7941af44708223b94da,2022-09-08_13h57.02.896,CGTgamblingSpanTasks,2022.2.1,Win32,60.0060006,,,,,,,,2.4652,,,,,,,,,,,,,,2,n,1.5348,0,1,3.4652,1,,,,,,23.59556381,0,2.464662219,,,,,,,,,,,,,0,107,107,22,1,0.486383205,1,,,,,,,,,,,,,,,,,,,,,,,,,,,,,,,,,,,,,,,,,,,,,,,,,,,,,,,,,,,,,,,,,,,,,,,,,,,,,,,,
,,5f58d7941af44708223b94da,2022-09-08_13h57.02.896,CGTgamblingSpanTasks,2022.2.1,Win32,60.0060006,,,,,,,,3.2218,,,,,,,,,,,,,,2,n,0.7782,0,1,4.7218,1.5,,,,,,28.94627214,0,2.701896413,,,,,,,,,,,,,0,108,108,111,1,0.515860759,1,,,,,,,,,,,,,,,,,,,,,,,,,,,,,,,,,,,,,,,,,,,,,,,,,,,,,,,,,,,,,,,,,,,,,,,,,,,,,,,,
,,5f58d7941af44708223b94da,2022-09-08_13h57.02.896,CGTgamblingSpanTasks,2022.2.1,Win32,60.0060006,,,,,,,,3.1084,,,,,,,,,,,,,,2,n,0.8916,25.21882231,1,4.6084,1.5,,,,,,25.21882231,0,0.085746782,,,,,,,,,,,,,0,109,109,64,1,0.90272076,0,,,,,,,,,,,,,,,,,,,,,,,,,,,,,,,,,,,,,,,,,,,,,,,,,,,,,,,,,,,,,,,,,,,,,,,,,,,,,,,,
,,5f58d7941af44708223b94da,2022-09-08_13h57.02.896,CGTgamblingSpanTasks,2022.2.1,Win32,60.0060006,,,,,,,,2.7238,,,,,,,,,,,,,,1,n,1.2762,7.850775577,0,3.7238,1,,,,,,4.622707531,0,7.850775577,,,,,,,,,,,,,0,110,110,6,1,0.017737407,0,,,,,,,,,,,,,,,,,,,,,,,,,,,,,,,,,,,,,,,,,,,,,,,,,,,,,,,,,,,,,,,,,,,,,,,,,,,,,,,,
,,5f58d7941af44708223b94da,2022-09-08_13h57.02.896,CGTgamblingSpanTasks,2022.2.1,Win32,60.0060006,,,,,,,,3.0812,,,,,,,,,,,,,,2,n,0.9188,29.75778644,1,4.5812,1.5,,,,,,29.75778644,0,2.810531415,,,,,,,,,,,,,0,111,111,113,1,0.512824233,1,,,,,,,,,,,,,,,,,,,,,,,,,,,,,,,,,,,,,,,,,,,,,,,,,,,,,,,,,,,,,,,,,,,,,,,,,,,,,,,,
,,5f58d7941af44708223b94da,2022-09-08_13h57.02.896,CGTgamblingSpanTasks,2022.2.1,Win32,60.0060006,,,,,,,,3.1684,,,,,,,,,,,,,,2,n,0.8316,0,1,4.1684,1,,,,,,28.9323758,0,2.893007023,,,,,,,,,,,,,0,112,112,11,1,0.497943321,1,,,,,,,,,,,,,,,,,,,,,,,,,,,,,,,,,,,,,,,,,,,,,,,,,,,,,,,,,,,,,,,,,,,,,,,,,,,,,,,,
,,5f58d7941af44708223b94da,2022-09-08_13h57.02.896,CGTgamblingSpanTasks,2022.2.1,Win32,60.0060006,,,,,,,,3.1155,,,,,,,,,,,,,,1,v,0.8845,0,1,4.1155,1,,,,,,29.77342428,0,2.838865588,,,,,,,,,,,,,0,113,113,57,1,0.510363415,1,,,,,,,,,,,,,,,,,,,,,,,,,,,,,,,,,,,,,,,,,,,,,,,,,,,,,,,,,,,,,,,,,,,,,,,,,,,,,,,,
,,5f58d7941af44708223b94da,2022-09-08_13h57.02.896,CGTgamblingSpanTasks,2022.2.1,Win32,60.0060006,,,,,,,,2.9523,,,,,,,,,,,,,,1,v,1.0477,11.16819157,1,4.4523,1.5,,,,,,11.16819157,0,0.941456753,,,,,,,,,,,,,0,114,114,45,1,0.54163803,1,,,,,,,,,,,,,,,,,,,,,,,,,,,,,,,,,,,,,,,,,,,,,,,,,,,,,,,,,,,,,,,,,,,,,,,,,,,,,,,,
,,5f58d7941af44708223b94da,2022-09-08_13h57.02.896,CGTgamblingSpanTasks,2022.2.1,Win32,60.0060006,,,,,,,,3.0397,,,,,,,,,,,,,,2,n,0.9603,23.24777057,1,4.5397,1.5,,,,,,23.24777057,0,2.003482335,,,,,,,,,,,,,0,115,115,59,1,0.536135174,1,,,,,,,,,,,,,,,,,,,,,,,,,,,,,,,,,,,,,,,,,,,,,,,,,,,,,,,,,,,,,,,,,,,,,,,,,,,,,,,,
,,5f58d7941af44708223b94da,2022-09-08_13h57.02.896,CGTgamblingSpanTasks,2022.2.1,Win32,60.0060006,,,,,,,,3.0793,,,,,,,,,,,,,,2,n,0.9207,0,1,4.5793,1.5,,,,,,22.87092517,0,0.059276504,,,,,,,,,,,,,0,116,116,27,1,0.911114935,0,,,,,,,,,,,,,,,,,,,,,,,,,,,,,,,,,,,,,,,,,,,,,,,,,,,,,,,,,,,,,,,,,,,,,,,,,,,,,,,,
,,5f58d7941af44708223b94da,2022-09-08_13h57.02.896,CGTgamblingSpanTasks,2022.2.1,Win32,60.0060006,,,,,,,,2.9994,,,,,,,,,,,,,,1,v,1.0006,0,1,3.9994,1,,,,,,22.0050376,0,2.257683666,,,,,,,,,,,,,0,117,117,4,1,0.491147312,1,,,,,,,,,,,,,,,,,,,,,,,,,,,,,,,,,,,,,,,,,,,,,,,,,,,,,,,,,,,,,,,,,,,,,,,,,,,,,,,,
,,5f58d7941af44708223b94da,2022-09-08_13h57.02.896,CGTgamblingSpanTasks,2022.2.1,Win32,60.0060006,,,,,,,,3.1071,,,,,,,,,,,,,,1,n,0.8929,6.781500919,0,4.6071,1.5,,,,,,8.363821911,0,6.781500919,,,,,,,,,,,,,0,118,118,61,1,0.044227959,0,,,,,,,,,,,,,,,,,,,,,,,,,,,,,,,,,,,,,,,,,,,,,,,,,,,,,,,,,,,,,,,,,,,,,,,,,,,,,,,,
,,5f58d7941af44708223b94da,2022-09-08_13h57.02.896,CGTgamblingSpanTasks,2022.2.1,Win32,60.0060006,,,,,,,,2.8904,,,,,,,,,,,,,,2,n,1.1096,0,1,4.3904,1.5,,,,,,18.51345298,0,1.932334278,,,,,,,,,,,,,0,119,119,31,1,0.48658696,1,,,,,,,,,,,,,,,,,,,,,,,,,,,,,,,,,,,,,,,,,,,,,,,,,,,,,,,,,,,,,,,,,,,,,,,,,,,,,,,,
,,5f58d7941af44708223b94da,2022-09-08_13h57.02.896,CGTgamblingSpanTasks,2022.2.1,Win32,60.0060006,,,,,,,,,,,,,,,,,,,,,,,,,,,,,,,,,,,,,,,,,,,,,,,,,,,,,,,,return,19.6272,,,,,,,,,,,,,,,,,,,,,,,,,,,,,,,,,,,,,,,,,,,,,,,,,,,,,,,,,,,,,,,,,,,,,,,,,,,,,,
,,5f58d7941af44708223b94da,2022-09-08_13h57.02.896,CGTgamblingSpanTasks,2022.2.1,Win32,60.0060006,,,,,,,,,,,,,,,,,,,,,,,,,,,,,,,,,,,,,,,,,,,,,,,,,,,,,,,,,,return,17.347,,,,,,,,,,,,,,,,,,,,,,,,,,,,,,,,,,,,,,,,,,,,,,,,,,,,,,,,,,,,,,,,,,,,,,,,,,,,
,,5f58d7941af44708223b94da,2022-09-08_13h57.02.896,CGTgamblingSpanTasks,2022.2.1,Win32,60.0060006,,,,,,,,,,,,,,,,,,,,,,,,,,,,,,,,,,,,,,,,,,,,,,,,,,,,,,,,,,,,return,23.1296,,,,,,,,,,,,,,,,,,,,,,,,,,,,,,,,,,,,,,,,,,,,,,,,,,,,,,,,,,,,,,,,,,,,,,,,,,
,,5f58d7941af44708223b94da,2022-09-08_13h57.02.896,CGTgamblingSpanTasks,2022.2.1,Win32,60.0060006,,,,,,,,,,,,,,,,,,,,,,,,,,,,,,,,,,,,,,,,,,,,,,,,,,,,,,,,,,,,,,342,1,0.058333333,-0.424074074,1,0,0,cont_buttonPractice,0,0,0,0,1,3,342,24,2,42,,,,,,,,,,,,,,,,,,,,,,,,,,,,,,,,,,,,,,,,,,,,,,,,,,,,,,,,
,,5f58d7941af44708223b94da,2022-09-08_13h57.02.896,CGTgamblingSpanTasks,2022.2.1,Win32,60.0060006,,,,,,,,,,,,,,,,,,,,,,,,,,,,,,,,,,,,,,,,,,,,,,,,,,,,,,,,,,,,,,937,1,0.048148148,-0.398148148,1,0,0,cont_buttonPractice,0,1,1,1,1,3,937,73,2,37,,,,,,,,,,,,,,,,,,,,,,,,,,,,,,,,,,,,,,,,,,,,,,,,,,,,,,,,
,,5f58d7941af44708223b94da,2022-09-08_13h57.02.896,CGTgamblingSpanTasks,2022.2.1,Win32,60.0060006,,,,,,,,,,,,,,,,,,,,,,,,,,,,,,,,,,,,,,,,,,,,,,,,,,,,,,,,,,,,,,,,,,,,,,,,,,,,,,,,return,53.8403,,,,,,,,,,,,,,,,,,,,,,,,,,,,,,,,,,,,,,,,,,,,,,,,,,,,,,
,,5f58d7941af44708223b94da,2022-09-08_13h57.02.896,CGTgamblingSpanTasks,2022.2.1,Win32,60.0060006,,,,,,,,,,,,,,,,,,,,,,,,,,,,,,,,,,,,,,,,,,,,,,,,,,,,,,,,,,,,,,,,,,,,,,,,,,,,,,,,,,"[5,1,2]",0,0,0,0,1,,,,,,,,,,,,,,,,,,,,,,,,,,,,,,,,,,,,,,,,,,,,,,,,
,,5f58d7941af44708223b94da,2022-09-08_13h57.02.896,CGTgamblingSpanTasks,2022.2.1,Win32,60.0060006,,,,,,,,,,,,,,,,,,,,,,,,,,,,,,,,,,,,,,,,,,,,,,,,,,,,,,,,,,,,,,,,,,,,,,,,,,,,,,,,,,"[5,1,2]",1,0,1,0,1,,,,,,,,,,,,,,,,,,,,,,,,,,,,,,,,,,,,,,,,,,,,,,,,
,,5f58d7941af44708223b94da,2022-09-08_13h57.02.896,CGTgamblingSpanTasks,2022.2.1,Win32,60.0060006,,,,,,,,,,,,,,,,,,,,,,,,,,,,,,,,,,,,,,,,,,,,,,,,,,,,,,,,,,,,,,,,,,,,,,,,,,,,,,,,,,"[5,1,2]",2,0,2,0,1,,,,,,,,,,,,,,,,,,,,,,,,,,,,,,,,,,,,,,,,,,,,,,,,
,,5f58d7941af44708223b94da,2022-09-08_13h57.02.896,CGTgamblingSpanTasks,2022.2.1,Win32,60.0060006,,,,,,,,,,,,,,,,,,,,,,,,,,,,,,,,,,,,,,,,,,,,,,,,,,,,,,,,,,,,,,,1,,,,,,,,,,,,,,,,,,,,,,,,,512,0.067592593,-0.391666667,1,0,0,cont_button,0,0,0,0,1,1,,,,,,,,,,,,,,,,,,,,,,,,,,,,,,,,,,,
,,5f58d7941af44708223b94da,2022-09-08_13h57.02.896,CGTgamblingSpanTasks,2022.2.1,Win32,60.0060006,,,,,,,,,,,,,,,,,,,,,,,,,,,,,,,,,,,,,,,,,,,,,,,,,,,,,,,,,,,,,,,,,,,,,,,,,,,,,,,,,,"[1,7,8,6]",0,0,0,0,1,,,,,,,,,,,,,,,,,,,,,,,,,,,,,,,,,,,,,,,,,,,,,,,,
,,5f58d7941af44708223b94da,2022-09-08_13h57.02.896,CGTgamblingSpanTasks,2022.2.1,Win32,60.0060006,,,,,,,,,,,,,,,,,,,,,,,,,,,,,,,,,,,,,,,,,,,,,,,,,,,,,,,,,,,,,,,,,,,,,,,,,,,,,,,,,,"[1,7,8,6]",1,0,1,0,1,,,,,,,,,,,,,,,,,,,,,,,,,,,,,,,,,,,,,,,,,,,,,,,,
,,5f58d7941af44708223b94da,2022-09-08_13h57.02.896,CGTgamblingSpanTasks,2022.2.1,Win32,60.0060006,,,,,,,,,,,,,,,,,,,,,,,,,,,,,,,,,,,,,,,,,,,,,,,,,,,,,,,,,,,,,,,,,,,,,,,,,,,,,,,,,,"[1,7,8,6]",2,0,2,0,1,,,,,,,,,,,,,,,,,,,,,,,,,,,,,,,,,,,,,,,,,,,,,,,,
,,5f58d7941af44708223b94da,2022-09-08_13h57.02.896,CGTgamblingSpanTasks,2022.2.1,Win32,60.0060006,,,,,,,,,,,,,,,,,,,,,,,,,,,,,,,,,,,,,,,,,,,,,,,,,,,,,,,,,,,,,,,,,,,,,,,,,,,,,,,,,,"[1,7,8,6]",3,0,3,0,1,,,,,,,,,,,,,,,,,,,,,,,,,,,,,,,,,,,,,,,,,,,,,,,,
,,5f58d7941af44708223b94da,2022-09-08_13h57.02.896,CGTgamblingSpanTasks,2022.2.1,Win32,60.0060006,,,,,,,,,,,,,,,,,,,,,,,,,,,,,,,,,,,,,,,,,,,,,,,,,,,,,,,,,,,,,,,1,,,,,,,,,,,,,,,,,,,,,,,,,1786,0.052777778,-0.403703704,1,0,0,cont_button,0,1,1,1,1,2,,,,,,,,,,,,,,,,,,,,,,,,,,,,,,,,,,,
,,5f58d7941af44708223b94da,2022-09-08_13h57.02.896,CGTgamblingSpanTasks,2022.2.1,Win32,60.0060006,,,,,,,,,,,,,,,,,,,,,,,,,,,,,,,,,,,,,,,,,,,,,,,,,,,,,,,,,,,,,,,,,,,,,,,,,,,,,,,,,,"[2,1,6,8,3]",0,0,0,0,1,,,,,,,,,,,,,,,,,,,,,,,,,,,,,,,,,,,,,,,,,,,,,,,,
,,5f58d7941af44708223b94da,2022-09-08_13h57.02.896,CGTgamblingSpanTasks,2022.2.1,Win32,60.0060006,,,,,,,,,,,,,,,,,,,,,,,,,,,,,,,,,,,,,,,,,,,,,,,,,,,,,,,,,,,,,,,,,,,,,,,,,,,,,,,,,,"[2,1,6,8,3]",1,0,1,0,1,,,,,,,,,,,,,,,,,,,,,,,,,,,,,,,,,,,,,,,,,,,,,,,,
,,5f58d7941af44708223b94da,2022-09-08_13h57.02.896,CGTgamblingSpanTasks,2022.2.1,Win32,60.0060006,,,,,,,,,,,,,,,,,,,,,,,,,,,,,,,,,,,,,,,,,,,,,,,,,,,,,,,,,,,,,,,,,,,,,,,,,,,,,,,,,,"[2,1,6,8,3]",2,0,2,0,1,,,,,,,,,,,,,,,,,,,,,,,,,,,,,,,,,,,,,,,,,,,,,,,,
,,5f58d7941af44708223b94da,2022-09-08_13h57.02.896,CGTgamblingSpanTasks,2022.2.1,Win32,60.0060006,,,,,,,,,,,,,,,,,,,,,,,,,,,,,,,,,,,,,,,,,,,,,,,,,,,,,,,,,,,,,,,,,,,,,,,,,,,,,,,,,,"[2,1,6,8,3]",3,0,3,0,1,,,,,,,,,,,,,,,,,,,,,,,,,,,,,,,,,,,,,,,,,,,,,,,,
,,5f58d7941af44708223b94da,2022-09-08_13h57.02.896,CGTgamblingSpanTasks,2022.2.1,Win32,60.0060006,,,,,,,,,,,,,,,,,,,,,,,,,,,,,,,,,,,,,,,,,,,,,,,,,,,,,,,,,,,,,,,,,,,,,,,,,,,,,,,,,,"[2,1,6,8,3]",4,0,4,0,1,,,,,,,,,,,,,,,,,,,,,,,,,,,,,,,,,,,,,,,,,,,,,,,,
,,5f58d7941af44708223b94da,2022-09-08_13h57.02.896,CGTgamblingSpanTasks,2022.2.1,Win32,60.0060006,,,,,,,,,,,,,,,,,,,,,,,,,,,,,,,,,,,,,,,,,,,,,,,,,,,,,,,,,,,,,,,1,,,,,,,,,,,,,,,,,,,,,,,,,21683,0.073148148,-0.39537037,1,0,0,cont_button,0,2,2,2,1,3,,,,,,,,,,,,,,,,,,,,,,,,,,,,,,,,,,,
,,5f58d7941af44708223b94da,2022-09-08_13h57.02.896,CGTgamblingSpanTasks,2022.2.1,Win32,60.0060006,,,,,,,,,,,,,,,,,,,,,,,,,,,,,,,,,,,,,,,,,,,,,,,,,,,,,,,,,,,,,,,,,,,,,,,,,,,,,,,,,,"[7,6,2,5,8,9]",0,0,0,0,1,,,,,,,,,,,,,,,,,,,,,,,,,,,,,,,,,,,,,,,,,,,,,,,,
,,5f58d7941af44708223b94da,2022-09-08_13h57.02.896,CGTgamblingSpanTasks,2022.2.1,Win32,60.0060006,,,,,,,,,,,,,,,,,,,,,,,,,,,,,,,,,,,,,,,,,,,,,,,,,,,,,,,,,,,,,,,,,,,,,,,,,,,,,,,,,,"[7,6,2,5,8,9]",1,0,1,0,1,,,,,,,,,,,,,,,,,,,,,,,,,,,,,,,,,,,,,,,,,,,,,,,,
,,5f58d7941af44708223b94da,2022-09-08_13h57.02.896,CGTgamblingSpanTasks,2022.2.1,Win32,60.0060006,,,,,,,,,,,,,,,,,,,,,,,,,,,,,,,,,,,,,,,,,,,,,,,,,,,,,,,,,,,,,,,,,,,,,,,,,,,,,,,,,,"[7,6,2,5,8,9]",2,0,2,0,1,,,,,,,,,,,,,,,,,,,,,,,,,,,,,,,,,,,,,,,,,,,,,,,,
,,5f58d7941af44708223b94da,2022-09-08_13h57.02.896,CGTgamblingSpanTasks,2022.2.1,Win32,60.0060006,,,,,,,,,,,,,,,,,,,,,,,,,,,,,,,,,,,,,,,,,,,,,,,,,,,,,,,,,,,,,,,,,,,,,,,,,,,,,,,,,,"[7,6,2,5,8,9]",3,0,3,0,1,,,,,,,,,,,,,,,,,,,,,,,,,,,,,,,,,,,,,,,,,,,,,,,,
,,5f58d7941af44708223b94da,2022-09-08_13h57.02.896,CGTgamblingSpanTasks,2022.2.1,Win32,60.0060006,,,,,,,,,,,,,,,,,,,,,,,,,,,,,,,,,,,,,,,,,,,,,,,,,,,,,,,,,,,,,,,,,,,,,,,,,,,,,,,,,,"[7,6,2,5,8,9]",4,0,4,0,1,,,,,,,,,,,,,,,,,,,,,,,,,,,,,,,,,,,,,,,,,,,,,,,,
,,5f58d7941af44708223b94da,2022-09-08_13h57.02.896,CGTgamblingSpanTasks,2022.2.1,Win32,60.0060006,,,,,,,,,,,,,,,,,,,,,,,,,,,,,,,,,,,,,,,,,,,,,,,,,,,,,,,,,,,,,,,,,,,,,,,,,,,,,,,,,,"[7,6,2,5,8,9]",5,0,5,0,1,,,,,,,,,,,,,,,,,,,,,,,,,,,,,,,,,,,,,,,,,,,,,,,,
,,5f58d7941af44708223b94da,2022-09-08_13h57.02.896,CGTgamblingSpanTasks,2022.2.1,Win32,60.0060006,,,,,,,,,,,,,,,,,,,,,,,,,,,,,,,,,,,,,,,,,,,,,,,,,,,,,,,,,,,,,,,0,,,,,,,,,,,,,,,,,,,,,,,,,762582,0.084259259,-0.384259259,1,0,0,cont_button,0,3,3,3,1,4,,,,,,,,,,,,,,,,,,,,,,,,,,,,,,,,,,,
,,5f58d7941af44708223b94da,2022-09-08_13h57.02.896,CGTgamblingSpanTasks,2022.2.1,Win32,60.0060006,,,,,,,,,,,,,,,,,,,,,,,,,,,,,,,,,,,,,,,,,,,,,,,,,,,,,,,,,,,,,,,,,,,,,,,,,,,,,,,,,,"[4,1,9,3,8,2]",0,0,0,0,1,,,,,,,,,,,,,,,,,,,,,,,,,,,,,,,,,,,,,,,,,,,,,,,,
,,5f58d7941af44708223b94da,2022-09-08_13h57.02.896,CGTgamblingSpanTasks,2022.2.1,Win32,60.0060006,,,,,,,,,,,,,,,,,,,,,,,,,,,,,,,,,,,,,,,,,,,,,,,,,,,,,,,,,,,,,,,,,,,,,,,,,,,,,,,,,,"[4,1,9,3,8,2]",1,0,1,0,1,,,,,,,,,,,,,,,,,,,,,,,,,,,,,,,,,,,,,,,,,,,,,,,,
,,5f58d7941af44708223b94da,2022-09-08_13h57.02.896,CGTgamblingSpanTasks,2022.2.1,Win32,60.0060006,,,,,,,,,,,,,,,,,,,,,,,,,,,,,,,,,,,,,,,,,,,,,,,,,,,,,,,,,,,,,,,,,,,,,,,,,,,,,,,,,,"[4,1,9,3,8,2]",2,0,2,0,1,,,,,,,,,,,,,,,,,,,,,,,,,,,,,,,,,,,,,,,,,,,,,,,,
,,5f58d7941af44708223b94da,2022-09-08_13h57.02.896,CGTgamblingSpanTasks,2022.2.1,Win32,60.0060006,,,,,,,,,,,,,,,,,,,,,,,,,,,,,,,,,,,,,,,,,,,,,,,,,,,,,,,,,,,,,,,,,,,,,,,,,,,,,,,,,,"[4,1,9,3,8,2]",3,0,3,0,1,,,,,,,,,,,,,,,,,,,,,,,,,,,,,,,,,,,,,,,,,,,,,,,,
,,5f58d7941af44708223b94da,2022-09-08_13h57.02.896,CGTgamblingSpanTasks,2022.2.1,Win32,60.0060006,,,,,,,,,,,,,,,,,,,,,,,,,,,,,,,,,,,,,,,,,,,,,,,,,,,,,,,,,,,,,,,,,,,,,,,,,,,,,,,,,,"[4,1,9,3,8,2]",4,0,4,0,1,,,,,,,,,,,,,,,,,,,,,,,,,,,,,,,,,,,,,,,,,,,,,,,,
,,5f58d7941af44708223b94da,2022-09-08_13h57.02.896,CGTgamblingSpanTasks,2022.2.1,Win32,60.0060006,,,,,,,,,,,,,,,,,,,,,,,,,,,,,,,,,,,,,,,,,,,,,,,,,,,,,,,,,,,,,,,,,,,,,,,,,,,,,,,,,,"[4,1,9,3,8,2]",5,0,5,0,1,,,,,,,,,,,,,,,,,,,,,,,,,,,,,,,,,,,,,,,,,,,,,,,,
,,5f58d7941af44708223b94da,2022-09-08_13h57.02.896,CGTgamblingSpanTasks,2022.2.1,Win32,60.0060006,,,,,,,,,,,,,,,,,,,,,,,,,,,,,,,,,,,,,,,,,,,,,,,,,,,,,,,,,,,,,,,0,,,,,,,,,,,,,,,,,,,,,,,,,519382,-0.016666667,-0.415740741,1,0,0,cont_button,0,4,4,4,1,5,,,,,,,,,,,,,,,,,,,,,,,,,,,,,,,,,,,
,,5f58d7941af44708223b94da,2022-09-08_13h57.02.896,CGTgamblingSpanTasks,2022.2.1,Win32,60.0060006,,,,,,,,,,,,,,,,,,,,,,,,,,,,,,,,,,,,,,,,,,,,,,,,,,,,,,,,,,,,,,,,,,,,,,,,,,,,,,,,,,"[9,8,3,2,4]",0,0,0,0,1,,,,,,,,,,,,,,,,,,,,,,,,,,,,,,,,,,,,,,,,,,,,,,,,
,,5f58d7941af44708223b94da,2022-09-08_13h57.02.896,CGTgamblingSpanTasks,2022.2.1,Win32,60.0060006,,,,,,,,,,,,,,,,,,,,,,,,,,,,,,,,,,,,,,,,,,,,,,,,,,,,,,,,,,,,,,,,,,,,,,,,,,,,,,,,,,"[9,8,3,2,4]",1,0,1,0,1,,,,,,,,,,,,,,,,,,,,,,,,,,,,,,,,,,,,,,,,,,,,,,,,
,,5f58d7941af44708223b94da,2022-09-08_13h57.02.896,CGTgamblingSpanTasks,2022.2.1,Win32,60.0060006,,,,,,,,,,,,,,,,,,,,,,,,,,,,,,,,,,,,,,,,,,,,,,,,,,,,,,,,,,,,,,,,,,,,,,,,,,,,,,,,,,"[9,8,3,2,4]",2,0,2,0,1,,,,,,,,,,,,,,,,,,,,,,,,,,,,,,,,,,,,,,,,,,,,,,,,
,,5f58d7941af44708223b94da,2022-09-08_13h57.02.896,CGTgamblingSpanTasks,2022.2.1,Win32,60.0060006,,,,,,,,,,,,,,,,,,,,,,,,,,,,,,,,,,,,,,,,,,,,,,,,,,,,,,,,,,,,,,,,,,,,,,,,,,,,,,,,,,"[9,8,3,2,4]",3,0,3,0,1,,,,,,,,,,,,,,,,,,,,,,,,,,,,,,,,,,,,,,,,,,,,,,,,
,,5f58d7941af44708223b94da,2022-09-08_13h57.02.896,CGTgamblingSpanTasks,2022.2.1,Win32,60.0060006,,,,,,,,,,,,,,,,,,,,,,,,,,,,,,,,,,,,,,,,,,,,,,,,,,,,,,,,,,,,,,,,,,,,,,,,,,,,,,,,,,"[9,8,3,2,4]",4,0,4,0,1,,,,,,,,,,,,,,,,,,,,,,,,,,,,,,,,,,,,,,,,,,,,,,,,
,,5f58d7941af44708223b94da,2022-09-08_13h57.02.896,CGTgamblingSpanTasks,2022.2.1,Win32,60.0060006,,,,,,,,,,,,,,,,,,,,,,,,,,,,,,,,,,,,,,,,,,,,,,,,,,,,,,,,,,,,,,,1,,,,,,,,,,,,,,,,,,,,,,,,,98324,0.083333333,-0.409259259,1,0,0,cont_button,0,5,5,5,1,6,,,,,,,,,,,,,,,,,,,,,,,,,,,,,,,,,,,
,,5f58d7941af44708223b94da,2022-09-08_13h57.02.896,CGTgamblingSpanTasks,2022.2.1,Win32,60.0060006,,,,,,,,,,,,,,,,,,,,,,,,,,,,,,,,,,,,,,,,,,,,,,,,,,,,,,,,,,,,,,,,,,,,,,,,,,,,,,,,,,"[9,3,5,8,1,6]",0,0,0,0,1,,,,,,,,,,,,,,,,,,,,,,,,,,,,,,,,,,,,,,,,,,,,,,,,
,,5f58d7941af44708223b94da,2022-09-08_13h57.02.896,CGTgamblingSpanTasks,2022.2.1,Win32,60.0060006,,,,,,,,,,,,,,,,,,,,,,,,,,,,,,,,,,,,,,,,,,,,,,,,,,,,,,,,,,,,,,,,,,,,,,,,,,,,,,,,,,"[9,3,5,8,1,6]",1,0,1,0,1,,,,,,,,,,,,,,,,,,,,,,,,,,,,,,,,,,,,,,,,,,,,,,,,
,,5f58d7941af44708223b94da,2022-09-08_13h57.02.896,CGTgamblingSpanTasks,2022.2.1,Win32,60.0060006,,,,,,,,,,,,,,,,,,,,,,,,,,,,,,,,,,,,,,,,,,,,,,,,,,,,,,,,,,,,,,,,,,,,,,,,,,,,,,,,,,"[9,3,5,8,1,6]",2,0,2,0,1,,,,,,,,,,,,,,,,,,,,,,,,,,,,,,,,,,,,,,,,,,,,,,,,
,,5f58d7941af44708223b94da,2022-09-08_13h57.02.896,CGTgamblingSpanTasks,2022.2.1,Win32,60.0060006,,,,,,,,,,,,,,,,,,,,,,,,,,,,,,,,,,,,,,,,,,,,,,,,,,,,,,,,,,,,,,,,,,,,,,,,,,,,,,,,,,"[9,3,5,8,1,6]",3,0,3,0,1,,,,,,,,,,,,,,,,,,,,,,,,,,,,,,,,,,,,,,,,,,,,,,,,
,,5f58d7941af44708223b94da,2022-09-08_13h57.02.896,CGTgamblingSpanTasks,2022.2.1,Win32,60.0060006,,,,,,,,,,,,,,,,,,,,,,,,,,,,,,,,,,,,,,,,,,,,,,,,,,,,,,,,,,,,,,,,,,,,,,,,,,,,,,,,,,"[9,3,5,8,1,6]",4,0,4,0,1,,,,,,,,,,,,,,,,,,,,,,,,,,,,,,,,,,,,,,,,,,,,,,,,
,,5f58d7941af44708223b94da,2022-09-08_13h57.02.896,CGTgamblingSpanTasks,2022.2.1,Win32,60.0060006,,,,,,,,,,,,,,,,,,,,,,,,,,,,,,,,,,,,,,,,,,,,,,,,,,,,,,,,,,,,,,,,,,,,,,,,,,,,,,,,,,"[9,3,5,8,1,6]",5,0,5,0,1,,,,,,,,,,,,,,,,,,,,,,,,,,,,,,,,,,,,,,,,,,,,,,,,
,,5f58d7941af44708223b94da,2022-09-08_13h57.02.896,CGTgamblingSpanTasks,2022.2.1,Win32,60.0060006,,,,,,,,,,,,,,,,,,,,,,,,,,,,,,,,,,,,,,,,,,,,,,,,,,,,,,,,,,,,,,,0,,,,,,,,,,,,,,,,,,,,,,,,,985318,0.089814815,-0.400925926,1,0,0,cont_button,0,6,6,6,1,7,,,,,,,,,,,,,,,,,,,,,,,,,,,,,,,,,,,
,,5f58d7941af44708223b94da,2022-09-08_13h57.02.896,CGTgamblingSpanTasks,2022.2.1,Win32,60.0060006,,,,,,,,,,,,,,,,,,,,,,,,,,,,,,,,,,,,,,,,,,,,,,,,,,,,,,,,,,,,,,,,,,,,,,,,,,,,,,,,,,"[6,7,5,3,1,2]",0,0,0,0,1,,,,,,,,,,,,,,,,,,,,,,,,,,,,,,,,,,,,,,,,,,,,,,,,
,,5f58d7941af44708223b94da,2022-09-08_13h57.02.896,CGTgamblingSpanTasks,2022.2.1,Win32,60.0060006,,,,,,,,,,,,,,,,,,,,,,,,,,,,,,,,,,,,,,,,,,,,,,,,,,,,,,,,,,,,,,,,,,,,,,,,,,,,,,,,,,"[6,7,5,3,1,2]",1,0,1,0,1,,,,,,,,,,,,,,,,,,,,,,,,,,,,,,,,,,,,,,,,,,,,,,,,
,,5f58d7941af44708223b94da,2022-09-08_13h57.02.896,CGTgamblingSpanTasks,2022.2.1,Win32,60.0060006,,,,,,,,,,,,,,,,,,,,,,,,,,,,,,,,,,,,,,,,,,,,,,,,,,,,,,,,,,,,,,,,,,,,,,,,,,,,,,,,,,"[6,7,5,3,1,2]",2,0,2,0,1,,,,,,,,,,,,,,,,,,,,,,,,,,,,,,,,,,,,,,,,,,,,,,,,
,,5f58d7941af44708223b94da,2022-09-08_13h57.02.896,CGTgamblingSpanTasks,2022.2.1,Win32,60.0060006,,,,,,,,,,,,,,,,,,,,,,,,,,,,,,,,,,,,,,,,,,,,,,,,,,,,,,,,,,,,,,,,,,,,,,,,,,,,,,,,,,"[6,7,5,3,1,2]",3,0,3,0,1,,,,,,,,,,,,,,,,,,,,,,,,,,,,,,,,,,,,,,,,,,,,,,,,
,,5f58d7941af44708223b94da,2022-09-08_13h57.02.896,CGTgamblingSpanTasks,2022.2.1,Win32,60.0060006,,,,,,,,,,,,,,,,,,,,,,,,,,,,,,,,,,,,,,,,,,,,,,,,,,,,,,,,,,,,,,,,,,,,,,,,,,,,,,,,,,"[6,7,5,3,1,2]",4,0,4,0,1,,,,,,,,,,,,,,,,,,,,,,,,,,,,,,,,,,,,,,,,,,,,,,,,
,,5f58d7941af44708223b94da,2022-09-08_13h57.02.896,CGTgamblingSpanTasks,2022.2.1,Win32,60.0060006,,,,,,,,,,,,,,,,,,,,,,,,,,,,,,,,,,,,,,,,,,,,,,,,,,,,,,,,,,,,,,,,,,,,,,,,,,,,,,,,,,"[6,7,5,3,1,2]",5,0,5,0,1,,,,,,,,,,,,,,,,,,,,,,,,,,,,,,,,,,,,,,,,,,,,,,,,
,,5f58d7941af44708223b94da,2022-09-08_13h57.02.896,CGTgamblingSpanTasks,2022.2.1,Win32,60.0060006,,,,,,,,,,,,,,,,,,,,,,,,,,,,,,,,,,,,,,,,,,,,,,,,,,,,,,,,,,,,,,,1,,,,,,,,,,,,,,,,,,,,,,,,,675312,0.143518519,-0.383333333,1,0,0,cont_button,0,7,7,7,1,8,,,,,,,,,,,,,,,,,,,,,,,,,,,,,,,,,,,
,,5f58d7941af44708223b94da,2022-09-08_13h57.02.896,CGTgamblingSpanTasks,2022.2.1,Win32,60.0060006,,,,,,,,,,,,,,,,,,,,,,,,,,,,,,,,,,,,,,,,,,,,,,,,,,,,,,,,,,,,,,,,,,,,,,,,,,,,,,,,,,"[1,6,7,5,2,8,4]",0,0,0,0,1,,,,,,,,,,,,,,,,,,,,,,,,,,,,,,,,,,,,,,,,,,,,,,,,
,,5f58d7941af44708223b94da,2022-09-08_13h57.02.896,CGTgamblingSpanTasks,2022.2.1,Win32,60.0060006,,,,,,,,,,,,,,,,,,,,,,,,,,,,,,,,,,,,,,,,,,,,,,,,,,,,,,,,,,,,,,,,,,,,,,,,,,,,,,,,,,"[1,6,7,5,2,8,4]",1,0,1,0,1,,,,,,,,,,,,,,,,,,,,,,,,,,,,,,,,,,,,,,,,,,,,,,,,
,,5f58d7941af44708223b94da,2022-09-08_13h57.02.896,CGTgamblingSpanTasks,2022.2.1,Win32,60.0060006,,,,,,,,,,,,,,,,,,,,,,,,,,,,,,,,,,,,,,,,,,,,,,,,,,,,,,,,,,,,,,,,,,,,,,,,,,,,,,,,,,"[1,6,7,5,2,8,4]",2,0,2,0,1,,,,,,,,,,,,,,,,,,,,,,,,,,,,,,,,,,,,,,,,,,,,,,,,
,,5f58d7941af44708223b94da,2022-09-08_13h57.02.896,CGTgamblingSpanTasks,2022.2.1,Win32,60.0060006,,,,,,,,,,,,,,,,,,,,,,,,,,,,,,,,,,,,,,,,,,,,,,,,,,,,,,,,,,,,,,,,,,,,,,,,,,,,,,,,,,"[1,6,7,5,2,8,4]",3,0,3,0,1,,,,,,,,,,,,,,,,,,,,,,,,,,,,,,,,,,,,,,,,,,,,,,,,
,,5f58d7941af44708223b94da,2022-09-08_13h57.02.896,CGTgamblingSpanTasks,2022.2.1,Win32,60.0060006,,,,,,,,,,,,,,,,,,,,,,,,,,,,,,,,,,,,,,,,,,,,,,,,,,,,,,,,,,,,,,,,,,,,,,,,,,,,,,,,,,"[1,6,7,5,2,8,4]",4,0,4,0,1,,,,,,,,,,,,,,,,,,,,,,,,,,,,,,,,,,,,,,,,,,,,,,,,
,,5f58d7941af44708223b94da,2022-09-08_13h57.02.896,CGTgamblingSpanTasks,2022.2.1,Win32,60.0060006,,,,,,,,,,,,,,,,,,,,,,,,,,,,,,,,,,,,,,,,,,,,,,,,,,,,,,,,,,,,,,,,,,,,,,,,,,,,,,,,,,"[1,6,7,5,2,8,4]",5,0,5,0,1,,,,,,,,,,,,,,,,,,,,,,,,,,,,,,,,,,,,,,,,,,,,,,,,
,,5f58d7941af44708223b94da,2022-09-08_13h57.02.896,CGTgamblingSpanTasks,2022.2.1,Win32,60.0060006,,,,,,,,,,,,,,,,,,,,,,,,,,,,,,,,,,,,,,,,,,,,,,,,,,,,,,,,,,,,,,,,,,,,,,,,,,,,,,,,,,"[1,6,7,5,2,8,4]",6,0,6,0,1,,,,,,,,,,,,,,,,,,,,,,,,,,,,,,,,,,,,,,,,,,,,,,,,
,,5f58d7941af44708223b94da,2022-09-08_13h57.02.896,CGTgamblingSpanTasks,2022.2.1,Win32,60.0060006,,,,,,,,,,,,,,,,,,,,,,,,,,,,,,,,,,,,,,,,,,,,,,,,,,,,,,,,,,,,,,,0,,,,,,,,,,,,,,,,,,,,,,,,,1675238,0.124074074,-0.406481481,1,0,0,cont_button,0,8,8,8,1,9,,,,,,,,,,,,,,,,,,,,,,,,,,,,,,,,,,,
,,5f58d7941af44708223b94da,2022-09-08_13h57.02.896,CGTgamblingSpanTasks,2022.2.1,Win32,60.0060006,,,,,,,,,,,,,,,,,,,,,,,,,,,,,,,,,,,,,,,,,,,,,,,,,,,,,,,,,,,,,,,,,,,,,,,,,,,,,,,,,,"[6,8,1,5,4,9,3]",0,0,0,0,1,,,,,,,,,,,,,,,,,,,,,,,,,,,,,,,,,,,,,,,,,,,,,,,,
,,5f58d7941af44708223b94da,2022-09-08_13h57.02.896,CGTgamblingSpanTasks,2022.2.1,Win32,60.0060006,,,,,,,,,,,,,,,,,,,,,,,,,,,,,,,,,,,,,,,,,,,,,,,,,,,,,,,,,,,,,,,,,,,,,,,,,,,,,,,,,,"[6,8,1,5,4,9,3]",1,0,1,0,1,,,,,,,,,,,,,,,,,,,,,,,,,,,,,,,,,,,,,,,,,,,,,,,,
,,5f58d7941af44708223b94da,2022-09-08_13h57.02.896,CGTgamblingSpanTasks,2022.2.1,Win32,60.0060006,,,,,,,,,,,,,,,,,,,,,,,,,,,,,,,,,,,,,,,,,,,,,,,,,,,,,,,,,,,,,,,,,,,,,,,,,,,,,,,,,,"[6,8,1,5,4,9,3]",2,0,2,0,1,,,,,,,,,,,,,,,,,,,,,,,,,,,,,,,,,,,,,,,,,,,,,,,,
,,5f58d7941af44708223b94da,2022-09-08_13h57.02.896,CGTgamblingSpanTasks,2022.2.1,Win32,60.0060006,,,,,,,,,,,,,,,,,,,,,,,,,,,,,,,,,,,,,,,,,,,,,,,,,,,,,,,,,,,,,,,,,,,,,,,,,,,,,,,,,,"[6,8,1,5,4,9,3]",3,0,3,0,1,,,,,,,,,,,,,,,,,,,,,,,,,,,,,,,,,,,,,,,,,,,,,,,,
,,5f58d7941af44708223b94da,2022-09-08_13h57.02.896,CGTgamblingSpanTasks,2022.2.1,Win32,60.0060006,,,,,,,,,,,,,,,,,,,,,,,,,,,,,,,,,,,,,,,,,,,,,,,,,,,,,,,,,,,,,,,,,,,,,,,,,,,,,,,,,,"[6,8,1,5,4,9,3]",4,0,4,0,1,,,,,,,,,,,,,,,,,,,,,,,,,,,,,,,,,,,,,,,,,,,,,,,,
,,5f58d7941af44708223b94da,2022-09-08_13h57.02.896,CGTgamblingSpanTasks,2022.2.1,Win32,60.0060006,,,,,,,,,,,,,,,,,,,,,,,,,,,,,,,,,,,,,,,,,,,,,,,,,,,,,,,,,,,,,,,,,,,,,,,,,,,,,,,,,,"[6,8,1,5,4,9,3]",5,0,5,0,1,,,,,,,,,,,,,,,,,,,,,,,,,,,,,,,,,,,,,,,,,,,,,,,,
,,5f58d7941af44708223b94da,2022-09-08_13h57.02.896,CGTgamblingSpanTasks,2022.2.1,Win32,60.0060006,,,,,,,,,,,,,,,,,,,,,,,,,,,,,,,,,,,,,,,,,,,,,,,,,,,,,,,,,,,,,,,,,,,,,,,,,,,,,,,,,,"[6,8,1,5,4,9,3]",6,0,6,0,1,,,,,,,,,,,,,,,,,,,,,,,,,,,,,,,,,,,,,,,,,,,,,,,,
,,5f58d7941af44708223b94da,2022-09-08_13h57.02.896,CGTgamblingSpanTasks,2022.2.1,Win32,60.0060006,,,,,,,,,,,,,,,,,,,,,,,,,,,,,,,,,,,,,,,,,,,,,,,,,,,,,,,,,,,,,,,1,,,,,,,,,,,,,,,,,,,,,,,,,6815493,0.09537037,-0.383333333,1,0,0,cont_button,0,9,9,9,1,10,,,,,,,,,,,,,,,,,,,,,,,,,,,,,,,,,,,
,,5f58d7941af44708223b94da,2022-09-08_13h57.02.896,CGTgamblingSpanTasks,2022.2.1,Win32,60.0060006,,,,,,,,,,,,,,,,,,,,,,,,,,,,,,,,,,,,,,,,,,,,,,,,,,,,,,,,,,,,,,,,,,,,,,,,,,,,,,,,,,"[9,5,8,7,3,4,2,1]",0,0,0,0,1,,,,,,,,,,,,,,,,,,,,,,,,,,,,,,,,,,,,,,,,,,,,,,,,
,,5f58d7941af44708223b94da,2022-09-08_13h57.02.896,CGTgamblingSpanTasks,2022.2.1,Win32,60.0060006,,,,,,,,,,,,,,,,,,,,,,,,,,,,,,,,,,,,,,,,,,,,,,,,,,,,,,,,,,,,,,,,,,,,,,,,,,,,,,,,,,"[9,5,8,7,3,4,2,1]",1,0,1,0,1,,,,,,,,,,,,,,,,,,,,,,,,,,,,,,,,,,,,,,,,,,,,,,,,
,,5f58d7941af44708223b94da,2022-09-08_13h57.02.896,CGTgamblingSpanTasks,2022.2.1,Win32,60.0060006,,,,,,,,,,,,,,,,,,,,,,,,,,,,,,,,,,,,,,,,,,,,,,,,,,,,,,,,,,,,,,,,,,,,,,,,,,,,,,,,,,"[9,5,8,7,3,4,2,1]",2,0,2,0,1,,,,,,,,,,,,,,,,,,,,,,,,,,,,,,,,,,,,,,,,,,,,,,,,
,,5f58d7941af44708223b94da,2022-09-08_13h57.02.896,CGTgamblingSpanTasks,2022.2.1,Win32,60.0060006,,,,,,,,,,,,,,,,,,,,,,,,,,,,,,,,,,,,,,,,,,,,,,,,,,,,,,,,,,,,,,,,,,,,,,,,,,,,,,,,,,"[9,5,8,7,3,4,2,1]",3,0,3,0,1,,,,,,,,,,,,,,,,,,,,,,,,,,,,,,,,,,,,,,,,,,,,,,,,
,,5f58d7941af44708223b94da,2022-09-08_13h57.02.896,CGTgamblingSpanTasks,2022.2.1,Win32,60.0060006,,,,,,,,,,,,,,,,,,,,,,,,,,,,,,,,,,,,,,,,,,,,,,,,,,,,,,,,,,,,,,,,,,,,,,,,,,,,,,,,,,"[9,5,8,7,3,4,2,1]",4,0,4,0,1,,,,,,,,,,,,,,,,,,,,,,,,,,,,,,,,,,,,,,,,,,,,,,,,
,,5f58d7941af44708223b94da,2022-09-08_13h57.02.896,CGTgamblingSpanTasks,2022.2.1,Win32,60.0060006,,,,,,,,,,,,,,,,,,,,,,,,,,,,,,,,,,,,,,,,,,,,,,,,,,,,,,,,,,,,,,,,,,,,,,,,,,,,,,,,,,"[9,5,8,7,3,4,2,1]",5,0,5,0,1,,,,,,,,,,,,,,,,,,,,,,,,,,,,,,,,,,,,,,,,,,,,,,,,
,,5f58d7941af44708223b94da,2022-09-08_13h57.02.896,CGTgamblingSpanTasks,2022.2.1,Win32,60.0060006,,,,,,,,,,,,,,,,,,,,,,,,,,,,,,,,,,,,,,,,,,,,,,,,,,,,,,,,,,,,,,,,,,,,,,,,,,,,,,,,,,"[9,5,8,7,3,4,2,1]",6,0,6,0,1,,,,,,,,,,,,,,,,,,,,,,,,,,,,,,,,,,,,,,,,,,,,,,,,
,,5f58d7941af44708223b94da,2022-09-08_13h57.02.896,CGTgamblingSpanTasks,2022.2.1,Win32,60.0060006,,,,,,,,,,,,,,,,,,,,,,,,,,,,,,,,,,,,,,,,,,,,,,,,,,,,,,,,,,,,,,,,,,,,,,,,,,,,,,,,,,"[9,5,8,7,3,4,2,1]",7,0,7,0,1,,,,,,,,,,,,,,,,,,,,,,,,,,,,,,,,,,,,,,,,,,,,,,,,
,,5f58d7941af44708223b94da,2022-09-08_13h57.02.896,CGTgamblingSpanTasks,2022.2.1,Win32,60.0060006,,,,,,,,,,,,,,,,,,,,,,,,,,,,,,,,,,,,,,,,,,,,,,,,,,,,,,,,,,,,,,,1,,,,,,,,,,,,,,,,,,,,,,,,,95873421,0.025,-0.4,1,0,0,cont_button,0,10,10,10,1,11,,,,,,,,,,,,,,,,,,,,,,,,,,,,,,,,,,,
,,5f58d7941af44708223b94da,2022-09-08_13h57.02.896,CGTgamblingSpanTasks,2022.2.1,Win32,60.0060006,,,,,,,,,,,,,,,,,,,,,,,,,,,,,,,,,,,,,,,,,,,,,,,,,,,,,,,,,,,,,,,,,,,,,,,,,,,,,,,,,,"[8,1,9,5,3,6,7,4,2]",0,0,0,0,1,,,,,,,,,,,,,,,,,,,,,,,,,,,,,,,,,,,,,,,,,,,,,,,,
,,5f58d7941af44708223b94da,2022-09-08_13h57.02.896,CGTgamblingSpanTasks,2022.2.1,Win32,60.0060006,,,,,,,,,,,,,,,,,,,,,,,,,,,,,,,,,,,,,,,,,,,,,,,,,,,,,,,,,,,,,,,,,,,,,,,,,,,,,,,,,,"[8,1,9,5,3,6,7,4,2]",1,0,1,0,1,,,,,,,,,,,,,,,,,,,,,,,,,,,,,,,,,,,,,,,,,,,,,,,,
,,5f58d7941af44708223b94da,2022-09-08_13h57.02.896,CGTgamblingSpanTasks,2022.2.1,Win32,60.0060006,,,,,,,,,,,,,,,,,,,,,,,,,,,,,,,,,,,,,,,,,,,,,,,,,,,,,,,,,,,,,,,,,,,,,,,,,,,,,,,,,,"[8,1,9,5,3,6,7,4,2]",2,0,2,0,1,,,,,,,,,,,,,,,,,,,,,,,,,,,,,,,,,,,,,,,,,,,,,,,,
,,5f58d7941af44708223b94da,2022-09-08_13h57.02.896,CGTgamblingSpanTasks,2022.2.1,Win32,60.0060006,,,,,,,,,,,,,,,,,,,,,,,,,,,,,,,,,,,,,,,,,,,,,,,,,,,,,,,,,,,,,,,,,,,,,,,,,,,,,,,,,,"[8,1,9,5,3,6,7,4,2]",3,0,3,0,1,,,,,,,,,,,,,,,,,,,,,,,,,,,,,,,,,,,,,,,,,,,,,,,,
,,5f58d7941af44708223b94da,2022-09-08_13h57.02.896,CGTgamblingSpanTasks,2022.2.1,Win32,60.0060006,,,,,,,,,,,,,,,,,,,,,,,,,,,,,,,,,,,,,,,,,,,,,,,,,,,,,,,,,,,,,,,,,,,,,,,,,,,,,,,,,,"[8,1,9,5,3,6,7,4,2]",4,0,4,0,1,,,,,,,,,,,,,,,,,,,,,,,,,,,,,,,,,,,,,,,,,,,,,,,,
,,5f58d7941af44708223b94da,2022-09-08_13h57.02.896,CGTgamblingSpanTasks,2022.2.1,Win32,60.0060006,,,,,,,,,,,,,,,,,,,,,,,,,,,,,,,,,,,,,,,,,,,,,,,,,,,,,,,,,,,,,,,,,,,,,,,,,,,,,,,,,,"[8,1,9,5,3,6,7,4,2]",5,0,5,0,1,,,,,,,,,,,,,,,,,,,,,,,,,,,,,,,,,,,,,,,,,,,,,,,,
,,5f58d7941af44708223b94da,2022-09-08_13h57.02.896,CGTgamblingSpanTasks,2022.2.1,Win32,60.0060006,,,,,,,,,,,,,,,,,,,,,,,,,,,,,,,,,,,,,,,,,,,,,,,,,,,,,,,,,,,,,,,,,,,,,,,,,,,,,,,,,,"[8,1,9,5,3,6,7,4,2]",6,0,6,0,1,,,,,,,,,,,,,,,,,,,,,,,,,,,,,,,,,,,,,,,,,,,,,,,,
,,5f58d7941af44708223b94da,2022-09-08_13h57.02.896,CGTgamblingSpanTasks,2022.2.1,Win32,60.0060006,,,,,,,,,,,,,,,,,,,,,,,,,,,,,,,,,,,,,,,,,,,,,,,,,,,,,,,,,,,,,,,,,,,,,,,,,,,,,,,,,,"[8,1,9,5,3,6,7,4,2]",7,0,7,0,1,,,,,,,,,,,,,,,,,,,,,,,,,,,,,,,,,,,,,,,,,,,,,,,,
,,5f58d7941af44708223b94da,2022-09-08_13h57.02.896,CGTgamblingSpanTasks,2022.2.1,Win32,60.0060006,,,,,,,,,,,,,,,,,,,,,,,,,,,,,,,,,,,,,,,,,,,,,,,,,,,,,,,,,,,,,,,,,,,,,,,,,,,,,,,,,,"[8,1,9,5,3,6,7,4,2]",8,0,8,0,1,,,,,,,,,,,,,,,,,,,,,,,,,,,,,,,,,,,,,,,,,,,,,,,,
,,5f58d7941af44708223b94da,2022-09-08_13h57.02.896,CGTgamblingSpanTasks,2022.2.1,Win32,60.0060006,,,,,,,,,,,,,,,,,,,,,,,,,,,,,,,,,,,,,,,,,,,,,,,,,,,,,,,,,,,,,,,1,,,,,,,,,,,,,,,,,,,,,,,,,819536742,0.118518519,-0.433333333,1,0,0,cont_button,0,11,11,11,1,12,,,,,,,,,,,,,,,,,,,,,,,,,,,,,,,,,,,
,,5f58d7941af44708223b94da,2022-09-08_13h57.02.896,CGTgamblingSpanTasks,2022.2.1,Win32,60.0060006,,,,,,,,,,,,,,,,,,,,,,,,,,,,,,,,,,,,,,,,,,,,,,,,,,,,,,,,,,,,,,,,,,,,,,,,,,,,,,,,,,"[8,9,7,6,3,5,4,1,2,2]",0,0,0,0,1,,,,,,,,,,,,,,,,,,,,,,,,,,,,,,,,,,,,,,,,,,,,,,,,
,,5f58d7941af44708223b94da,2022-09-08_13h57.02.896,CGTgamblingSpanTasks,2022.2.1,Win32,60.0060006,,,,,,,,,,,,,,,,,,,,,,,,,,,,,,,,,,,,,,,,,,,,,,,,,,,,,,,,,,,,,,,,,,,,,,,,,,,,,,,,,,"[8,9,7,6,3,5,4,1,2,2]",1,0,1,0,1,,,,,,,,,,,,,,,,,,,,,,,,,,,,,,,,,,,,,,,,,,,,,,,,
,,5f58d7941af44708223b94da,2022-09-08_13h57.02.896,CGTgamblingSpanTasks,2022.2.1,Win32,60.0060006,,,,,,,,,,,,,,,,,,,,,,,,,,,,,,,,,,,,,,,,,,,,,,,,,,,,,,,,,,,,,,,,,,,,,,,,,,,,,,,,,,"[8,9,7,6,3,5,4,1,2,2]",2,0,2,0,1,,,,,,,,,,,,,,,,,,,,,,,,,,,,,,,,,,,,,,,,,,,,,,,,
,,5f58d7941af44708223b94da,2022-09-08_13h57.02.896,CGTgamblingSpanTasks,2022.2.1,Win32,60.0060006,,,,,,,,,,,,,,,,,,,,,,,,,,,,,,,,,,,,,,,,,,,,,,,,,,,,,,,,,,,,,,,,,,,,,,,,,,,,,,,,,,"[8,9,7,6,3,5,4,1,2,2]",3,0,3,0,1,,,,,,,,,,,,,,,,,,,,,,,,,,,,,,,,,,,,,,,,,,,,,,,,
,,5f58d7941af44708223b94da,2022-09-08_13h57.02.896,CGTgamblingSpanTasks,2022.2.1,Win32,60.0060006,,,,,,,,,,,,,,,,,,,,,,,,,,,,,,,,,,,,,,,,,,,,,,,,,,,,,,,,,,,,,,,,,,,,,,,,,,,,,,,,,,"[8,9,7,6,3,5,4,1,2,2]",4,0,4,0,1,,,,,,,,,,,,,,,,,,,,,,,,,,,,,,,,,,,,,,,,,,,,,,,,
,,5f58d7941af44708223b94da,2022-09-08_13h57.02.896,CGTgamblingSpanTasks,2022.2.1,Win32,60.0060006,,,,,,,,,,,,,,,,,,,,,,,,,,,,,,,,,,,,,,,,,,,,,,,,,,,,,,,,,,,,,,,,,,,,,,,,,,,,,,,,,,"[8,9,7,6,3,5,4,1,2,2]",5,0,5,0,1,,,,,,,,,,,,,,,,,,,,,,,,,,,,,,,,,,,,,,,,,,,,,,,,
,,5f58d7941af44708223b94da,2022-09-08_13h57.02.896,CGTgamblingSpanTasks,2022.2.1,Win32,60.0060006,,,,,,,,,,,,,,,,,,,,,,,,,,,,,,,,,,,,,,,,,,,,,,,,,,,,,,,,,,,,,,,,,,,,,,,,,,,,,,,,,,"[8,9,7,6,3,5,4,1,2,2]",6,0,6,0,1,,,,,,,,,,,,,,,,,,,,,,,,,,,,,,,,,,,,,,,,,,,,,,,,
,,5f58d7941af44708223b94da,2022-09-08_13h57.02.896,CGTgamblingSpanTasks,2022.2.1,Win32,60.0060006,,,,,,,,,,,,,,,,,,,,,,,,,,,,,,,,,,,,,,,,,,,,,,,,,,,,,,,,,,,,,,,,,,,,,,,,,,,,,,,,,,"[8,9,7,6,3,5,4,1,2,2]",7,0,7,0,1,,,,,,,,,,,,,,,,,,,,,,,,,,,,,,,,,,,,,,,,,,,,,,,,
,,5f58d7941af44708223b94da,2022-09-08_13h57.02.896,CGTgamblingSpanTasks,2022.2.1,Win32,60.0060006,,,,,,,,,,,,,,,,,,,,,,,,,,,,,,,,,,,,,,,,,,,,,,,,,,,,,,,,,,,,,,,,,,,,,,,,,,,,,,,,,,"[8,9,7,6,3,5,4,1,2,2]",8,0,8,0,1,,,,,,,,,,,,,,,,,,,,,,,,,,,,,,,,,,,,,,,,,,,,,,,,
,,5f58d7941af44708223b94da,2022-09-08_13h57.02.896,CGTgamblingSpanTasks,2022.2.1,Win32,60.0060006,,,,,,,,,,,,,,,,,,,,,,,,,,,,,,,,,,,,,,,,,,,,,,,,,,,,,,,,,,,,,,,,,,,,,,,,,,,,,,,,,,"[8,9,7,6,3,5,4,1,2,2]",9,0,9,0,1,,,,,,,,,,,,,,,,,,,,,,,,,,,,,,,,,,,,,,,,,,,,,,,,
,,5f58d7941af44708223b94da,2022-09-08_13h57.02.896,CGTgamblingSpanTasks,2022.2.1,Win32,60.0060006,,,,,,,,,,,,,,,,,,,,,,,,,,,,,,,,,,,,,,,,,,,,,,,,,,,,,,,,,,,,,,,1,,,,,,,,,,,,,,,,,,,,,,,,,8976354122,0.127777778,-0.39537037,1,0,0,cont_button,0,12,12,12,1,13,,,,,,,,,,,,,,,,,,,,,,,,,,,,,,,,,,,
,,5f58d7941af44708223b94da,2022-09-08_13h57.02.896,CGTgamblingSpanTasks,2022.2.1,Win32,60.0060006,,,,,,,,,,,,,,,,,,,,,,,,,,,,,,,,,,,,,,,,,,,,,,,,,,,,,,,,,,,,,,,,,,,,,,,,,,,,,,,,,,"[7,8,2,4,1,9,3,5,6,6,4]",0,0,0,0,1,,,,,,,,,,,,,,,,,,,,,,,,,,,,,,,,,,,,,,,,,,,,,,,,
,,5f58d7941af44708223b94da,2022-09-08_13h57.02.896,CGTgamblingSpanTasks,2022.2.1,Win32,60.0060006,,,,,,,,,,,,,,,,,,,,,,,,,,,,,,,,,,,,,,,,,,,,,,,,,,,,,,,,,,,,,,,,,,,,,,,,,,,,,,,,,,"[7,8,2,4,1,9,3,5,6,6,4]",1,0,1,0,1,,,,,,,,,,,,,,,,,,,,,,,,,,,,,,,,,,,,,,,,,,,,,,,,
,,5f58d7941af44708223b94da,2022-09-08_13h57.02.896,CGTgamblingSpanTasks,2022.2.1,Win32,60.0060006,,,,,,,,,,,,,,,,,,,,,,,,,,,,,,,,,,,,,,,,,,,,,,,,,,,,,,,,,,,,,,,,,,,,,,,,,,,,,,,,,,"[7,8,2,4,1,9,3,5,6,6,4]",2,0,2,0,1,,,,,,,,,,,,,,,,,,,,,,,,,,,,,,,,,,,,,,,,,,,,,,,,
,,5f58d7941af44708223b94da,2022-09-08_13h57.02.896,CGTgamblingSpanTasks,2022.2.1,Win32,60.0060006,,,,,,,,,,,,,,,,,,,,,,,,,,,,,,,,,,,,,,,,,,,,,,,,,,,,,,,,,,,,,,,,,,,,,,,,,,,,,,,,,,"[7,8,2,4,1,9,3,5,6,6,4]",3,0,3,0,1,,,,,,,,,,,,,,,,,,,,,,,,,,,,,,,,,,,,,,,,,,,,,,,,
,,5f58d7941af44708223b94da,2022-09-08_13h57.02.896,CGTgamblingSpanTasks,2022.2.1,Win32,60.0060006,,,,,,,,,,,,,,,,,,,,,,,,,,,,,,,,,,,,,,,,,,,,,,,,,,,,,,,,,,,,,,,,,,,,,,,,,,,,,,,,,,"[7,8,2,4,1,9,3,5,6,6,4]",4,0,4,0,1,,,,,,,,,,,,,,,,,,,,,,,,,,,,,,,,,,,,,,,,,,,,,,,,
,,5f58d7941af44708223b94da,2022-09-08_13h57.02.896,CGTgamblingSpanTasks,2022.2.1,Win32,60.0060006,,,,,,,,,,,,,,,,,,,,,,,,,,,,,,,,,,,,,,,,,,,,,,,,,,,,,,,,,,,,,,,,,,,,,,,,,,,,,,,,,,"[7,8,2,4,1,9,3,5,6,6,4]",5,0,5,0,1,,,,,,,,,,,,,,,,,,,,,,,,,,,,,,,,,,,,,,,,,,,,,,,,
,,5f58d7941af44708223b94da,2022-09-08_13h57.02.896,CGTgamblingSpanTasks,2022.2.1,Win32,60.0060006,,,,,,,,,,,,,,,,,,,,,,,,,,,,,,,,,,,,,,,,,,,,,,,,,,,,,,,,,,,,,,,,,,,,,,,,,,,,,,,,,,"[7,8,2,4,1,9,3,5,6,6,4]",6,0,6,0,1,,,,,,,,,,,,,,,,,,,,,,,,,,,,,,,,,,,,,,,,,,,,,,,,
,,5f58d7941af44708223b94da,2022-09-08_13h57.02.896,CGTgamblingSpanTasks,2022.2.1,Win32,60.0060006,,,,,,,,,,,,,,,,,,,,,,,,,,,,,,,,,,,,,,,,,,,,,,,,,,,,,,,,,,,,,,,,,,,,,,,,,,,,,,,,,,"[7,8,2,4,1,9,3,5,6,6,4]",7,0,7,0,1,,,,,,,,,,,,,,,,,,,,,,,,,,,,,,,,,,,,,,,,,,,,,,,,
,,5f58d7941af44708223b94da,2022-09-08_13h57.02.896,CGTgamblingSpanTasks,2022.2.1,Win32,60.0060006,,,,,,,,,,,,,,,,,,,,,,,,,,,,,,,,,,,,,,,,,,,,,,,,,,,,,,,,,,,,,,,,,,,,,,,,,,,,,,,,,,"[7,8,2,4,1,9,3,5,6,6,4]",8,0,8,0,1,,,,,,,,,,,,,,,,,,,,,,,,,,,,,,,,,,,,,,,,,,,,,,,,
,,5f58d7941af44708223b94da,2022-09-08_13h57.02.896,CGTgamblingSpanTasks,2022.2.1,Win32,60.0060006,,,,,,,,,,,,,,,,,,,,,,,,,,,,,,,,,,,,,,,,,,,,,,,,,,,,,,,,,,,,,,,,,,,,,,,,,,,,,,,,,,"[7,8,2,4,1,9,3,5,6,6,4]",9,0,9,0,1,,,,,,,,,,,,,,,,,,,,,,,,,,,,,,,,,,,,,,,,,,,,,,,,
,,5f58d7941af44708223b94da,2022-09-08_13h57.02.896,CGTgamblingSpanTasks,2022.2.1,Win32,60.0060006,,,,,,,,,,,,,,,,,,,,,,,,,,,,,,,,,,,,,,,,,,,,,,,,,,,,,,,,,,,,,,,,,,,,,,,,,,,,,,,,,,"[7,8,2,4,1,9,3,5,6,6,4]",10,0,10,0,1,,,,,,,,,,,,,,,,,,,,,,,,,,,,,,,,,,,,,,,,,,,,,,,,
,,5f58d7941af44708223b94da,2022-09-08_13h57.02.896,CGTgamblingSpanTasks,2022.2.1,Win32,60.0060006,,,,,,,,,,,,,,,,,,,,,,,,,,,,,,,,,,,,,,,,,,,,,,,,,,,,,,,,,,,,,,,0,,,,,,,,,,,,,,,,,,,,,,,,,7824193566,0.130555556,-0.391666667,1,0,0,cont_button,0,13,13,13,1,14,,,,,,,,,,,,,,,,,,,,,,,,,,,,,,,,,,,
,,5f58d7941af44708223b94da,2022-09-08_13h57.02.896,CGTgamblingSpanTasks,2022.2.1,Win32,60.0060006,,,,,,,,,,,,,,,,,,,,,,,,,,,,,,,,,,,,,,,,,,,,,,,,,,,,,,,,,,,,,,,,,,,,,,,,,,,,,,,,,,,,,,,,,,,,,,,,,,,,,return,74.1628,,,,,,,,,,,,,,,,,,,,,,,,,,,,,,,,,
,,5f58d7941af44708223b94da,2022-09-08_13h57.02.896,CGTgamblingSpanTasks,2022.2.1,Win32,60.0060006,,,,,,,,,,,,,,,,,,,,,,,,,,,,,,,,,,,,,,,,,,,,,,,,,,,,,,,,,,,,,,,,,,,,,,,,,,,,,,,,,,,,,,,,,,,,,,,,,,,,,,,return,11.9327,,,,,,,,,,,,,,,,,,,,,,,,,,,,,,,
,,5f58d7941af44708223b94da,2022-09-08_13h57.02.896,CGTgamblingSpanTasks,2022.2.1,Win32,60.0060006,,,,,,,,,,,,,,,,,,,,,,,,,,,,,,,,,,,,,,,,,,,,,,,,,,,,,,,,,,,,,,,1,,,,,,,,,,,,3,342,24,2,42,,,,,,,,,,,,,,,,,,,,,,,,,,42,0.053703704,-0.412962963,1,0,0,cont_buttonPractice_2,0,0,0,0,1,,,,,,,,,,,,,,,,,,,
,,5f58d7941af44708223b94da,2022-09-08_13h57.02.896,CGTgamblingSpanTasks,2022.2.1,Win32,60.0060006,,,,,,,,,,,,,,,,,,,,,,,,,,,,,,,,,,,,,,,,,,,,,,,,,,,,,,,,,,,,,,,1,,,,,,,,,,,,3,937,73,2,37,,,,,,,,,,,,,,,,,,,,,,,,,,37,0.039814815,-0.372222222,1,0,0,cont_buttonPractice_2,0,1,1,1,1,,,,,,,,,,,,,,,,,,,
,,5f58d7941af44708223b94da,2022-09-08_13h57.02.896,CGTgamblingSpanTasks,2022.2.1,Win32,60.0060006,,,,,,,,,,,,,,,,,,,,,,,,,,,,,,,,,,,,,,,,,,,,,,,,,,,,,,,,,,,,,,,,,,,,,,,,,,,,,,,,,,,,,,,,,,,,,,,,,,,,,,,,,,,,,,,,,,,,,return,5.4235,,,,,,,,,,,,,,,,,
,,5f58d7941af44708223b94da,2022-09-08_13h57.02.896,CGTgamblingSpanTasks,2022.2.1,Win32,60.0060006,,,,,,,,,,,,,,,,,,,,,,,,,,,,,,,,,,,,,,,,,,,,,,,,,,,,,,,,,,,,,,,,,,,,,,,,,,,,,,,,,,"[6,2]",,,,,,,,,,,,,,,,,,,,,,,,,,,,,,,,,,,,,0,0,0,0,1,,,,,,,,,,,,
,,5f58d7941af44708223b94da,2022-09-08_13h57.02.896,CGTgamblingSpanTasks,2022.2.1,Win32,60.0060006,,,,,,,,,,,,,,,,,,,,,,,,,,,,,,,,,,,,,,,,,,,,,,,,,,,,,,,,,,,,,,,,,,,,,,,,,,,,,,,,,,"[6,2]",,,,,,,,,,,,,,,,,,,,,,,,,,,,,,,,,,,,,1,0,1,0,1,,,,,,,,,,,,
,,5f58d7941af44708223b94da,2022-09-08_13h57.02.896,CGTgamblingSpanTasks,2022.2.1,Win32,60.0060006,,,,,,,,,,,,,,,,,,,,,,,,,,,,,,,,,,,,,,,,,,,,,,,,,,,,,,,,,,,,,,,1,,,,,,,,,,,,,,,,,,,,,,,,,,,,,,,,,,,,,1,,,,,,,,,,,,,,,,,,,,,,,,26,0.061111111,-0.390740741,1,0,0,cont_buttonBS,0,0,0,0,1
,,5f58d7941af44708223b94da,2022-09-08_13h57.02.896,CGTgamblingSpanTasks,2022.2.1,Win32,60.0060006,,,,,,,,,,,,,,,,,,,,,,,,,,,,,,,,,,,,,,,,,,,,,,,,,,,,,,,,,,,,,,,,,,,,,,,,,,,,,,,,,,"[3,7,4]",,,,,,,,,,,,,,,,,,,,,,,,,,,,,,,,,,,,,0,0,0,0,1,,,,,,,,,,,,
,,5f58d7941af44708223b94da,2022-09-08_13h57.02.896,CGTgamblingSpanTasks,2022.2.1,Win32,60.0060006,,,,,,,,,,,,,,,,,,,,,,,,,,,,,,,,,,,,,,,,,,,,,,,,,,,,,,,,,,,,,,,,,,,,,,,,,,,,,,,,,,"[3,7,4]",,,,,,,,,,,,,,,,,,,,,,,,,,,,,,,,,,,,,1,0,1,0,1,,,,,,,,,,,,
,,5f58d7941af44708223b94da,2022-09-08_13h57.02.896,CGTgamblingSpanTasks,2022.2.1,Win32,60.0060006,,,,,,,,,,,,,,,,,,,,,,,,,,,,,,,,,,,,,,,,,,,,,,,,,,,,,,,,,,,,,,,,,,,,,,,,,,,,,,,,,,"[3,7,4]",,,,,,,,,,,,,,,,,,,,,,,,,,,,,,,,,,,,,2,0,2,0,1,,,,,,,,,,,,
,,5f58d7941af44708223b94da,2022-09-08_13h57.02.896,CGTgamblingSpanTasks,2022.2.1,Win32,60.0060006,,,,,,,,,,,,,,,,,,,,,,,,,,,,,,,,,,,,,,,,,,,,,,,,,,,,,,,,,,,,,,,1,,,,,,,,,,,,,,,,,,,,,,,,,,,,,,,,,,,,,2,,,,,,,,,,,,,,,,,,,,,,,,473,-0.028703704,-0.42037037,1,0,0,cont_buttonBS,0,1,1,1,1
,,5f58d7941af44708223b94da,2022-09-08_13h57.02.896,CGTgamblingSpanTasks,2022.2.1,Win32,60.0060006,,,,,,,,,,,,,,,,,,,,,,,,,,,,,,,,,,,,,,,,,,,,,,,,,,,,,,,,,,,,,,,,,,,,,,,,,,,,,,,,,,"[1,6,7,4]",,,,,,,,,,,,,,,,,,,,,,,,,,,,,,,,,,,,,0,0,0,0,1,,,,,,,,,,,,
,,5f58d7941af44708223b94da,2022-09-08_13h57.02.896,CGTgamblingSpanTasks,2022.2.1,Win32,60.0060006,,,,,,,,,,,,,,,,,,,,,,,,,,,,,,,,,,,,,,,,,,,,,,,,,,,,,,,,,,,,,,,,,,,,,,,,,,,,,,,,,,"[1,6,7,4]",,,,,,,,,,,,,,,,,,,,,,,,,,,,,,,,,,,,,1,0,1,0,1,,,,,,,,,,,,
,,5f58d7941af44708223b94da,2022-09-08_13h57.02.896,CGTgamblingSpanTasks,2022.2.1,Win32,60.0060006,,,,,,,,,,,,,,,,,,,,,,,,,,,,,,,,,,,,,,,,,,,,,,,,,,,,,,,,,,,,,,,,,,,,,,,,,,,,,,,,,,"[1,6,7,4]",,,,,,,,,,,,,,,,,,,,,,,,,,,,,,,,,,,,,2,0,2,0,1,,,,,,,,,,,,
,,5f58d7941af44708223b94da,2022-09-08_13h57.02.896,CGTgamblingSpanTasks,2022.2.1,Win32,60.0060006,,,,,,,,,,,,,,,,,,,,,,,,,,,,,,,,,,,,,,,,,,,,,,,,,,,,,,,,,,,,,,,,,,,,,,,,,,,,,,,,,,"[1,6,7,4]",,,,,,,,,,,,,,,,,,,,,,,,,,,,,,,,,,,,,3,0,3,0,1,,,,,,,,,,,,
,,5f58d7941af44708223b94da,2022-09-08_13h57.02.896,CGTgamblingSpanTasks,2022.2.1,Win32,60.0060006,,,,,,,,,,,,,,,,,,,,,,,,,,,,,,,,,,,,,,,,,,,,,,,,,,,,,,,,,,,,,,,0,,,,,,,,,,,,,,,,,,,,,,,,,,,,,,,,,,,,,3,,,,,,,,,,,,,,,,,,,,,,,,4763,-0.053703704,-0.412037037,1,0,0,cont_buttonBS,0,2,2,2,1
,,5f58d7941af44708223b94da,2022-09-08_13h57.02.896,CGTgamblingSpanTasks,2022.2.1,Win32,60.0060006,,,,,,,,,,,,,,,,,,,,,,,,,,,,,,,,,,,,,,,,,,,,,,,,,,,,,,,,,,,,,,,,,,,,,,,,,,,,,,,,,,"[2,3,5,4]",,,,,,,,,,,,,,,,,,,,,,,,,,,,,,,,,,,,,0,0,0,0,1,,,,,,,,,,,,
,,5f58d7941af44708223b94da,2022-09-08_13h57.02.896,CGTgamblingSpanTasks,2022.2.1,Win32,60.0060006,,,,,,,,,,,,,,,,,,,,,,,,,,,,,,,,,,,,,,,,,,,,,,,,,,,,,,,,,,,,,,,,,,,,,,,,,,,,,,,,,,"[2,3,5,4]",,,,,,,,,,,,,,,,,,,,,,,,,,,,,,,,,,,,,1,0,1,0,1,,,,,,,,,,,,
,,5f58d7941af44708223b94da,2022-09-08_13h57.02.896,CGTgamblingSpanTasks,2022.2.1,Win32,60.0060006,,,,,,,,,,,,,,,,,,,,,,,,,,,,,,,,,,,,,,,,,,,,,,,,,,,,,,,,,,,,,,,,,,,,,,,,,,,,,,,,,,"[2,3,5,4]",,,,,,,,,,,,,,,,,,,,,,,,,,,,,,,,,,,,,2,0,2,0,1,,,,,,,,,,,,
,,5f58d7941af44708223b94da,2022-09-08_13h57.02.896,CGTgamblingSpanTasks,2022.2.1,Win32,60.0060006,,,,,,,,,,,,,,,,,,,,,,,,,,,,,,,,,,,,,,,,,,,,,,,,,,,,,,,,,,,,,,,,,,,,,,,,,,,,,,,,,,"[2,3,5,4]",,,,,,,,,,,,,,,,,,,,,,,,,,,,,,,,,,,,,3,0,3,0,1,,,,,,,,,,,,
,,5f58d7941af44708223b94da,2022-09-08_13h57.02.896,CGTgamblingSpanTasks,2022.2.1,Win32,60.0060006,,,,,,,,,,,,,,,,,,,,,,,,,,,,,,,,,,,,,,,,,,,,,,,,,,,,,,,,,,,,,,,1,,,,,,,,,,,,,,,,,,,,,,,,,,,,,,,,,,,,,4,,,,,,,,,,,,,,,,,,,,,,,,4532,0.037962963,-0.371296296,1,0,0,cont_buttonBS,0,3,3,3,1
,,5f58d7941af44708223b94da,2022-09-08_13h57.02.896,CGTgamblingSpanTasks,2022.2.1,Win32,60.0060006,,,,,,,,,,,,,,,,,,,,,,,,,,,,,,,,,,,,,,,,,,,,,,,,,,,,,,,,,,,,,,,,,,,,,,,,,,,,,,,,,,"[5,2,6,8,3]",,,,,,,,,,,,,,,,,,,,,,,,,,,,,,,,,,,,,0,0,0,0,1,,,,,,,,,,,,
,,5f58d7941af44708223b94da,2022-09-08_13h57.02.896,CGTgamblingSpanTasks,2022.2.1,Win32,60.0060006,,,,,,,,,,,,,,,,,,,,,,,,,,,,,,,,,,,,,,,,,,,,,,,,,,,,,,,,,,,,,,,,,,,,,,,,,,,,,,,,,,"[5,2,6,8,3]",,,,,,,,,,,,,,,,,,,,,,,,,,,,,,,,,,,,,1,0,1,0,1,,,,,,,,,,,,
,,5f58d7941af44708223b94da,2022-09-08_13h57.02.896,CGTgamblingSpanTasks,2022.2.1,Win32,60.0060006,,,,,,,,,,,,,,,,,,,,,,,,,,,,,,,,,,,,,,,,,,,,,,,,,,,,,,,,,,,,,,,,,,,,,,,,,,,,,,,,,,"[5,2,6,8,3]",,,,,,,,,,,,,,,,,,,,,,,,,,,,,,,,,,,,,2,0,2,0,1,,,,,,,,,,,,
,,5f58d7941af44708223b94da,2022-09-08_13h57.02.896,CGTgamblingSpanTasks,2022.2.1,Win32,60.0060006,,,,,,,,,,,,,,,,,,,,,,,,,,,,,,,,,,,,,,,,,,,,,,,,,,,,,,,,,,,,,,,,,,,,,,,,,,,,,,,,,,"[5,2,6,8,3]",,,,,,,,,,,,,,,,,,,,,,,,,,,,,,,,,,,,,3,0,3,0,1,,,,,,,,,,,,
,,5f58d7941af44708223b94da,2022-09-08_13h57.02.896,CGTgamblingSpanTasks,2022.2.1,Win32,60.0060006,,,,,,,,,,,,,,,,,,,,,,,,,,,,,,,,,,,,,,,,,,,,,,,,,,,,,,,,,,,,,,,,,,,,,,,,,,,,,,,,,,"[5,2,6,8,3]",,,,,,,,,,,,,,,,,,,,,,,,,,,,,,,,,,,,,4,0,4,0,1,,,,,,,,,,,,
,,5f58d7941af44708223b94da,2022-09-08_13h57.02.896,CGTgamblingSpanTasks,2022.2.1,Win32,60.0060006,,,,,,,,,,,,,,,,,,,,,,,,,,,,,,,,,,,,,,,,,,,,,,,,,,,,,,,,,,,,,,,1,,,,,,,,,,,,,,,,,,,,,,,,,,,,,,,,,,,,,5,,,,,,,,,,,,,,,,,,,,,,,,38625,-0.072222222,-0.405555556,1,0,0,cont_buttonBS,0,4,4,4,1
,,5f58d7941af44708223b94da,2022-09-08_13h57.02.896,CGTgamblingSpanTasks,2022.2.1,Win32,60.0060006,,,,,,,,,,,,,,,,,,,,,,,,,,,,,,,,,,,,,,,,,,,,,,,,,,,,,,,,,,,,,,,,,,,,,,,,,,,,,,,,,,"[8,6,9,4,7,1]",,,,,,,,,,,,,,,,,,,,,,,,,,,,,,,,,,,,,0,0,0,0,1,,,,,,,,,,,,
,,5f58d7941af44708223b94da,2022-09-08_13h57.02.896,CGTgamblingSpanTasks,2022.2.1,Win32,60.0060006,,,,,,,,,,,,,,,,,,,,,,,,,,,,,,,,,,,,,,,,,,,,,,,,,,,,,,,,,,,,,,,,,,,,,,,,,,,,,,,,,,"[8,6,9,4,7,1]",,,,,,,,,,,,,,,,,,,,,,,,,,,,,,,,,,,,,1,0,1,0,1,,,,,,,,,,,,
,,5f58d7941af44708223b94da,2022-09-08_13h57.02.896,CGTgamblingSpanTasks,2022.2.1,Win32,60.0060006,,,,,,,,,,,,,,,,,,,,,,,,,,,,,,,,,,,,,,,,,,,,,,,,,,,,,,,,,,,,,,,,,,,,,,,,,,,,,,,,,,"[8,6,9,4,7,1]",,,,,,,,,,,,,,,,,,,,,,,,,,,,,,,,,,,,,2,0,2,0,1,,,,,,,,,,,,
,,5f58d7941af44708223b94da,2022-09-08_13h57.02.896,CGTgamblingSpanTasks,2022.2.1,Win32,60.0060006,,,,,,,,,,,,,,,,,,,,,,,,,,,,,,,,,,,,,,,,,,,,,,,,,,,,,,,,,,,,,,,,,,,,,,,,,,,,,,,,,,"[8,6,9,4,7,1]",,,,,,,,,,,,,,,,,,,,,,,,,,,,,,,,,,,,,3,0,3,0,1,,,,,,,,,,,,
,,5f58d7941af44708223b94da,2022-09-08_13h57.02.896,CGTgamblingSpanTasks,2022.2.1,Win32,60.0060006,,,,,,,,,,,,,,,,,,,,,,,,,,,,,,,,,,,,,,,,,,,,,,,,,,,,,,,,,,,,,,,,,,,,,,,,,,,,,,,,,,"[8,6,9,4,7,1]",,,,,,,,,,,,,,,,,,,,,,,,,,,,,,,,,,,,,4,0,4,0,1,,,,,,,,,,,,
,,5f58d7941af44708223b94da,2022-09-08_13h57.02.896,CGTgamblingSpanTasks,2022.2.1,Win32,60.0060006,,,,,,,,,,,,,,,,,,,,,,,,,,,,,,,,,,,,,,,,,,,,,,,,,,,,,,,,,,,,,,,,,,,,,,,,,,,,,,,,,,"[8,6,9,4,7,1]",,,,,,,,,,,,,,,,,,,,,,,,,,,,,,,,,,,,,5,0,5,0,1,,,,,,,,,,,,
,,5f58d7941af44708223b94da,2022-09-08_13h57.02.896,CGTgamblingSpanTasks,2022.2.1,Win32,60.0060006,,,,,,,,,,,,,,,,,,,,,,,,,,,,,,,,,,,,,,,,,,,,,,,,,,,,,,,,,,,,,,,0,,,,,,,,,,,,,,,,,,,,,,,,,,,,,,,,,,,,,6,,,,,,,,,,,,,,,,,,,,,,,,17494,-0.019444444,-0.403703704,1,0,0,cont_buttonBS,0,5,5,5,1
,,5f58d7941af44708223b94da,2022-09-08_13h57.02.896,CGTgamblingSpanTasks,2022.2.1,Win32,60.0060006,,,,,,,,,,,,,,,,,,,,,,,,,,,,,,,,,,,,,,,,,,,,,,,,,,,,,,,,,,,,,,,,,,,,,,,,,,,,,,,,,,"[7,6,4,2,1,3]",,,,,,,,,,,,,,,,,,,,,,,,,,,,,,,,,,,,,0,0,0,0,1,,,,,,,,,,,,
,,5f58d7941af44708223b94da,2022-09-08_13h57.02.896,CGTgamblingSpanTasks,2022.2.1,Win32,60.0060006,,,,,,,,,,,,,,,,,,,,,,,,,,,,,,,,,,,,,,,,,,,,,,,,,,,,,,,,,,,,,,,,,,,,,,,,,,,,,,,,,,"[7,6,4,2,1,3]",,,,,,,,,,,,,,,,,,,,,,,,,,,,,,,,,,,,,1,0,1,0,1,,,,,,,,,,,,
,,5f58d7941af44708223b94da,2022-09-08_13h57.02.896,CGTgamblingSpanTasks,2022.2.1,Win32,60.0060006,,,,,,,,,,,,,,,,,,,,,,,,,,,,,,,,,,,,,,,,,,,,,,,,,,,,,,,,,,,,,,,,,,,,,,,,,,,,,,,,,,"[7,6,4,2,1,3]",,,,,,,,,,,,,,,,,,,,,,,,,,,,,,,,,,,,,2,0,2,0,1,,,,,,,,,,,,
,,5f58d7941af44708223b94da,2022-09-08_13h57.02.896,CGTgamblingSpanTasks,2022.2.1,Win32,60.0060006,,,,,,,,,,,,,,,,,,,,,,,,,,,,,,,,,,,,,,,,,,,,,,,,,,,,,,,,,,,,,,,,,,,,,,,,,,,,,,,,,,"[7,6,4,2,1,3]",,,,,,,,,,,,,,,,,,,,,,,,,,,,,,,,,,,,,3,0,3,0,1,,,,,,,,,,,,
,,5f58d7941af44708223b94da,2022-09-08_13h57.02.896,CGTgamblingSpanTasks,2022.2.1,Win32,60.0060006,,,,,,,,,,,,,,,,,,,,,,,,,,,,,,,,,,,,,,,,,,,,,,,,,,,,,,,,,,,,,,,,,,,,,,,,,,,,,,,,,,"[7,6,4,2,1,3]",,,,,,,,,,,,,,,,,,,,,,,,,,,,,,,,,,,,,4,0,4,0,1,,,,,,,,,,,,
,,5f58d7941af44708223b94da,2022-09-08_13h57.02.896,CGTgamblingSpanTasks,2022.2.1,Win32,60.0060006,,,,,,,,,,,,,,,,,,,,,,,,,,,,,,,,,,,,,,,,,,,,,,,,,,,,,,,,,,,,,,,,,,,,,,,,,,,,,,,,,,"[7,6,4,2,1,3]",,,,,,,,,,,,,,,,,,,,,,,,,,,,,,,,,,,,,5,0,5,0,1,,,,,,,,,,,,
,,5f58d7941af44708223b94da,2022-09-08_13h57.02.896,CGTgamblingSpanTasks,2022.2.1,Win32,60.0060006,,,,,,,,,,,,,,,,,,,,,,,,,,,,,,,,,,,,,,,,,,,,,,,,,,,,,,,,,,,,,,,1,,,,,,,,,,,,,,,,,,,,,,,,,,,,,,,,,,,,,7,,,,,,,,,,,,,,,,,,,,,,,,312467,0.047222222,-0.396296296,1,0,0,cont_buttonBS,0,6,6,6,1
,,5f58d7941af44708223b94da,2022-09-08_13h57.02.896,CGTgamblingSpanTasks,2022.2.1,Win32,60.0060006,,,,,,,,,,,,,,,,,,,,,,,,,,,,,,,,,,,,,,,,,,,,,,,,,,,,,,,,,,,,,,,,,,,,,,,,,,,,,,,,,,"[6,5,2,1,3,7,8]",,,,,,,,,,,,,,,,,,,,,,,,,,,,,,,,,,,,,0,0,0,0,1,,,,,,,,,,,,
,,5f58d7941af44708223b94da,2022-09-08_13h57.02.896,CGTgamblingSpanTasks,2022.2.1,Win32,60.0060006,,,,,,,,,,,,,,,,,,,,,,,,,,,,,,,,,,,,,,,,,,,,,,,,,,,,,,,,,,,,,,,,,,,,,,,,,,,,,,,,,,"[6,5,2,1,3,7,8]",,,,,,,,,,,,,,,,,,,,,,,,,,,,,,,,,,,,,1,0,1,0,1,,,,,,,,,,,,
,,5f58d7941af44708223b94da,2022-09-08_13h57.02.896,CGTgamblingSpanTasks,2022.2.1,Win32,60.0060006,,,,,,,,,,,,,,,,,,,,,,,,,,,,,,,,,,,,,,,,,,,,,,,,,,,,,,,,,,,,,,,,,,,,,,,,,,,,,,,,,,"[6,5,2,1,3,7,8]",,,,,,,,,,,,,,,,,,,,,,,,,,,,,,,,,,,,,2,0,2,0,1,,,,,,,,,,,,
,,5f58d7941af44708223b94da,2022-09-08_13h57.02.896,CGTgamblingSpanTasks,2022.2.1,Win32,60.0060006,,,,,,,,,,,,,,,,,,,,,,,,,,,,,,,,,,,,,,,,,,,,,,,,,,,,,,,,,,,,,,,,,,,,,,,,,,,,,,,,,,"[6,5,2,1,3,7,8]",,,,,,,,,,,,,,,,,,,,,,,,,,,,,,,,,,,,,3,0,3,0,1,,,,,,,,,,,,
,,5f58d7941af44708223b94da,2022-09-08_13h57.02.896,CGTgamblingSpanTasks,2022.2.1,Win32,60.0060006,,,,,,,,,,,,,,,,,,,,,,,,,,,,,,,,,,,,,,,,,,,,,,,,,,,,,,,,,,,,,,,,,,,,,,,,,,,,,,,,,,"[6,5,2,1,3,7,8]",,,,,,,,,,,,,,,,,,,,,,,,,,,,,,,,,,,,,4,0,4,0,1,,,,,,,,,,,,
,,5f58d7941af44708223b94da,2022-09-08_13h57.02.896,CGTgamblingSpanTasks,2022.2.1,Win32,60.0060006,,,,,,,,,,,,,,,,,,,,,,,,,,,,,,,,,,,,,,,,,,,,,,,,,,,,,,,,,,,,,,,,,,,,,,,,,,,,,,,,,,"[6,5,2,1,3,7,8]",,,,,,,,,,,,,,,,,,,,,,,,,,,,,,,,,,,,,5,0,5,0,1,,,,,,,,,,,,
,,5f58d7941af44708223b94da,2022-09-08_13h57.02.896,CGTgamblingSpanTasks,2022.2.1,Win32,60.0060006,,,,,,,,,,,,,,,,,,,,,,,,,,,,,,,,,,,,,,,,,,,,,,,,,,,,,,,,,,,,,,,,,,,,,,,,,,,,,,,,,,"[6,5,2,1,3,7,8]",,,,,,,,,,,,,,,,,,,,,,,,,,,,,,,,,,,,,6,0,6,0,1,,,,,,,,,,,,
,,5f58d7941af44708223b94da,2022-09-08_13h57.02.896,CGTgamblingSpanTasks,2022.2.1,Win32,60.0060006,,,,,,,,,,,,,,,,,,,,,,,,,,,,,,,,,,,,,,,,,,,,,,,,,,,,,,,,,,,,,,,1,,,,,,,,,,,,,,,,,,,,,,,,,,,,,,,,,,,,,8,,,,,,,,,,,,,,,,,,,,,,,,8731256,0.037962963,-0.400925926,1,0,0,cont_buttonBS,0,7,7,7,1
,,5f58d7941af44708223b94da,2022-09-08_13h57.02.896,CGTgamblingSpanTasks,2022.2.1,Win32,60.0060006,,,,,,,,,,,,,,,,,,,,,,,,,,,,,,,,,,,,,,,,,,,,,,,,,,,,,,,,,,,,,,,,,,,,,,,,,,,,,,,,,,"[9,5,8,7,1,4,6,3]",,,,,,,,,,,,,,,,,,,,,,,,,,,,,,,,,,,,,0,0,0,0,1,,,,,,,,,,,,
,,5f58d7941af44708223b94da,2022-09-08_13h57.02.896,CGTgamblingSpanTasks,2022.2.1,Win32,60.0060006,,,,,,,,,,,,,,,,,,,,,,,,,,,,,,,,,,,,,,,,,,,,,,,,,,,,,,,,,,,,,,,,,,,,,,,,,,,,,,,,,,"[9,5,8,7,1,4,6,3]",,,,,,,,,,,,,,,,,,,,,,,,,,,,,,,,,,,,,1,0,1,0,1,,,,,,,,,,,,
,,5f58d7941af44708223b94da,2022-09-08_13h57.02.896,CGTgamblingSpanTasks,2022.2.1,Win32,60.0060006,,,,,,,,,,,,,,,,,,,,,,,,,,,,,,,,,,,,,,,,,,,,,,,,,,,,,,,,,,,,,,,,,,,,,,,,,,,,,,,,,,"[9,5,8,7,1,4,6,3]",,,,,,,,,,,,,,,,,,,,,,,,,,,,,,,,,,,,,2,0,2,0,1,,,,,,,,,,,,
