initITIstatic,initITIdynamic,participant,date,expName,psychopyVersion,OS,frameRate,inst1.keys,inst1.rt,startPracResp.keys,startPracResp.rt,choice1.keys,choice1.rt,outcome,extraITI,trials.thisRepN,trials.thisTrialN,trials.thisN,trials.thisIndex,trials.ran,riskyGain,riskyLoss,alternative,isi,iti,loc,postPractResp.keys,postPractResp.rt,realloc,realChoice.keys,realChoice.rt,outcomes,choices,actualITI,init ITI,staticRDM.thisRepN,staticRDM.thisTrialN,staticRDM.thisN,staticRDM.thisIndex,staticRDM.ran,riskyoption1,riskyoption2,safeoption,ischecktrial,dynamicChoiceSetName,dynamicChoiceSetPath,bestRho,bestMu,trials_2.thisRepN,trials_2.thisTrialN,trials_2.thisN,trials_2.thisIndex,trials_2.ran,key_resp.keys,key_resp.rt,dynamicRDM.thisRepN,dynamicRDM.thisTrialN,dynamicRDM.thisN,dynamicRDM.thisIndex,dynamicRDM.ran,choiceP,easy0difficult1,stopBreak.keys,stopBreak.rt,movealong.keys,movealong.rt,startPractice.keys,startPractice.rt,textboxPractice.text,correct,mousePractice.x,mousePractice.y,mousePractice.leftButton,mousePractice.midButton,mousePractice.rightButton,mousePractice.clicked_name,trialFSPractice.thisRepN,trialFSPractice.thisTrialN,trialFSPractice.thisN,trialFSPractice.thisIndex,trialFSPractice.ran,digitSpanForward,digits,digitsReverse,digitSpanReverse,digitsReverseCorrAnswer,startFSreal.keys,startFSreal.rt,digitsForTrial,digitLoop.thisRepN,digitLoop.thisTrialN,digitLoop.thisN,digitLoop.thisIndex,digitLoop.ran,textbox.text,mouse_3.x,mouse_3.y,mouse_3.leftButton,mouse_3.midButton,mouse_3.rightButton,mouse_3.clicked_name,trialsFS.thisRepN,trialsFS.thisTrialN,trialsFS.thisN,trialsFS.thisIndex,trialsFS.ran,trialNumber,moveToBS.keys,moveToBS.rt,startBSprac.keys,startBSprac.rt,textboxPractice_2.text,mousePractice_2.x,mousePractice_2.y,mousePractice_2.leftButton,mousePractice_2.midButton,mousePractice_2.rightButton,mousePractice_2.clicked_name,trialsPracticeBS.thisRepN,trialsPracticeBS.thisTrialN,trialsPracticeBS.thisN,trialsPracticeBS.thisIndex,trialsPracticeBS.ran,startBSreal.keys,startBSreal.rt,digitLoopBS.thisRepN,digitLoopBS.thisTrialN,digitLoopBS.thisN,digitLoopBS.thisIndex,digitLoopBS.ran,textboxBS.text,mouseBS.x,mouseBS.y,mouseBS.leftButton,mouseBS.midButton,mouseBS.rightButton,mouseBS.clicked_name,trialsBS.thisRepN,trialsBS.thisTrialN,trialsBS.thisN,trialsBS.thisIndex,trialsBS.ran
"[1,1,1,1.5,1,1.5,1.5,1,1.5,1.5,1.5,1,1,1.5,1.5,1.5,1.5,1.5,1,1,1,1.5,1.5,1,1.5,1,1,1,1.5,1.5,1,1.5,1.5,1,1.5,1,1,1.5,1.5,1.5,1.5,1.5,1,1.5,1,1,1,1,1,1]","[1.5,1.5,1,1,1,1,1,1.5,1.5,1,1,1,1.5,1,1,1.5,1.5,1,1.5,1.5,1,1,1.5,1.5,1.5,1,1.5,1,1.5,1,1.5,1,1,1.5,1,1,1,1.5,1.5,1,1.5,1,1.5,1,1,1,1,1,1.5,1.5,1.5,1,1,1.5,1.5,1.5,1,1,1,1,1.5,1,1,1.5,1.5,1.5,1.5,1.5,1.5,1.5,1.5,1.5,1,1,1,1.5,1,1.5,1.5,1.5,1,1.5,1,1,1,1,1.5,1,1.5,1,1.5,1,1.5,1,1,1.5,1,1.5,1,1.5,1,1.5,1.5,1.5,1.5,1,1,1.5,1.5,1,1.5,1.5,1.5,1,1.5,1,1.5,1,1.5,1]",5e0e16d70db892559eb23487,2022-08-30_10h19.03.766,CGTgamblingSpanTasks,2022.2.1,MacIntel,59.99520038,,,,,,,,,,,,,,,,,,,,,,,,,,,,,,,,,,,,,,,,,,,,,,,,,,,,,,,,,,,,,,,,,,,,,,,,,,,,,,,,,,,,,,,,,,,,,,,,,,,,,,,,,,,,,,,,,,,,,,,,,,,,,,,,,,,,,,,
,,5e0e16d70db892559eb23487,2022-08-30_10h19.03.766,CGTgamblingSpanTasks,2022.2.1,MacIntel,59.99520038,return,85.139,,,,,,,,,,,,,,,,,,,,,,,,,,,,,,,,,,,,,,,,,,,,,,,,,,,,,,,,,,,,,,,,,,,,,,,,,,,,,,,,,,,,,,,,,,,,,,,,,,,,,,,,,,,,,,,,,,,,,,,,,,,,,,,,,,,,,
,,5e0e16d70db892559eb23487,2022-08-30_10h19.03.766,CGTgamblingSpanTasks,2022.2.1,MacIntel,59.99520038,,,v,0.1353,,,,,,,,,,,,,,,,,,,,,,,,,,,,,,,,,,,,,,,,,,,,,,,,,,,,,,,,,,,,,,,,,,,,,,,,,,,,,,,,,,,,,,,,,,,,,,,,,,,,,,,,,,,,,,,,,,,,,,,,,,,,,,,,,,,
,,5e0e16d70db892559eb23487,2022-08-30_10h19.03.766,CGTgamblingSpanTasks,2022.2.1,MacIntel,59.99520038,,,,,v,2.1988,18.23,1.8012,0,0,0,0,1,18.23,0,9.45,2,1,1,,,,,,,,,,,,,,,,,,,,,,,,,,,,,,,,,,,,,,,,,,,,,,,,,,,,,,,,,,,,,,,,,,,,,,,,,,,,,,,,,,,,,,,,,,,,,,,,,,,,,,,,,,,,,,,,,,,,
,,5e0e16d70db892559eb23487,2022-08-30_10h19.03.766,CGTgamblingSpanTasks,2022.2.1,MacIntel,59.99520038,,,,,n,0.9865,35.16,3.0135,0,1,1,1,1,53.27,0,35.16,1,1.5,1,,,,,,,,,,,,,,,,,,,,,,,,,,,,,,,,,,,,,,,,,,,,,,,,,,,,,,,,,,,,,,,,,,,,,,,,,,,,,,,,,,,,,,,,,,,,,,,,,,,,,,,,,,,,,,,,,,,,
,,5e0e16d70db892559eb23487,2022-08-30_10h19.03.766,CGTgamblingSpanTasks,2022.2.1,MacIntel,59.99520038,,,,,n,0.5749,0,3.4251,0,2,2,2,1,8.27,0,1.15,1,1.5,2,,,,,,,,,,,,,,,,,,,,,,,,,,,,,,,,,,,,,,,,,,,,,,,,,,,,,,,,,,,,,,,,,,,,,,,,,,,,,,,,,,,,,,,,,,,,,,,,,,,,,,,,,,,,,,,,,,,,
,,5e0e16d70db892559eb23487,2022-08-30_10h19.03.766,CGTgamblingSpanTasks,2022.2.1,MacIntel,59.99520038,,,,,n,0.9191,40.41,3.0809,0,3,3,3,1,45.88,0,40.41,3,1,1,,,,,,,,,,,,,,,,,,,,,,,,,,,,,,,,,,,,,,,,,,,,,,,,,,,,,,,,,,,,,,,,,,,,,,,,,,,,,,,,,,,,,,,,,,,,,,,,,,,,,,,,,,,,,,,,,,,,
,,5e0e16d70db892559eb23487,2022-08-30_10h19.03.766,CGTgamblingSpanTasks,2022.2.1,MacIntel,59.99520038,,,,,v,0.7182,11.96,3.2818,0,4,4,4,1,21.56,0,11.96,1,1.5,2,,,,,,,,,,,,,,,,,,,,,,,,,,,,,,,,,,,,,,,,,,,,,,,,,,,,,,,,,,,,,,,,,,,,,,,,,,,,,,,,,,,,,,,,,,,,,,,,,,,,,,,,,,,,,,,,,,,,
,,5e0e16d70db892559eb23487,2022-08-30_10h19.03.766,CGTgamblingSpanTasks,2022.2.1,MacIntel,59.99520038,,,,,,,,,,,,,,,,,,,,n,0.8431,,,,,,,,,,,,,,,,,,,,,,,,,,,,,,,,,,,,,,,,,,,,,,,,,,,,,,,,,,,,,,,,,,,,,,,,,,,,,,,,,,,,,,,,,,,,,,,,,,,,,,,,,,,,,,,,,,
,,5e0e16d70db892559eb23487,2022-08-30_10h19.03.766,CGTgamblingSpanTasks,2022.2.1,MacIntel,59.99520038,,,,,,,,1.3847,,,,,,,,,,,,,,1,n,2.6153,3.13,0,2.3847,1,0,0,0,2,1,17.73,0,3.13,0,,,,,,,,,,,,,,,,,,,,,,,,,,,,,,,,,,,,,,,,,,,,,,,,,,,,,,,,,,,,,,,,,,,,,,,,,,,,,,,,,,,,,,,,,,,,,,,,,,
,,5e0e16d70db892559eb23487,2022-08-30_10h19.03.766,CGTgamblingSpanTasks,2022.2.1,MacIntel,59.99520038,,,,,,,,2.7418,,,,,,,,,,,,,,1,n,1.2582,1.99,0,3.7418,1,0,1,1,0,1,20.03,0,1.99,0,,,,,,,,,,,,,,,,,,,,,,,,,,,,,,,,,,,,,,,,,,,,,,,,,,,,,,,,,,,,,,,,,,,,,,,,,,,,,,,,,,,,,,,,,,,,,,,,,,
,,5e0e16d70db892559eb23487,2022-08-30_10h19.03.766,CGTgamblingSpanTasks,2022.2.1,MacIntel,59.99520038,,,,,,,,3.113,,,,,,,,,,,,,,2,v,0.887,5.4,0,4.113,1,0,2,2,3,1,25.2,0,5.4,0,,,,,,,,,,,,,,,,,,,,,,,,,,,,,,,,,,,,,,,,,,,,,,,,,,,,,,,,,,,,,,,,,,,,,,,,,,,,,,,,,,,,,,,,,,,,,,,,,,
,,5e0e16d70db892559eb23487,2022-08-30_10h19.03.766,CGTgamblingSpanTasks,2022.2.1,MacIntel,59.99520038,,,,,,,,3.1984,,,,,,,,,,,,,,2,n,0.8016,28.21,1,4.6984,1.5,0,3,3,1,1,28.21,0,3.89,0,,,,,,,,,,,,,,,,,,,,,,,,,,,,,,,,,,,,,,,,,,,,,,,,,,,,,,,,,,,,,,,,,,,,,,,,,,,,,,,,,,,,,,,,,,,,,,,,,,
,,5e0e16d70db892559eb23487,2022-08-30_10h19.03.766,CGTgamblingSpanTasks,2022.2.1,MacIntel,59.99520038,,,,,,,,,,,,,,,,,,,,,,,,,,,,,,,,,,,,,,bespoke_choiceset_rhoInd001_muInd023.csv,bespoke_choicesets/bespoke_choiceset_rhoInd001_muInd023.csv,1,23,0,0,0,0,1,,,,,,,,,,,,,,,,,,,,,,,,,,,,,,,,,,,,,,,,,,,,,,,,,,,,,,,,,,,,,,,,,,,,,,,,,,,,,,,,,,,,,,,,,
,,5e0e16d70db892559eb23487,2022-08-30_10h19.03.766,CGTgamblingSpanTasks,2022.2.1,MacIntel,59.99520038,,,,,,,,,,,,,,,,,,,,,,,,,,,,,,,,,,,,,,,,,,,,,,,,,,,,,,,,,,,,,,,,,,,,,,,,,,,,,,,,,,,,,,,,,,,,,,,,,,,,,,,,,,,,,,,,,,,,,,,,,,,,,,,,,,,,,,,
,,5e0e16d70db892559eb23487,2022-08-30_10h19.03.766,CGTgamblingSpanTasks,2022.2.1,MacIntel,59.99520038,,,,,,,,,,,,,,,,,,,,,,,,,,,,,,,,,,,,,,,,,,,,,,,n,0.7704,,,,,,,,,,,,,,,,,,,,,,,,,,,,,,,,,,,,,,,,,,,,,,,,,,,,,,,,,,,,,,,,,,,,,,,,,,,,,,,,,,,,,,,
,,5e0e16d70db892559eb23487,2022-08-30_10h19.03.766,CGTgamblingSpanTasks,2022.2.1,MacIntel,59.99520038,,,,,,,,3.004,,,,,,,,,,,,,,1,v,0.996,0,1,4.504,1.5,,,,,,20.97851654,0,11.39288827,,,,,,,,,,,,,0,0,0,2,1,0.088791079,0,,,,,,,,,,,,,,,,,,,,,,,,,,,,,,,,,,,,,,,,,,,,,,,,,,,,,,,,,,,,,,,,,,,,,,,,,,,,,,,,
,,5e0e16d70db892559eb23487,2022-08-30_10h19.03.766,CGTgamblingSpanTasks,2022.2.1,MacIntel,59.99520038,,,,,,,,3.0283,,,,,,,,,,,,,,1,n,0.9717,2.208275162,0,4.5283,1.5,,,,,,21.03408097,0,2.208275162,,,,,,,,,,,,,0,1,1,0,1,0.485031246,1,,,,,,,,,,,,,,,,,,,,,,,,,,,,,,,,,,,,,,,,,,,,,,,,,,,,,,,,,,,,,,,,,,,,,,,,,,,,,,,,
,,5e0e16d70db892559eb23487,2022-08-30_10h19.03.766,CGTgamblingSpanTasks,2022.2.1,MacIntel,59.99520038,,,,,,,,2.4392,,,,,,,,,,,,,,1,n,1.5608,0.072474078,0,3.4392,1,,,,,,21.39646914,0,0.072474078,,,,,,,,,,,,,0,2,2,3,1,0.902848133,0,,,,,,,,,,,,,,,,,,,,,,,,,,,,,,,,,,,,,,,,,,,,,,,,,,,,,,,,,,,,,,,,,,,,,,,,,,,,,,,,
,,5e0e16d70db892559eb23487,2022-08-30_10h19.03.766,CGTgamblingSpanTasks,2022.2.1,MacIntel,59.99520038,,,,,,,,1.2484,,,,,,,,,,,,,,2,v,2.7516,10.31611309,0,2.2484,1,,,,,,19.30622782,0,10.31611309,,,,,,,,,,,,,0,3,3,1,1,0.091105656,0,,,,,,,,,,,,,,,,,,,,,,,,,,,,,,,,,,,,,,,,,,,,,,,,,,,,,,,,,,,,,,,,,,,,,,,,,,,,,,,,
,,5e0e16d70db892559eb23487,2022-08-30_10h19.03.766,CGTgamblingSpanTasks,2022.2.1,MacIntel,59.99520038,,,,,,,,,,,,,,,,,,,,,,,,,,,,,,,,,,,,,,,,,,,,,,,,,,,,,,,,return,1.9303,,,,,,,,,,,,,,,,,,,,,,,,,,,,,,,,,,,,,,,,,,,,,,,,,,,,,,,,,,,,,,,,,,,,,,,,,,,,,,
,,5e0e16d70db892559eb23487,2022-08-30_10h19.03.766,CGTgamblingSpanTasks,2022.2.1,MacIntel,59.99520038,,,,,,,,,,,,,,,,,,,,,,,,,,,,,,,,,,,,,,,,,,,,,,,,,,,,,,,,,,return,0.8108,,,,,,,,,,,,,,,,,,,,,,,,,,,,,,,,,,,,,,,,,,,,,,,,,,,,,,,,,,,,,,,,,,,,,,,,,,,,
,,5e0e16d70db892559eb23487,2022-08-30_10h19.03.766,CGTgamblingSpanTasks,2022.2.1,MacIntel,59.99520038,,,,,,,,,,,,,,,,,,,,,,,,,,,,,,,,,,,,,,,,,,,,,,,,,,,,,,,,,,,,return,0.6207,,,,,,,,,,,,,,,,,,,,,,,,,,,,,,,,,,,,,,,,,,,,,,,,,,,,,,,,,,,,,,,,,,,,,,,,,,
,,5e0e16d70db892559eb23487,2022-08-30_10h19.03.766,CGTgamblingSpanTasks,2022.2.1,MacIntel,59.99520038,,,,,,,,,,,,,,,,,,,,,,,,,,,,,,,,,,,,,,,,,,,,,,,,,,,,,,,,,,,,,,32,0,-0.008421986,-0.375,1,0,0,cont_buttonPractice,0,0,0,0,1,3,342,24,2,42,,,,,,,,,,,,,,,,,,,,,,,,,,,,,,,,,,,,,,,,,,,,,,,,,,,,,,,,
,,5e0e16d70db892559eb23487,2022-08-30_10h19.03.766,CGTgamblingSpanTasks,2022.2.1,MacIntel,59.99520038,,,,,,,,,,,,,,,,,,,,,,,,,,,,,,,,,,,,,,,,,,,,,,,,,,,,,,,,,,,,,,,0,-0.008421986,-0.392730496,1,0,0,cont_buttonPractice,0,1,1,1,1,3,937,73,2,37,,,,,,,,,,,,,,,,,,,,,,,,,,,,,,,,,,,,,,,,,,,,,,,,,,,,,,,,
,,5e0e16d70db892559eb23487,2022-08-30_10h19.03.766,CGTgamblingSpanTasks,2022.2.1,MacIntel,59.99520038,,,,,,,,,,,,,,,,,,,,,,,,,,,,,,,,,,,,,,,,,,,,,,,,,,,,,,,,,,,,,,,,,,,,,,,,,,,,,,,,return,4.1755,,,,,,,,,,,,,,,,,,,,,,,,,,,,,,,,,,,,,,,,,,,,,,,,,,,,,,
,,5e0e16d70db892559eb23487,2022-08-30_10h19.03.766,CGTgamblingSpanTasks,2022.2.1,MacIntel,59.99520038,,,,,,,,,,,,,,,,,,,,,,,,,,,,,,,,,,,,,,,,,,,,,,,,,,,,,,,,,,,,,,,,,,,,,,,,,,,,,,,,,,"[6,3,4]",0,0,0,0,1,,,,,,,,,,,,,,,,,,,,,,,,,,,,,,,,,,,,,,,,,,,,,,,,
,,5e0e16d70db892559eb23487,2022-08-30_10h19.03.766,CGTgamblingSpanTasks,2022.2.1,MacIntel,59.99520038,,,,,,,,,,,,,,,,,,,,,,,,,,,,,,,,,,,,,,,,,,,,,,,,,,,,,,,,,,,,,,,,,,,,,,,,,,,,,,,,,,"[6,3,4]",1,0,1,0,1,,,,,,,,,,,,,,,,,,,,,,,,,,,,,,,,,,,,,,,,,,,,,,,,
,,5e0e16d70db892559eb23487,2022-08-30_10h19.03.766,CGTgamblingSpanTasks,2022.2.1,MacIntel,59.99520038,,,,,,,,,,,,,,,,,,,,,,,,,,,,,,,,,,,,,,,,,,,,,,,,,,,,,,,,,,,,,,,,,,,,,,,,,,,,,,,,,,"[6,3,4]",2,0,2,0,1,,,,,,,,,,,,,,,,,,,,,,,,,,,,,,,,,,,,,,,,,,,,,,,,
,,5e0e16d70db892559eb23487,2022-08-30_10h19.03.766,CGTgamblingSpanTasks,2022.2.1,MacIntel,59.99520038,,,,,,,,,,,,,,,,,,,,,,,,,,,,,,,,,,,,,,,,,,,,,,,,,,,,,,,,,,,,,,,0,,,,,,,,,,,,,,,,,,,,,,,,,,0.005762411,-0.417553191,1,0,0,cont_button,0,0,0,0,1,1,,,,,,,,,,,,,,,,,,,,,,,,,,,,,,,,,,,
,,5e0e16d70db892559eb23487,2022-08-30_10h19.03.766,CGTgamblingSpanTasks,2022.2.1,MacIntel,59.99520038,,,,,,,,,,,,,,,,,,,,,,,,,,,,,,,,,,,,,,,,,,,,,,,,,,,,,,,,,,,,,,,,,,,,,,,,,,,,,,,,,,"[1,2,5]",0,0,0,0,1,,,,,,,,,,,,,,,,,,,,,,,,,,,,,,,,,,,,,,,,,,,,,,,,
,,5e0e16d70db892559eb23487,2022-08-30_10h19.03.766,CGTgamblingSpanTasks,2022.2.1,MacIntel,59.99520038,,,,,,,,,,,,,,,,,,,,,,,,,,,,,,,,,,,,,,,,,,,,,,,,,,,,,,,,,,,,,,,,,,,,,,,,,,,,,,,,,,"[1,2,5]",1,0,1,0,1,,,,,,,,,,,,,,,,,,,,,,,,,,,,,,,,,,,,,,,,,,,,,,,,
,,5e0e16d70db892559eb23487,2022-08-30_10h19.03.766,CGTgamblingSpanTasks,2022.2.1,MacIntel,59.99520038,,,,,,,,,,,,,,,,,,,,,,,,,,,,,,,,,,,,,,,,,,,,,,,,,,,,,,,,,,,,,,,,,,,,,,,,,,,,,,,,,,"[1,2,5]",2,0,2,0,1,,,,,,,,,,,,,,,,,,,,,,,,,,,,,,,,,,,,,,,,,,,,,,,,
,,5e0e16d70db892559eb23487,2022-08-30_10h19.03.766,CGTgamblingSpanTasks,2022.2.1,MacIntel,59.99520038,,,,,,,,,,,,,,,,,,,,,,,,,,,,,,,,,,,,,,,,,,,,,,,,,,,,,,,,,,,,,,,0,,,,,,,,,,,,,,,,,,,,,,,,,,0.005762411,-0.417553191,1,0,0,cont_button,0,1,1,1,1,2,,,,,,,,,,,,,,,,,,,,,,,,,,,,,,,,,,,
,,5e0e16d70db892559eb23487,2022-08-30_10h19.03.766,CGTgamblingSpanTasks,2022.2.1,MacIntel,59.99520038,,,,,,,,,,,,,,,,,,,,,,,,,,,,,,,,,,,,,,,,,,,,,,,,,,,,,,,,,,,,,,,,,,,,,,,,,,,,,,,,,,"[1,8,5]",0,0,0,0,1,,,,,,,,,,,,,,,,,,,,,,,,,,,,,,,,,,,,,,,,,,,,,,,,
,,5e0e16d70db892559eb23487,2022-08-30_10h19.03.766,CGTgamblingSpanTasks,2022.2.1,MacIntel,59.99520038,,,,,,,,,,,,,,,,,,,,,,,,,,,,,,,,,,,,,,,,,,,,,,,,,,,,,,,,,,,,,,,,,,,,,,,,,,,,,,,,,,"[1,8,5]",1,0,1,0,1,,,,,,,,,,,,,,,,,,,,,,,,,,,,,,,,,,,,,,,,,,,,,,,,
,,5e0e16d70db892559eb23487,2022-08-30_10h19.03.766,CGTgamblingSpanTasks,2022.2.1,MacIntel,59.99520038,,,,,,,,,,,,,,,,,,,,,,,,,,,,,,,,,,,,,,,,,,,,,,,,,,,,,,,,,,,,,,,,,,,,,,,,,,,,,,,,,,"[1,8,5]",2,0,2,0,1,,,,,,,,,,,,,,,,,,,,,,,,,,,,,,,,,,,,,,,,,,,,,,,,
,,5e0e16d70db892559eb23487,2022-08-30_10h19.03.766,CGTgamblingSpanTasks,2022.2.1,MacIntel,59.99520038,,,,,,,,,,,,,,,,,,,,,,,,,,,,,,,,,,,,,,,,,,,,,,,,,,,,,,,,,,,,,,,0,,,,,,,,,,,,,,,,,,,,,,,,,,0.003989362,-0.408687943,1,0,0,cont_button,0,2,2,2,1,3,,,,,,,,,,,,,,,,,,,,,,,,,,,,,,,,,,,
,,5e0e16d70db892559eb23487,2022-08-30_10h19.03.766,CGTgamblingSpanTasks,2022.2.1,MacIntel,59.99520038,,,,,,,,,,,,,,,,,,,,,,,,,,,,,,,,,,,,,,,,,,,,,,,,,,,,,,,,,,,,,,,,,,,,,,,,,,,,,,,,,,"[1,7,5]",0,0,0,0,1,,,,,,,,,,,,,,,,,,,,,,,,,,,,,,,,,,,,,,,,,,,,,,,,
,,5e0e16d70db892559eb23487,2022-08-30_10h19.03.766,CGTgamblingSpanTasks,2022.2.1,MacIntel,59.99520038,,,,,,,,,,,,,,,,,,,,,,,,,,,,,,,,,,,,,,,,,,,,,,,,,,,,,,,,,,,,,,,,,,,,,,,,,,,,,,,,,,"[1,7,5]",1,0,1,0,1,,,,,,,,,,,,,,,,,,,,,,,,,,,,,,,,,,,,,,,,,,,,,,,,
,,5e0e16d70db892559eb23487,2022-08-30_10h19.03.766,CGTgamblingSpanTasks,2022.2.1,MacIntel,59.99520038,,,,,,,,,,,,,,,,,,,,,,,,,,,,,,,,,,,,,,,,,,,,,,,,,,,,,,,,,,,,,,,,,,,,,,,,,,,,,,,,,,"[1,7,5]",2,0,2,0,1,,,,,,,,,,,,,,,,,,,,,,,,,,,,,,,,,,,,,,,,,,,,,,,,
,,5e0e16d70db892559eb23487,2022-08-30_10h19.03.766,CGTgamblingSpanTasks,2022.2.1,MacIntel,59.99520038,,,,,,,,,,,,,,,,,,,,,,,,,,,,,,,,,,,,,,,,,,,,,,,,,,,,,,,,,,,,,,,0,,,,,,,,,,,,,,,,,,,,,,,,,,-0.003989362,-0.382092199,1,0,0,cont_button,0,3,3,3,1,4,,,,,,,,,,,,,,,,,,,,,,,,,,,,,,,,,,,
,,5e0e16d70db892559eb23487,2022-08-30_10h19.03.766,CGTgamblingSpanTasks,2022.2.1,MacIntel,59.99520038,,,,,,,,,,,,,,,,,,,,,,,,,,,,,,,,,,,,,,,,,,,,,,,,,,,,,,,,,,,,,,,,,,,,,,,,,,,,,,,,,,,,,,,,,,,,,,,,,,,,,return,1.7138,,,,,,,,,,,,,,,,,,,,,,,,,,,,,,,,,
,,5e0e16d70db892559eb23487,2022-08-30_10h19.03.766,CGTgamblingSpanTasks,2022.2.1,MacIntel,59.99520038,,,,,,,,,,,,,,,,,,,,,,,,,,,,,,,,,,,,,,,,,,,,,,,,,,,,,,,,,,,,,,,,,,,,,,,,,,,,,,,,,,,,,,,,,,,,,,,,,,,,,,,return,0.8929,,,,,,,,,,,,,,,,,,,,,,,,,,,,,,,
,,5e0e16d70db892559eb23487,2022-08-30_10h19.03.766,CGTgamblingSpanTasks,2022.2.1,MacIntel,59.99520038,,,,,,,,,,,,,,,,,,,,,,,,,,,,,,,,,,,,,,,,,,,,,,,,,,,,,,,,,,,,,,,0,,,,,,,,,,,,3,342,24,2,42,,,,,,,,,,,,,,,,,,,,,,,,,,,-0.003989362,-0.382092199,1,0,0,cont_buttonPractice_2,0,0,0,0,1,,,,,,,,,,,,,,,,,,,
,,5e0e16d70db892559eb23487,2022-08-30_10h19.03.766,CGTgamblingSpanTasks,2022.2.1,MacIntel,59.99520038,,,,,,,,,,,,,,,,,,,,,,,,,,,,,,,,,,,,,,,,,,,,,,,,,,,,,,,,,,,,,,,1,,,,,,,,,,,,3,937,73,2,37,,,,,,,,,,,,,,,,,,,,,,,,,,37,-0.003989362,-0.382092199,1,0,0,cont_buttonPractice_2,0,1,1,1,1,,,,,,,,,,,,,,,,,,,
,,5e0e16d70db892559eb23487,2022-08-30_10h19.03.766,CGTgamblingSpanTasks,2022.2.1,MacIntel,59.99520038,,,,,,,,,,,,,,,,,,,,,,,,,,,,,,,,,,,,,,,,,,,,,,,,,,,,,,,,,,,,,,,,,,,,,,,,,,,,,,,,,,,,,,,,,,,,,,,,,,,,,,,,,,,,,,,,,,,,,return,3.1768,,,,,,,,,,,,,,,,,
,,5e0e16d70db892559eb23487,2022-08-30_10h19.03.766,CGTgamblingSpanTasks,2022.2.1,MacIntel,59.99520038,,,,,,,,,,,,,,,,,,,,,,,,,,,,,,,,,,,,,,,,,,,,,,,,,,,,,,,,,,,,,,,,,,,,,,,,,,,,,,,,,,"[8,2]",,,,,,,,,,,,,,,,,,,,,,,,,,,,,,,,,,,,,0,0,0,0,1,,,,,,,,,,,,
,,5e0e16d70db892559eb23487,2022-08-30_10h19.03.766,CGTgamblingSpanTasks,2022.2.1,MacIntel,59.99520038,,,,,,,,,,,,,,,,,,,,,,,,,,,,,,,,,,,,,,,,,,,,,,,,,,,,,,,,,,,,,,,,,,,,,,,,,,,,,,,,,,"[8,2]",,,,,,,,,,,,,,,,,,,,,,,,,,,,,,,,,,,,,1,0,1,0,1,,,,,,,,,,,,
,,5e0e16d70db892559eb23487,2022-08-30_10h19.03.766,CGTgamblingSpanTasks,2022.2.1,MacIntel,59.99520038,,,,,,,,,,,,,,,,,,,,,,,,,,,,,,,,,,,,,,,,,,,,,,,,,,,,,,,,,,,,,,,0,,,,,,,,,,,,,,,,,,,,,,,,,,,,,,,,,,,,,1,,,,,,,,,,,,,,,,,,,,,,,,45,-0.003989362,-0.382092199,1,0,0,cont_buttonBS,0,0,0,0,1
,,5e0e16d70db892559eb23487,2022-08-30_10h19.03.766,CGTgamblingSpanTasks,2022.2.1,MacIntel,59.99520038,,,,,,,,,,,,,,,,,,,,,,,,,,,,,,,,,,,,,,,,,,,,,,,,,,,,,,,,,,,,,,,,,,,,,,,,,,,,,,,,,,"[2,5]",,,,,,,,,,,,,,,,,,,,,,,,,,,,,,,,,,,,,0,0,0,0,1,,,,,,,,,,,,
,,5e0e16d70db892559eb23487,2022-08-30_10h19.03.766,CGTgamblingSpanTasks,2022.2.1,MacIntel,59.99520038,,,,,,,,,,,,,,,,,,,,,,,,,,,,,,,,,,,,,,,,,,,,,,,,,,,,,,,,,,,,,,,,,,,,,,,,,,,,,,,,,,"[2,5]",,,,,,,,,,,,,,,,,,,,,,,,,,,,,,,,,,,,,1,0,1,0,1,,,,,,,,,,,,
,,5e0e16d70db892559eb23487,2022-08-30_10h19.03.766,CGTgamblingSpanTasks,2022.2.1,MacIntel,59.99520038,,,,,,,,,,,,,,,,,,,,,,,,,,,,,,,,,,,,,,,,,,,,,,,,,,,,,,,,,,,,,,,0,,,,,,,,,,,,,,,,,,,,,,,,,,,,,,,,,,,,,2,,,,,,,,,,,,,,,,,,,,,,,,345,-0.003989362,-0.382092199,1,0,0,cont_buttonBS,0,1,1,1,1
,,5e0e16d70db892559eb23487,2022-08-30_10h19.03.766,CGTgamblingSpanTasks,2022.2.1,MacIntel,59.99520038,,,,,,,,,,,,,,,,,,,,,,,,,,,,,,,,,,,,,,,,,,,,,,,,,,,,,,,,,,,,,,,,,,,,,,,,,,,,,,,,,,"[6,9]",,,,,,,,,,,,,,,,,,,,,,,,,,,,,,,,,,,,,0,0,0,0,1,,,,,,,,,,,,
,,5e0e16d70db892559eb23487,2022-08-30_10h19.03.766,CGTgamblingSpanTasks,2022.2.1,MacIntel,59.99520038,,,,,,,,,,,,,,,,,,,,,,,,,,,,,,,,,,,,,,,,,,,,,,,,,,,,,,,,,,,,,,,,,,,,,,,,,,,,,,,,,,"[6,9]",,,,,,,,,,,,,,,,,,,,,,,,,,,,,,,,,,,,,1,0,1,0,1,,,,,,,,,,,,
,,5e0e16d70db892559eb23487,2022-08-30_10h19.03.766,CGTgamblingSpanTasks,2022.2.1,MacIntel,59.99520038,,,,,,,,,,,,,,,,,,,,,,,,,,,,,,,,,,,,,,,,,,,,,,,,,,,,,,,,,,,,,,,0,,,,,,,,,,,,,,,,,,,,,,,,,,,,,,,,,,,,,3,,,,,,,,,,,,,,,,,,,,,,,,,-0.003989362,-0.382092199,1,0,0,cont_buttonBS,0,2,2,2,1
,,5e0e16d70db892559eb23487,2022-08-30_10h19.03.766,CGTgamblingSpanTasks,2022.2.1,MacIntel,59.99520038,,,,,,,,,,,,,,,,,,,,,,,,,,,,,,,,,,,,,,,,,,,,,,,,,,,,,,,,,,,,,,,,,,,,,,,,,,,,,,,,,,"[6,3]",,,,,,,,,,,,,,,,,,,,,,,,,,,,,,,,,,,,,0,0,0,0,1,,,,,,,,,,,,
,,5e0e16d70db892559eb23487,2022-08-30_10h19.03.766,CGTgamblingSpanTasks,2022.2.1,MacIntel,59.99520038,,,,,,,,,,,,,,,,,,,,,,,,,,,,,,,,,,,,,,,,,,,,,,,,,,,,,,,,,,,,,,,,,,,,,,,,,,,,,,,,,,"[6,3]",,,,,,,,,,,,,,,,,,,,,,,,,,,,,,,,,,,,,1,0,1,0,1,,,,,,,,,,,,
,,5e0e16d70db892559eb23487,2022-08-30_10h19.03.766,CGTgamblingSpanTasks,2022.2.1,MacIntel,59.99520038,,,,,,,,,,,,,,,,,,,,,,,,,,,,,,,,,,,,,,,,,,,,,,,,,,,,,,,,,,,,,,,0,,,,,,,,,,,,,,,,,,,,,,,,,,,,,,,,,,,,,4,,,,,,,,,,,,,,,,,,,,,,,,,-0.003989362,-0.382092199,1,0,0,cont_buttonBS,0,3,3,3,1
,,5e0e16d70db892559eb23487,2022-08-30_10h19.03.766,CGTgamblingSpanTasks,2022.2.1,MacIntel,59.99520038,,,,,,,,,,,,,,,,,,,,,,,,,,,,,,,,,,,,,,,,,,,,,,,,,,,,,,,,,,,,,,,,,,,,,,,,,,,,,,,,,,,,,,,,,,,,,,,,,,,,,,,,,,,,,,,,,,,,,,,,,,,,,,,,,,,,,,,
