initITIstatic,initITIdynamic,participant,date,expName,psychopyVersion,OS,frameRate,inst1.keys,inst1.rt,startPracResp.keys,startPracResp.rt,choice1.keys,choice1.rt,outcome,extraITI,trials.thisRepN,trials.thisTrialN,trials.thisN,trials.thisIndex,trials.ran,riskyGain,riskyLoss,alternative,isi,iti,loc,postPractResp.keys,postPractResp.rt,realloc,realChoice.keys,realChoice.rt,outcomes,choices,actualITI,init ITI,staticRDM.thisRepN,staticRDM.thisTrialN,staticRDM.thisN,staticRDM.thisIndex,staticRDM.ran,riskyoption1,riskyoption2,safeoption,ischecktrial,dynamicChoiceSetName,dynamicChoiceSetPath,bestRho,bestMu,trials_2.thisRepN,trials_2.thisTrialN,trials_2.thisN,trials_2.thisIndex,trials_2.ran,key_resp.keys,key_resp.rt,dynamicRDM.thisRepN,dynamicRDM.thisTrialN,dynamicRDM.thisN,dynamicRDM.thisIndex,dynamicRDM.ran,choiceP,easy0difficult1,stopBreak.keys,stopBreak.rt,movealong.keys,movealong.rt,startPractice.keys,startPractice.rt,textboxPractice.text,correct,mousePractice.x,mousePractice.y,mousePractice.leftButton,mousePractice.midButton,mousePractice.rightButton,mousePractice.clicked_name,trialFSPractice.thisRepN,trialFSPractice.thisTrialN,trialFSPractice.thisN,trialFSPractice.thisIndex,trialFSPractice.ran,digitSpanForward,digits,digitsReverse,digitSpanReverse,digitsReverseCorrAnswer,startFSreal.keys,startFSreal.rt,digitsForTrial,digitLoop.thisRepN,digitLoop.thisTrialN,digitLoop.thisN,digitLoop.thisIndex,digitLoop.ran,textbox.text,mouse_3.x,mouse_3.y,mouse_3.leftButton,mouse_3.midButton,mouse_3.rightButton,mouse_3.clicked_name,trialsFS.thisRepN,trialsFS.thisTrialN,trialsFS.thisN,trialsFS.thisIndex,trialsFS.ran,trialNumber,moveToBS.keys,moveToBS.rt,startBSprac.keys,startBSprac.rt,textboxPractice_2.text,mousePractice_2.x,mousePractice_2.y,mousePractice_2.leftButton,mousePractice_2.midButton,mousePractice_2.rightButton,mousePractice_2.clicked_name,trialsPracticeBS.thisRepN,trialsPracticeBS.thisTrialN,trialsPracticeBS.thisN,trialsPracticeBS.thisIndex,trialsPracticeBS.ran,startBSreal.keys,startBSreal.rt,digitLoopBS.thisRepN,digitLoopBS.thisTrialN,digitLoopBS.thisN,digitLoopBS.thisIndex,digitLoopBS.ran,textboxBS.text,mouseBS.x,mouseBS.y,mouseBS.leftButton,mouseBS.midButton,mouseBS.rightButton,mouseBS.clicked_name,trialsBS.thisRepN,trialsBS.thisTrialN,trialsBS.thisN,trialsBS.thisIndex,trialsBS.ran
"[1,1.5,1.5,1.5,1,1.5,1.5,1,1.5,1.5,1,1,1.5,1,1.5,1,1,1.5,1.5,1.5,1.5,1,1,1.5,1,1,1,1.5,1,1.5,1.5,1,1,1,1,1.5,1,1.5,1.5,1.5,1,1,1.5,1,1,1.5,1,1,1.5,1.5]","[1.5,1,1,1.5,1.5,1.5,1,1.5,1,1.5,1.5,1.5,1.5,1,1.5,1,1,1,1,1.5,1.5,1.5,1.5,1,1,1.5,1.5,1,1,1,1,1.5,1.5,1.5,1.5,1.5,1.5,1.5,1.5,1,1,1.5,1,1,1,1.5,1,1.5,1,1,1.5,1,1,1,1,1,1.5,1.5,1.5,1.5,1,1,1.5,1,1.5,1,1,1.5,1,1,1.5,1.5,1.5,1,1.5,1.5,1,1.5,1.5,1,1,1.5,1.5,1,1.5,1,1,1.5,1,1.5,1,1,1.5,1,1.5,1,1,1,1,1.5,1,1.5,1,1.5,1,1.5,1,1,1,1,1.5,1.5,1.5,1,1.5,1.5,1.5,1.5,1,1]",5e0e16d70db892559eb23487,2022-09-01_13h53.34.469,CGTgamblingSpanTasks,2022.2.1,MacIntel,60.0024001,,,,,,,,,,,,,,,,,,,,,,,,,,,,,,,,,,,,,,,,,,,,,,,,,,,,,,,,,,,,,,,,,,,,,,,,,,,,,,,,,,,,,,,,,,,,,,,,,,,,,,,,,,,,,,,,,,,,,,,,,,,,,,,,,,,,,,,
,,5e0e16d70db892559eb23487,2022-09-01_13h53.34.469,CGTgamblingSpanTasks,2022.2.1,MacIntel,60.0024001,return,5.1036,,,,,,,,,,,,,,,,,,,,,,,,,,,,,,,,,,,,,,,,,,,,,,,,,,,,,,,,,,,,,,,,,,,,,,,,,,,,,,,,,,,,,,,,,,,,,,,,,,,,,,,,,,,,,,,,,,,,,,,,,,,,,,,,,,,,,
,,5e0e16d70db892559eb23487,2022-09-01_13h53.34.469,CGTgamblingSpanTasks,2022.2.1,MacIntel,60.0024001,,,v,1.4176,,,,,,,,,,,,,,,,,,,,,,,,,,,,,,,,,,,,,,,,,,,,,,,,,,,,,,,,,,,,,,,,,,,,,,,,,,,,,,,,,,,,,,,,,,,,,,,,,,,,,,,,,,,,,,,,,,,,,,,,,,,,,,,,,,,
,,5e0e16d70db892559eb23487,2022-09-01_13h53.34.469,CGTgamblingSpanTasks,2022.2.1,MacIntel,60.0024001,,,,,v,0.8805,18.23,3.1195,0,0,0,0,1,18.23,0,9.45,2,1,1,,,,,,,,,,,,,,,,,,,,,,,,,,,,,,,,,,,,,,,,,,,,,,,,,,,,,,,,,,,,,,,,,,,,,,,,,,,,,,,,,,,,,,,,,,,,,,,,,,,,,,,,,,,,,,,,,,,,
,,5e0e16d70db892559eb23487,2022-09-01_13h53.34.469,CGTgamblingSpanTasks,2022.2.1,MacIntel,60.0024001,,,,,n,1.9302,35.16,2.0698,0,1,1,1,1,53.27,0,35.16,1,1.5,1,,,,,,,,,,,,,,,,,,,,,,,,,,,,,,,,,,,,,,,,,,,,,,,,,,,,,,,,,,,,,,,,,,,,,,,,,,,,,,,,,,,,,,,,,,,,,,,,,,,,,,,,,,,,,,,,,,,,
,,5e0e16d70db892559eb23487,2022-09-01_13h53.34.469,CGTgamblingSpanTasks,2022.2.1,MacIntel,60.0024001,,,,,n,2.0372,8.27,1.9628,0,2,2,2,1,8.27,0,1.15,1,1.5,2,,,,,,,,,,,,,,,,,,,,,,,,,,,,,,,,,,,,,,,,,,,,,,,,,,,,,,,,,,,,,,,,,,,,,,,,,,,,,,,,,,,,,,,,,,,,,,,,,,,,,,,,,,,,,,,,,,,,
,,5e0e16d70db892559eb23487,2022-09-01_13h53.34.469,CGTgamblingSpanTasks,2022.2.1,MacIntel,60.0024001,,,,,n,1.516,40.41,2.484,0,3,3,3,1,45.88,0,40.41,3,1,1,,,,,,,,,,,,,,,,,,,,,,,,,,,,,,,,,,,,,,,,,,,,,,,,,,,,,,,,,,,,,,,,,,,,,,,,,,,,,,,,,,,,,,,,,,,,,,,,,,,,,,,,,,,,,,,,,,,,
,,5e0e16d70db892559eb23487,2022-09-01_13h53.34.469,CGTgamblingSpanTasks,2022.2.1,MacIntel,60.0024001,,,,,n,1.0637,21.56,2.9363,0,4,4,4,1,21.56,0,11.96,1,1.5,2,,,,,,,,,,,,,,,,,,,,,,,,,,,,,,,,,,,,,,,,,,,,,,,,,,,,,,,,,,,,,,,,,,,,,,,,,,,,,,,,,,,,,,,,,,,,,,,,,,,,,,,,,,,,,,,,,,,,
,,5e0e16d70db892559eb23487,2022-09-01_13h53.34.469,CGTgamblingSpanTasks,2022.2.1,MacIntel,60.0024001,,,,,,,,,,,,,,,,,,,,v,3.7897,,,,,,,,,,,,,,,,,,,,,,,,,,,,,,,,,,,,,,,,,,,,,,,,,,,,,,,,,,,,,,,,,,,,,,,,,,,,,,,,,,,,,,,,,,,,,,,,,,,,,,,,,,,,,,,,,,
,,5e0e16d70db892559eb23487,2022-09-01_13h53.34.469,CGTgamblingSpanTasks,2022.2.1,MacIntel,60.0024001,,,,,,,,2.6607,,,,,,,,,,,,,,2,n,1.3393,25.2,1,3.6607,1,0,0,0,3,1,25.2,0,5.4,0,,,,,,,,,,,,,,,,,,,,,,,,,,,,,,,,,,,,,,,,,,,,,,,,,,,,,,,,,,,,,,,,,,,,,,,,,,,,,,,,,,,,,,,,,,,,,,,,,,
,,5e0e16d70db892559eb23487,2022-09-01_13h53.34.469,CGTgamblingSpanTasks,2022.2.1,MacIntel,60.0024001,,,,,,,,2.099,,,,,,,,,,,,,,2,v,1.901,6.73,0,3.599,1.5,0,1,1,32,1,10.55,0,6.73,0,,,,,,,,,,,,,,,,,,,,,,,,,,,,,,,,,,,,,,,,,,,,,,,,,,,,,,,,,,,,,,,,,,,,,,,,,,,,,,,,,,,,,,,,,,,,,,,,,,
,,5e0e16d70db892559eb23487,2022-09-01_13h53.34.469,CGTgamblingSpanTasks,2022.2.1,MacIntel,60.0024001,,,,,,,,2.7167,,,,,,,,,,,,,,2,n,1.2833,21.32,1,4.2167,1.5,0,2,2,7,1,21.32,0,7.34,0,,,,,,,,,,,,,,,,,,,,,,,,,,,,,,,,,,,,,,,,,,,,,,,,,,,,,,,,,,,,,,,,,,,,,,,,,,,,,,,,,,,,,,,,,,,,,,,,,,
,,5e0e16d70db892559eb23487,2022-09-01_13h53.34.469,CGTgamblingSpanTasks,2022.2.1,MacIntel,60.0024001,,,,,,,,2.6517,,,,,,,,,,,,,,1,v,1.3483,13.94,1,4.1517,1.5,0,3,3,8,1,13.94,0,5.03,0,,,,,,,,,,,,,,,,,,,,,,,,,,,,,,,,,,,,,,,,,,,,,,,,,,,,,,,,,,,,,,,,,,,,,,,,,,,,,,,,,,,,,,,,,,,,,,,,,,
,,5e0e16d70db892559eb23487,2022-09-01_13h53.34.469,CGTgamblingSpanTasks,2022.2.1,MacIntel,60.0024001,,,,,,,,3.085,,,,,,,,,,,,,,1,v,0.915,18.77,1,4.085,1,0,4,4,15,1,18.77,0,8.61,0,,,,,,,,,,,,,,,,,,,,,,,,,,,,,,,,,,,,,,,,,,,,,,,,,,,,,,,,,,,,,,,,,,,,,,,,,,,,,,,,,,,,,,,,,,,,,,,,,,
,,5e0e16d70db892559eb23487,2022-09-01_13h53.34.469,CGTgamblingSpanTasks,2022.2.1,MacIntel,60.0024001,,,,,,,,2.9337,,,,,,,,,,,,,,2,n,1.0663,20.53,1,4.4337,1.5,0,5,5,9,1,20.53,0,7.73,0,,,,,,,,,,,,,,,,,,,,,,,,,,,,,,,,,,,,,,,,,,,,,,,,,,,,,,,,,,,,,,,,,,,,,,,,,,,,,,,,,,,,,,,,,,,,,,,,,,
,,5e0e16d70db892559eb23487,2022-09-01_13h53.34.469,CGTgamblingSpanTasks,2022.2.1,MacIntel,60.0024001,,,,,,,,2.6823,,,,,,,,,,,,,,1,v,1.3177,19.86,1,4.1823,1.5,0,6,6,11,1,19.86,0,8.07,0,,,,,,,,,,,,,,,,,,,,,,,,,,,,,,,,,,,,,,,,,,,,,,,,,,,,,,,,,,,,,,,,,,,,,,,,,,,,,,,,,,,,,,,,,,,,,,,,,,
,,5e0e16d70db892559eb23487,2022-09-01_13h53.34.469,CGTgamblingSpanTasks,2022.2.1,MacIntel,60.0024001,,,,,,,,2.7637,,,,,,,,,,,,,,1,v,1.2363,0,1,3.7637,1,0,7,7,0,1,20.03,0,1.99,0,,,,,,,,,,,,,,,,,,,,,,,,,,,,,,,,,,,,,,,,,,,,,,,,,,,,,,,,,,,,,,,,,,,,,,,,,,,,,,,,,,,,,,,,,,,,,,,,,,
,,5e0e16d70db892559eb23487,2022-09-01_13h53.34.469,CGTgamblingSpanTasks,2022.2.1,MacIntel,60.0024001,,,,,,,,2.7816,,,,,,,,,,,,,,1,v,1.2184,17.94,1,4.2816,1.5,0,8,8,19,1,17.94,0,9.03,0,,,,,,,,,,,,,,,,,,,,,,,,,,,,,,,,,,,,,,,,,,,,,,,,,,,,,,,,,,,,,,,,,,,,,,,,,,,,,,,,,,,,,,,,,,,,,,,,,,
,,5e0e16d70db892559eb23487,2022-09-01_13h53.34.469,CGTgamblingSpanTasks,2022.2.1,MacIntel,60.0024001,,,,,,,,3.1832,,,,,,,,,,,,,,2,n,0.8168,17.73,1,4.6832,1.5,0,9,9,2,1,17.73,0,3.13,0,,,,,,,,,,,,,,,,,,,,,,,,,,,,,,,,,,,,,,,,,,,,,,,,,,,,,,,,,,,,,,,,,,,,,,,,,,,,,,,,,,,,,,,,,,,,,,,,,,
,,5e0e16d70db892559eb23487,2022-09-01_13h53.34.469,CGTgamblingSpanTasks,2022.2.1,MacIntel,60.0024001,,,,,,,,2.7372,,,,,,,,,,,,,,1,n,1.2628,6.63,0,3.7372,1,0,10,10,30,1,10.73,0,6.63,0,,,,,,,,,,,,,,,,,,,,,,,,,,,,,,,,,,,,,,,,,,,,,,,,,,,,,,,,,,,,,,,,,,,,,,,,,,,,,,,,,,,,,,,,,,,,,,,,,,
,,5e0e16d70db892559eb23487,2022-09-01_13h53.34.469,CGTgamblingSpanTasks,2022.2.1,MacIntel,60.0024001,,,,,,,,2.7807,,,,,,,,,,,,,,1,v,1.2193,13.45,1,3.7807,1,0,11,11,10,1,13.45,0,5.27,0,,,,,,,,,,,,,,,,,,,,,,,,,,,,,,,,,,,,,,,,,,,,,,,,,,,,,,,,,,,,,,,,,,,,,,,,,,,,,,,,,,,,,,,,,,,,,,,,,,
,,5e0e16d70db892559eb23487,2022-09-01_13h53.34.469,CGTgamblingSpanTasks,2022.2.1,MacIntel,60.0024001,,,,,,,,3.5787,,,,,,,,,,,,,,2,n,0.4213,6.99,1,5.0787,1.5,0,12,12,43,1,16.11,6.99,6.99,1,,,,,,,,,,,,,,,,,,,,,,,,,,,,,,,,,,,,,,,,,,,,,,,,,,,,,,,,,,,,,,,,,,,,,,,,,,,,,,,,,,,,,,,,,,,,,,,,,,
,,5e0e16d70db892559eb23487,2022-09-01_13h53.34.469,CGTgamblingSpanTasks,2022.2.1,MacIntel,60.0024001,,,,,,,,2.5544,,,,,,,,,,,,,,2,n,1.4456,28.21,1,3.5544,1,0,13,13,1,1,28.21,0,3.89,0,,,,,,,,,,,,,,,,,,,,,,,,,,,,,,,,,,,,,,,,,,,,,,,,,,,,,,,,,,,,,,,,,,,,,,,,,,,,,,,,,,,,,,,,,,,,,,,,,,
,,5e0e16d70db892559eb23487,2022-09-01_13h53.34.469,CGTgamblingSpanTasks,2022.2.1,MacIntel,60.0024001,,,,,,,,2.636,,,,,,,,,,,,,,1,v,1.364,7.73,1,4.136,1.5,0,14,14,44,1,13.1,7.73,4.68,1,,,,,,,,,,,,,,,,,,,,,,,,,,,,,,,,,,,,,,,,,,,,,,,,,,,,,,,,,,,,,,,,,,,,,,,,,,,,,,,,,,,,,,,,,,,,,,,,,,
,,5e0e16d70db892559eb23487,2022-09-01_13h53.34.469,CGTgamblingSpanTasks,2022.2.1,MacIntel,60.0024001,,,,,,,,2.3811,,,,,,,,,,,,,,1,v,1.6189,22.97,1,3.3811,1,0,15,15,5,1,22.97,0,6.51,0,,,,,,,,,,,,,,,,,,,,,,,,,,,,,,,,,,,,,,,,,,,,,,,,,,,,,,,,,,,,,,,,,,,,,,,,,,,,,,,,,,,,,,,,,,,,,,,,,,
,,5e0e16d70db892559eb23487,2022-09-01_13h53.34.469,CGTgamblingSpanTasks,2022.2.1,MacIntel,60.0024001,,,,,,,,1.9004,,,,,,,,,,,,,,1,v,2.0996,0,1,2.9004,1,0,16,16,22,1,11.62,0,6.19,0,,,,,,,,,,,,,,,,,,,,,,,,,,,,,,,,,,,,,,,,,,,,,,,,,,,,,,,,,,,,,,,,,,,,,,,,,,,,,,,,,,,,,,,,,,,,,,,,,,
,,5e0e16d70db892559eb23487,2022-09-01_13h53.34.469,CGTgamblingSpanTasks,2022.2.1,MacIntel,60.0024001,,,,,,,,0.7706,,,,,,,,,,,,,,1,v,3.2294,0,1,2.2706,1.5,0,17,17,31,1,15.96,0,10.02,0,,,,,,,,,,,,,,,,,,,,,,,,,,,,,,,,,,,,,,,,,,,,,,,,,,,,,,,,,,,,,,,,,,,,,,,,,,,,,,,,,,,,,,,,,,,,,,,,,,
,,5e0e16d70db892559eb23487,2022-09-01_13h53.34.469,CGTgamblingSpanTasks,2022.2.1,MacIntel,60.0024001,,,,,,,,2.1427,,,,,,,,,,,,,,1,v,1.8573,0,1,3.6427,1.5,0,18,18,13,1,19.28,0,8.36,0,,,,,,,,,,,,,,,,,,,,,,,,,,,,,,,,,,,,,,,,,,,,,,,,,,,,,,,,,,,,,,,,,,,,,,,,,,,,,,,,,,,,,,,,,,,,,,,,,,
,,5e0e16d70db892559eb23487,2022-09-01_13h53.34.469,CGTgamblingSpanTasks,2022.2.1,MacIntel,60.0024001,,,,,,,,2.3005,,,,,,,,,,,,,,2,v,1.6995,5.48,0,3.8005,1.5,0,19,19,12,1,13.04,0,5.48,0,,,,,,,,,,,,,,,,,,,,,,,,,,,,,,,,,,,,,,,,,,,,,,,,,,,,,,,,,,,,,,,,,,,,,,,,,,,,,,,,,,,,,,,,,,,,,,,,,,
,,5e0e16d70db892559eb23487,2022-09-01_13h53.34.469,CGTgamblingSpanTasks,2022.2.1,MacIntel,60.0024001,,,,,,,,2.7143,,,,,,,,,,,,,,2,n,1.2857,11.43,1,4.2143,1.5,0,20,20,24,1,11.43,0,6.29,0,,,,,,,,,,,,,,,,,,,,,,,,,,,,,,,,,,,,,,,,,,,,,,,,,,,,,,,,,,,,,,,,,,,,,,,,,,,,,,,,,,,,,,,,,,,,,,,,,,
,,5e0e16d70db892559eb23487,2022-09-01_13h53.34.469,CGTgamblingSpanTasks,2022.2.1,MacIntel,60.0024001,,,,,,,,2.5872,,,,,,,,,,,,,,2,v,1.4128,7.55,0,3.5872,1,0,21,21,45,1,0,0,7.55,1,,,,,,,,,,,,,,,,,,,,,,,,,,,,,,,,,,,,,,,,,,,,,,,,,,,,,,,,,,,,,,,,,,,,,,,,,,,,,,,,,,,,,,,,,,,,,,,,,,
,,5e0e16d70db892559eb23487,2022-09-01_13h53.34.469,CGTgamblingSpanTasks,2022.2.1,MacIntel,60.0024001,,,,,,,,0,,,,,,,,,,,,,,2,,,,,1,1,0,22,22,18,1,12.08,0,5.96,0,,,,,,,,,,,,,,,,,,,,,,,,,,,,,,,,,,,,,,,,,,,,,,,,,,,,,,,,,,,,,,,,,,,,,,,,,,,,,,,,,,,,,,,,,,,,,,,,,,
,,5e0e16d70db892559eb23487,2022-09-01_13h53.34.469,CGTgamblingSpanTasks,2022.2.1,MacIntel,60.0024001,,,,,,,,2.7181,,,,,,,,,,,,,,2,n,1.2819,11.2,1,4.2181,1.5,0,23,23,26,1,11.2,0,6.4,0,,,,,,,,,,,,,,,,,,,,,,,,,,,,,,,,,,,,,,,,,,,,,,,,,,,,,,,,,,,,,,,,,,,,,,,,,,,,,,,,,,,,,,,,,,,,,,,,,,
,,5e0e16d70db892559eb23487,2022-09-01_13h53.34.469,CGTgamblingSpanTasks,2022.2.1,MacIntel,60.0024001,,,,,,,,2.6322,,,,,,,,,,,,,,2,n,1.3678,10.35,1,3.6322,1,0,24,24,40,1,10.35,0,0,1,,,,,,,,,,,,,,,,,,,,,,,,,,,,,,,,,,,,,,,,,,,,,,,,,,,,,,,,,,,,,,,,,,,,,,,,,,,,,,,,,,,,,,,,,,,,,,,,,,
,,5e0e16d70db892559eb23487,2022-09-01_13h53.34.469,CGTgamblingSpanTasks,2022.2.1,MacIntel,60.0024001,,,,,,,,2.433,,,,,,,,,,,,,,2,v,1.567,6.08,0,3.433,1,0,25,25,20,1,11.84,0,6.08,0,,,,,,,,,,,,,,,,,,,,,,,,,,,,,,,,,,,,,,,,,,,,,,,,,,,,,,,,,,,,,,,,,,,,,,,,,,,,,,,,,,,,,,,,,,,,,,,,,,
,,5e0e16d70db892559eb23487,2022-09-01_13h53.34.469,CGTgamblingSpanTasks,2022.2.1,MacIntel,60.0024001,,,,,,,,2.8318,,,,,,,,,,,,,,2,n,1.1682,0,1,3.8318,1,0,26,26,29,1,16.26,0,9.87,0,,,,,,,,,,,,,,,,,,,,,,,,,,,,,,,,,,,,,,,,,,,,,,,,,,,,,,,,,,,,,,,,,,,,,,,,,,,,,,,,,,,,,,,,,,,,,,,,,,
,,5e0e16d70db892559eb23487,2022-09-01_13h53.34.469,CGTgamblingSpanTasks,2022.2.1,MacIntel,60.0024001,,,,,,,,2.964,,,,,,,,,,,,,,2,v,1.036,3.13,0,4.464,1.5,0,27,27,47,1,0,0,3.13,1,,,,,,,,,,,,,,,,,,,,,,,,,,,,,,,,,,,,,,,,,,,,,,,,,,,,,,,,,,,,,,,,,,,,,,,,,,,,,,,,,,,,,,,,,,,,,,,,,,
,,5e0e16d70db892559eb23487,2022-09-01_13h53.34.469,CGTgamblingSpanTasks,2022.2.1,MacIntel,60.0024001,,,,,,,,2.5795,,,,,,,,,,,,,,2,n,1.4205,0,1,3.5795,1,0,28,28,37,1,15.27,0,10.37,0,,,,,,,,,,,,,,,,,,,,,,,,,,,,,,,,,,,,,,,,,,,,,,,,,,,,,,,,,,,,,,,,,,,,,,,,,,,,,,,,,,,,,,,,,,,,,,,,,,
,,5e0e16d70db892559eb23487,2022-09-01_13h53.34.469,CGTgamblingSpanTasks,2022.2.1,MacIntel,60.0024001,,,,,,,,3.3824,,,,,,,,,,,,,,2,n,0.6176,6.79,1,4.8824,1.5,0,29,29,49,1,6.79,0,9.92,1,,,,,,,,,,,,,,,,,,,,,,,,,,,,,,,,,,,,,,,,,,,,,,,,,,,,,,,,,,,,,,,,,,,,,,,,,,,,,,,,,,,,,,,,,,,,,,,,,,
,,5e0e16d70db892559eb23487,2022-09-01_13h53.34.469,CGTgamblingSpanTasks,2022.2.1,MacIntel,60.0024001,,,,,,,,2.6495,,,,,,,,,,,,,,1,v,1.3505,16,1,4.1495,1.5,0,30,30,4,1,16,0,4,0,,,,,,,,,,,,,,,,,,,,,,,,,,,,,,,,,,,,,,,,,,,,,,,,,,,,,,,,,,,,,,,,,,,,,,,,,,,,,,,,,,,,,,,,,,,,,,,,,,
,,5e0e16d70db892559eb23487,2022-09-01_13h53.34.469,CGTgamblingSpanTasks,2022.2.1,MacIntel,60.0024001,,,,,,,,1.7144,,,,,,,,,,,,,,1,v,2.2856,15.09,1,2.7144,1,0,31,31,39,1,15.09,0,10.46,0,,,,,,,,,,,,,,,,,,,,,,,,,,,,,,,,,,,,,,,,,,,,,,,,,,,,,,,,,,,,,,,,,,,,,,,,,,,,,,,,,,,,,,,,,,,,,,,,,,
,,5e0e16d70db892559eb23487,2022-09-01_13h53.34.469,CGTgamblingSpanTasks,2022.2.1,MacIntel,60.0024001,,,,,,,,3.0165,,,,,,,,,,,,,,2,n,0.9835,16.6,1,4.0165,1,0,32,32,27,1,16.6,0,9.7,0,,,,,,,,,,,,,,,,,,,,,,,,,,,,,,,,,,,,,,,,,,,,,,,,,,,,,,,,,,,,,,,,,,,,,,,,,,,,,,,,,,,,,,,,,,,,,,,,,,
,,5e0e16d70db892559eb23487,2022-09-01_13h53.34.469,CGTgamblingSpanTasks,2022.2.1,MacIntel,60.0024001,,,,,,,,2.8161,,,,,,,,,,,,,,2,v,1.1839,10.68,0,3.8161,1,0,33,33,48,1,10.68,0,10.68,1,,,,,,,,,,,,,,,,,,,,,,,,,,,,,,,,,,,,,,,,,,,,,,,,,,,,,,,,,,,,,,,,,,,,,,,,,,,,,,,,,,,,,,,,,,,,,,,,,,
,,5e0e16d70db892559eb23487,2022-09-01_13h53.34.469,CGTgamblingSpanTasks,2022.2.1,MacIntel,60.0024001,,,,,,,,2.8325,,,,,,,,,,,,,,1,v,1.1675,0,1,3.8325,1,0,34,34,34,1,10.39,0,6.81,0,,,,,,,,,,,,,,,,,,,,,,,,,,,,,,,,,,,,,,,,,,,,,,,,,,,,,,,,,,,,,,,,,,,,,,,,,,,,,,,,,,,,,,,,,,,,,,,,,,
,,5e0e16d70db892559eb23487,2022-09-01_13h53.34.469,CGTgamblingSpanTasks,2022.2.1,MacIntel,60.0024001,,,,,,,,3.148,,,,,,,,,,,,,,1,n,0.852,4.64,0,4.648,1.5,0,35,35,6,1,14.72,0,4.64,0,,,,,,,,,,,,,,,,,,,,,,,,,,,,,,,,,,,,,,,,,,,,,,,,,,,,,,,,,,,,,,,,,,,,,,,,,,,,,,,,,,,,,,,,,,,,,,,,,,
,,5e0e16d70db892559eb23487,2022-09-01_13h53.34.469,CGTgamblingSpanTasks,2022.2.1,MacIntel,60.0024001,,,,,,,,3.0005,,,,,,,,,,,,,,2,n,0.9995,17,1,4.0005,1,0,36,36,25,1,17,0,9.5,0,,,,,,,,,,,,,,,,,,,,,,,,,,,,,,,,,,,,,,,,,,,,,,,,,,,,,,,,,,,,,,,,,,,,,,,,,,,,,,,,,,,,,,,,,,,,,,,,,,
,,5e0e16d70db892559eb23487,2022-09-01_13h53.34.469,CGTgamblingSpanTasks,2022.2.1,MacIntel,60.0024001,,,,,,,,2.6532,,,,,,,,,,,,,,2,n,1.3468,0,1,4.1532,1.5,0,37,37,42,1,19.86,0,0,1,,,,,,,,,,,,,,,,,,,,,,,,,,,,,,,,,,,,,,,,,,,,,,,,,,,,,,,,,,,,,,,,,,,,,,,,,,,,,,,,,,,,,,,,,,,,,,,,,,
,,5e0e16d70db892559eb23487,2022-09-01_13h53.34.469,CGTgamblingSpanTasks,2022.2.1,MacIntel,60.0024001,,,,,,,,3.613,,,,,,,,,,,,,,1,n,0.387,10.25,0,5.113,1.5,0,38,38,46,1,0,0,10.25,1,,,,,,,,,,,,,,,,,,,,,,,,,,,,,,,,,,,,,,,,,,,,,,,,,,,,,,,,,,,,,,,,,,,,,,,,,,,,,,,,,,,,,,,,,,,,,,,,,,
,,5e0e16d70db892559eb23487,2022-09-01_13h53.34.469,CGTgamblingSpanTasks,2022.2.1,MacIntel,60.0024001,,,,,,,,2.9313,,,,,,,,,,,,,,1,v,1.0687,15.47,1,4.4313,1.5,0,39,39,35,1,15.47,0,10.27,0,,,,,,,,,,,,,,,,,,,,,,,,,,,,,,,,,,,,,,,,,,,,,,,,,,,,,,,,,,,,,,,,,,,,,,,,,,,,,,,,,,,,,,,,,,,,,,,,,,
,,5e0e16d70db892559eb23487,2022-09-01_13h53.34.469,CGTgamblingSpanTasks,2022.2.1,MacIntel,60.0024001,,,,,,,,2.8831,,,,,,,,,,,,,,2,n,1.1169,0,1,3.8831,1,0,40,40,36,1,10.24,0,6.88,0,,,,,,,,,,,,,,,,,,,,,,,,,,,,,,,,,,,,,,,,,,,,,,,,,,,,,,,,,,,,,,,,,,,,,,,,,,,,,,,,,,,,,,,,,,,,,,,,,,
,,5e0e16d70db892559eb23487,2022-09-01_13h53.34.469,CGTgamblingSpanTasks,2022.2.1,MacIntel,60.0024001,,,,,,,,2.3775,,,,,,,,,,,,,,1,v,1.6225,12.36,1,3.3775,1,0,41,41,16,1,12.36,0,5.82,0,,,,,,,,,,,,,,,,,,,,,,,,,,,,,,,,,,,,,,,,,,,,,,,,,,,,,,,,,,,,,,,,,,,,,,,,,,,,,,,,,,,,,,,,,,,,,,,,,,
,,5e0e16d70db892559eb23487,2022-09-01_13h53.34.469,CGTgamblingSpanTasks,2022.2.1,MacIntel,60.0024001,,,,,,,,2.7329,,,,,,,,,,,,,,2,v,1.2671,6.94,0,4.2329,1.5,0,42,42,38,1,10.12,0,6.94,0,,,,,,,,,,,,,,,,,,,,,,,,,,,,,,,,,,,,,,,,,,,,,,,,,,,,,,,,,,,,,,,,,,,,,,,,,,,,,,,,,,,,,,,,,,,,,,,,,,
,,5e0e16d70db892559eb23487,2022-09-01_13h53.34.469,CGTgamblingSpanTasks,2022.2.1,MacIntel,60.0024001,,,,,,,,2.6493,,,,,,,,,,,,,,2,n,1.3507,0,1,3.6493,1,0,43,43,28,1,10.95,0,6.53,0,,,,,,,,,,,,,,,,,,,,,,,,,,,,,,,,,,,,,,,,,,,,,,,,,,,,,,,,,,,,,,,,,,,,,,,,,,,,,,,,,,,,,,,,,,,,,,,,,,
,,5e0e16d70db892559eb23487,2022-09-01_13h53.34.469,CGTgamblingSpanTasks,2022.2.1,MacIntel,60.0024001,,,,,,,,3.0627,,,,,,,,,,,,,,2,n,0.9373,17.28,1,4.0627,1,0,44,44,23,1,17.28,0,9.36,0,,,,,,,,,,,,,,,,,,,,,,,,,,,,,,,,,,,,,,,,,,,,,,,,,,,,,,,,,,,,,,,,,,,,,,,,,,,,,,,,,,,,,,,,,,,,,,,,,,
,,5e0e16d70db892559eb23487,2022-09-01_13h53.34.469,CGTgamblingSpanTasks,2022.2.1,MacIntel,60.0024001,,,,,,,,1.8979,,,,,,,,,,,,,,2,v,2.1021,9.2,0,3.3979,1.5,0,45,45,21,1,17.59,0,9.2,0,,,,,,,,,,,,,,,,,,,,,,,,,,,,,,,,,,,,,,,,,,,,,,,,,,,,,,,,,,,,,,,,,,,,,,,,,,,,,,,,,,,,,,,,,,,,,,,,,,
,,5e0e16d70db892559eb23487,2022-09-01_13h53.34.469,CGTgamblingSpanTasks,2022.2.1,MacIntel,60.0024001,,,,,,,,2.6174,,,,,,,,,,,,,,1,n,1.3826,10.15,0,3.6174,1,0,46,46,33,1,15.7,0,10.15,0,,,,,,,,,,,,,,,,,,,,,,,,,,,,,,,,,,,,,,,,,,,,,,,,,,,,,,,,,,,,,,,,,,,,,,,,,,,,,,,,,,,,,,,,,,,,,,,,,,
,,5e0e16d70db892559eb23487,2022-09-01_13h53.34.469,CGTgamblingSpanTasks,2022.2.1,MacIntel,60.0024001,,,,,,,,1.3328,,,,,,,,,,,,,,2,n,2.6672,0,1,2.3328,1,0,47,47,17,1,18.33,0,8.84,0,,,,,,,,,,,,,,,,,,,,,,,,,,,,,,,,,,,,,,,,,,,,,,,,,,,,,,,,,,,,,,,,,,,,,,,,,,,,,,,,,,,,,,,,,,,,,,,,,,
,,5e0e16d70db892559eb23487,2022-09-01_13h53.34.469,CGTgamblingSpanTasks,2022.2.1,MacIntel,60.0024001,,,,,,,,0,,,,,,,,,,,,,,2,,,,,1.5,1.5,0,48,48,14,1,12.68,0,5.66,0,,,,,,,,,,,,,,,,,,,,,,,,,,,,,,,,,,,,,,,,,,,,,,,,,,,,,,,,,,,,,,,,,,,,,,,,,,,,,,,,,,,,,,,,,,,,,,,,,,
,,5e0e16d70db892559eb23487,2022-09-01_13h53.34.469,CGTgamblingSpanTasks,2022.2.1,MacIntel,60.0024001,,,,,,,,2.8864,,,,,,,,,,,,,,2,n,1.1136,14.26,1,4.3864,1.5,0,49,49,41,1,14.26,0,0,1,,,,,,,,,,,,,,,,,,,,,,,,,,,,,,,,,,,,,,,,,,,,,,,,,,,,,,,,,,,,,,,,,,,,,,,,,,,,,,,,,,,,,,,,,,,,,,,,,,
,,5e0e16d70db892559eb23487,2022-09-01_13h53.34.469,CGTgamblingSpanTasks,2022.2.1,MacIntel,60.0024001,,,,,,,,,,,,,,,,,,,,,,,,,,,,,,,,,,,,,,bespoke_choiceset_rhoInd200_muInd035.csv,bespoke_choicesets/bespoke_choiceset_rhoInd200_muInd035.csv,200,35,0,0,0,0,1,,,,,,,,,,,,,,,,,,,,,,,,,,,,,,,,,,,,,,,,,,,,,,,,,,,,,,,,,,,,,,,,,,,,,,,,,,,,,,,,,,,,,,,,,
,,5e0e16d70db892559eb23487,2022-09-01_13h53.34.469,CGTgamblingSpanTasks,2022.2.1,MacIntel,60.0024001,,,,,,,,,,,,,,,,,,,,,,,,,,,,,,,,,,,,,,,,,,,,,,,,,,,,,,,,,,,,,,,,,,,,,,,,,,,,,,,,,,,,,,,,,,,,,,,,,,,,,,,,,,,,,,,,,,,,,,,,,,,,,,,,,,,,,,,
,,5e0e16d70db892559eb23487,2022-09-01_13h53.34.469,CGTgamblingSpanTasks,2022.2.1,MacIntel,60.0024001,,,,,,,,,,,,,,,,,,,,,,,,,,,,,,,,,,,,,,,,,,,,,,,v,24.0085,,,,,,,,,,,,,,,,,,,,,,,,,,,,,,,,,,,,,,,,,,,,,,,,,,,,,,,,,,,,,,,,,,,,,,,,,,,,,,,,,,,,,,,
,,5e0e16d70db892559eb23487,2022-09-01_13h53.34.469,CGTgamblingSpanTasks,2022.2.1,MacIntel,60.0024001,,,,,,,,2.5424,,,,,,,,,,,,,,1,v,1.4576,24.35708027,1,4.0424,1.5,,,,,,24.35708027,0,2.738695417,,,,,,,,,,,,,0,0,0,114,1,0.466573634,1,,,,,,,,,,,,,,,,,,,,,,,,,,,,,,,,,,,,,,,,,,,,,,,,,,,,,,,,,,,,,,,,,,,,,,,,,,,,,,,,
,,5e0e16d70db892559eb23487,2022-09-01_13h53.34.469,CGTgamblingSpanTasks,2022.2.1,MacIntel,60.0024001,,,,,,,,2.8125,,,,,,,,,,,,,,2,n,1.1875,0,1,3.8125,1,,,,,,24.479109,0,0.089582697,,,,,,,,,,,,,0,1,1,89,1,0.900200232,0,,,,,,,,,,,,,,,,,,,,,,,,,,,,,,,,,,,,,,,,,,,,,,,,,,,,,,,,,,,,,,,,,,,,,,,,,,,,,,,,
,,5e0e16d70db892559eb23487,2022-09-01_13h53.34.469,CGTgamblingSpanTasks,2022.2.1,MacIntel,60.0024001,,,,,,,,2.3494,,,,,,,,,,,,,,2,n,1.6506,8.363821911,1,3.3494,1,,,,,,8.363821911,0,6.781500919,,,,,,,,,,,,,0,2,2,61,1,0.044227959,0,,,,,,,,,,,,,,,,,,,,,,,,,,,,,,,,,,,,,,,,,,,,,,,,,,,,,,,,,,,,,,,,,,,,,,,,,,,,,,,,
,,5e0e16d70db892559eb23487,2022-09-01_13h53.34.469,CGTgamblingSpanTasks,2022.2.1,MacIntel,60.0024001,,,,,,,,2.7641,,,,,,,,,,,,,,1,v,1.2359,21.17800335,1,4.2641,1.5,,,,,,21.17800335,0,0.059830985,,,,,,,,,,,,,0,3,3,67,1,0.908594974,0,,,,,,,,,,,,,,,,,,,,,,,,,,,,,,,,,,,,,,,,,,,,,,,,,,,,,,,,,,,,,,,,,,,,,,,,,,,,,,,,
,,5e0e16d70db892559eb23487,2022-09-01_13h53.34.469,CGTgamblingSpanTasks,2022.2.1,MacIntel,60.0024001,,,,,,,,2.9234,,,,,,,,,,,,,,2,v,1.0766,11.19311486,0,4.4234,1.5,,,,,,8.17598802,0,11.19311486,,,,,,,,,,,,,0,4,4,110,1,0.021568003,0,,,,,,,,,,,,,,,,,,,,,,,,,,,,,,,,,,,,,,,,,,,,,,,,,,,,,,,,,,,,,,,,,,,,,,,,,,,,,,,,
,,5e0e16d70db892559eb23487,2022-09-01_13h53.34.469,CGTgamblingSpanTasks,2022.2.1,MacIntel,60.0024001,,,,,,,,3.1275,,,,,,,,,,,,,,1,v,0.8725,25.65316415,1,4.6275,1.5,,,,,,25.65316415,0,0.079652925,,,,,,,,,,,,,0,5,5,109,1,0.90568168,0,,,,,,,,,,,,,,,,,,,,,,,,,,,,,,,,,,,,,,,,,,,,,,,,,,,,,,,,,,,,,,,,,,,,,,,,,,,,,,,,
,,5e0e16d70db892559eb23487,2022-09-01_13h53.34.469,CGTgamblingSpanTasks,2022.2.1,MacIntel,60.0024001,,,,,,,,2.8311,,,,,,,,,,,,,,2,n,1.1689,27.77179191,1,3.8311,1,,,,,,27.77179191,0,0.074524436,,,,,,,,,,,,,0,6,6,99,1,0.910114387,0,,,,,,,,,,,,,,,,,,,,,,,,,,,,,,,,,,,,,,,,,,,,,,,,,,,,,,,,,,,,,,,,,,,,,,,,,,,,,,,,
,,5e0e16d70db892559eb23487,2022-09-01_13h53.34.469,CGTgamblingSpanTasks,2022.2.1,MacIntel,60.0024001,,,,,,,,2.8605,,,,,,,,,,,,,,1,v,1.1395,0,1,4.3605,1.5,,,,,,19.68065872,0,1.843597162,,,,,,,,,,,,,0,7,7,80,1,0.514941058,1,,,,,,,,,,,,,,,,,,,,,,,,,,,,,,,,,,,,,,,,,,,,,,,,,,,,,,,,,,,,,,,,,,,,,,,,,,,,,,,,
,,5e0e16d70db892559eb23487,2022-09-01_13h53.34.469,CGTgamblingSpanTasks,2022.2.1,MacIntel,60.0024001,,,,,,,,3.1182,,,,,,,,,,,,,,1,v,0.8818,24.57684014,1,4.1182,1,,,,,,24.57684014,0,0.061756244,,,,,,,,,,,,,0,8,8,68,1,0.911988903,0,,,,,,,,,,,,,,,,,,,,,,,,,,,,,,,,,,,,,,,,,,,,,,,,,,,,,,,,,,,,,,,,,,,,,,,,,,,,,,,,
,,5e0e16d70db892559eb23487,2022-09-01_13h53.34.469,CGTgamblingSpanTasks,2022.2.1,MacIntel,60.0024001,,,,,,,,3.0649,,,,,,,,,,,,,,2,n,0.9351,0,1,4.5649,1.5,,,,,,27.93093084,0,0.050207531,,,,,,,,,,,,,0,9,9,83,1,0.920505936,0,,,,,,,,,,,,,,,,,,,,,,,,,,,,,,,,,,,,,,,,,,,,,,,,,,,,,,,,,,,,,,,,,,,,,,,,,,,,,,,,
,,5e0e16d70db892559eb23487,2022-09-01_13h53.34.469,CGTgamblingSpanTasks,2022.2.1,MacIntel,60.0024001,,,,,,,,2.5655,,,,,,,,,,,,,,2,n,1.4345,0,1,4.0655,1.5,,,,,,29.30724159,0,3.247012935,,,,,,,,,,,,,0,10,10,71,1,0.470571125,1,,,,,,,,,,,,,,,,,,,,,,,,,,,,,,,,,,,,,,,,,,,,,,,,,,,,,,,,,,,,,,,,,,,,,,,,,,,,,,,,
,,5e0e16d70db892559eb23487,2022-09-01_13h53.34.469,CGTgamblingSpanTasks,2022.2.1,MacIntel,60.0024001,,,,,,,,2.5769,,,,,,,,,,,,,,2,v,1.4231,10.3417501,0,4.0769,1.5,,,,,,15.21435748,0,10.3417501,,,,,,,,,,,,,0,11,11,72,1,0.060969226,0,,,,,,,,,,,,,,,,,,,,,,,,,,,,,,,,,,,,,,,,,,,,,,,,,,,,,,,,,,,,,,,,,,,,,,,,,,,,,,,,
,,5e0e16d70db892559eb23487,2022-09-01_13h53.34.469,CGTgamblingSpanTasks,2022.2.1,MacIntel,60.0024001,,,,,,,,2.8807,,,,,,,,,,,,,,1,v,1.1193,7.066129113,1,4.3807,1.5,,,,,,7.066129113,0,0.585581699,,,,,,,,,,,,,0,12,12,19,1,0.545860632,1,,,,,,,,,,,,,,,,,,,,,,,,,,,,,,,,,,,,,,,,,,,,,,,,,,,,,,,,,,,,,,,,,,,,,,,,,,,,,,,,
,,5e0e16d70db892559eb23487,2022-09-01_13h53.34.469,CGTgamblingSpanTasks,2022.2.1,MacIntel,60.0024001,,,,,,,,2.792,,,,,,,,,,,,,,1,v,1.208,24.66627941,1,3.792,1,,,,,,24.66627941,0,2.765426402,,,,,,,,,,,,,0,13,13,24,1,0.467360588,1,,,,,,,,,,,,,,,,,,,,,,,,,,,,,,,,,,,,,,,,,,,,,,,,,,,,,,,,,,,,,,,,,,,,,,,,,,,,,,,,
,,5e0e16d70db892559eb23487,2022-09-01_13h53.34.469,CGTgamblingSpanTasks,2022.2.1,MacIntel,60.0024001,,,,,,,,2.7163,,,,,,,,,,,,,,1,v,1.2837,17.85020524,1,4.2163,1.5,,,,,,17.85020524,0,2.058701084,,,,,,,,,,,,,0,14,14,25,1,0.459662216,1,,,,,,,,,,,,,,,,,,,,,,,,,,,,,,,,,,,,,,,,,,,,,,,,,,,,,,,,,,,,,,,,,,,,,,,,,,,,,,,,
,,5e0e16d70db892559eb23487,2022-09-01_13h53.34.469,CGTgamblingSpanTasks,2022.2.1,MacIntel,60.0024001,,,,,,,,3.046,,,,,,,,,,,,,,2,n,0.954,19.58698544,1,4.046,1,,,,,,19.58698544,0,9.936178001,,,,,,,,,,,,,0,15,15,77,1,0.098812204,0,,,,,,,,,,,,,,,,,,,,,,,,,,,,,,,,,,,,,,,,,,,,,,,,,,,,,,,,,,,,,,,,,,,,,,,,,,,,,,,,
,,5e0e16d70db892559eb23487,2022-09-01_13h53.34.469,CGTgamblingSpanTasks,2022.2.1,MacIntel,60.0024001,,,,,,,,2.2325,,,,,,,,,,,,,,1,v,1.7675,0,1,3.2325,1,,,,,,18.16238569,0,1.540604093,,,,,,,,,,,,,0,16,16,34,1,0.540092491,1,,,,,,,,,,,,,,,,,,,,,,,,,,,,,,,,,,,,,,,,,,,,,,,,,,,,,,,,,,,,,,,,,,,,,,,,,,,,,,,,
,,5e0e16d70db892559eb23487,2022-09-01_13h53.34.469,CGTgamblingSpanTasks,2022.2.1,MacIntel,60.0024001,,,,,,,,2.6491,,,,,,,,,,,,,,2,n,1.3509,0,1,3.6491,1,,,,,,9.012590634,0,1.002188111,,,,,,,,,,,,,0,17,17,12,1,0.46958041,1,,,,,,,,,,,,,,,,,,,,,,,,,,,,,,,,,,,,,,,,,,,,,,,,,,,,,,,,,,,,,,,,,,,,,,,,,,,,,,,,
,,5e0e16d70db892559eb23487,2022-09-01_13h53.34.469,CGTgamblingSpanTasks,2022.2.1,MacIntel,60.0024001,,,,,,,,3.0811,,,,,,,,,,,,,,1,v,0.9189,27.2532142,1,4.0811,1,,,,,,27.2532142,0,0.08089327,,,,,,,,,,,,,0,18,18,119,1,0.907091845,0,,,,,,,,,,,,,,,,,,,,,,,,,,,,,,,,,,,,,,,,,,,,,,,,,,,,,,,,,,,,,,,,,,,,,,,,,,,,,,,,
,,5e0e16d70db892559eb23487,2022-09-01_13h53.34.469,CGTgamblingSpanTasks,2022.2.1,MacIntel,60.0024001,,,,,,,,2.4041,,,,,,,,,,,,,,1,v,1.5959,0,1,3.9041,1.5,,,,,,12.9904115,0,11.42134125,,,,,,,,,,,,,0,19,19,118,1,0.037876033,0,,,,,,,,,,,,,,,,,,,,,,,,,,,,,,,,,,,,,,,,,,,,,,,,,,,,,,,,,,,,,,,,,,,,,,,,,,,,,,,,
,,5e0e16d70db892559eb23487,2022-09-01_13h53.34.469,CGTgamblingSpanTasks,2022.2.1,MacIntel,60.0024001,,,,,,,,2.722,,,,,,,,,,,,,,2,v,1.278,11.39288827,0,4.222,1.5,,,,,,20.97851654,0,11.39288827,,,,,,,,,,,,,0,20,20,2,1,0.088791079,0,,,,,,,,,,,,,,,,,,,,,,,,,,,,,,,,,,,,,,,,,,,,,,,,,,,,,,,,,,,,,,,,,,,,,,,,,,,,,,,,
,,5e0e16d70db892559eb23487,2022-09-01_13h53.34.469,CGTgamblingSpanTasks,2022.2.1,MacIntel,60.0024001,,,,,,,,2.8989,,,,,,,,,,,,,,1,v,1.1011,0,1,4.3989,1.5,,,,,,21.03408097,0,2.208275162,,,,,,,,,,,,,0,21,21,0,1,0.485031246,1,,,,,,,,,,,,,,,,,,,,,,,,,,,,,,,,,,,,,,,,,,,,,,,,,,,,,,,,,,,,,,,,,,,,,,,,,,,,,,,,
,,5e0e16d70db892559eb23487,2022-09-01_13h53.34.469,CGTgamblingSpanTasks,2022.2.1,MacIntel,60.0024001,,,,,,,,3.1683,,,,,,,,,,,,,,2,n,0.8317,19.3050342,1,4.6683,1.5,,,,,,19.3050342,0,2.030232342,,,,,,,,,,,,,0,22,22,73,1,0.484573227,1,,,,,,,,,,,,,,,,,,,,,,,,,,,,,,,,,,,,,,,,,,,,,,,,,,,,,,,,,,,,,,,,,,,,,,,,,,,,,,,,
,,5e0e16d70db892559eb23487,2022-09-01_13h53.34.469,CGTgamblingSpanTasks,2022.2.1,MacIntel,60.0024001,,,,,,,,3.1445,,,,,,,,,,,,,,2,n,0.8555,25.54604005,1,4.1445,1,,,,,,25.54604005,0,0.088845411,,,,,,,,,,,,,0,23,23,79,1,0.901957831,0,,,,,,,,,,,,,,,,,,,,,,,,,,,,,,,,,,,,,,,,,,,,,,,,,,,,,,,,,,,,,,,,,,,,,,,,,,,,,,,,
,,5e0e16d70db892559eb23487,2022-09-01_13h53.34.469,CGTgamblingSpanTasks,2022.2.1,MacIntel,60.0024001,,,,,,,,2.3672,,,,,,,,,,,,,,1,n,1.6328,0.951019374,0,3.3672,1,,,,,,8.217594828,0,0.951019374,,,,,,,,,,,,,0,24,24,87,1,0.458722936,1,,,,,,,,,,,,,,,,,,,,,,,,,,,,,,,,,,,,,,,,,,,,,,,,,,,,,,,,,,,,,,,,,,,,,,,,,,,,,,,,
,,5e0e16d70db892559eb23487,2022-09-01_13h53.34.469,CGTgamblingSpanTasks,2022.2.1,MacIntel,60.0024001,,,,,,,,2.3442,,,,,,,,,,,,,,1,v,1.6558,0,1,3.8442,1.5,,,,,,3.395192929,0,4.251676631,,,,,,,,,,,,,0,25,25,7,1,0.023467153,0,,,,,,,,,,,,,,,,,,,,,,,,,,,,,,,,,,,,,,,,,,,,,,,,,,,,,,,,,,,,,,,,,,,,,,,,,,,,,,,,
,,5e0e16d70db892559eb23487,2022-09-01_13h53.34.469,CGTgamblingSpanTasks,2022.2.1,MacIntel,60.0024001,,,,,,,,2.3684,,,,,,,,,,,,,,2,n,1.6316,26.4985979,1,3.8684,1.5,,,,,,26.4985979,0,0.051324376,,,,,,,,,,,,,0,26,26,106,1,0.918747215,0,,,,,,,,,,,,,,,,,,,,,,,,,,,,,,,,,,,,,,,,,,,,,,,,,,,,,,,,,,,,,,,,,,,,,,,,,,,,,,,,
,,5e0e16d70db892559eb23487,2022-09-01_13h53.34.469,CGTgamblingSpanTasks,2022.2.1,MacIntel,60.0024001,,,,,,,,2.9094,,,,,,,,,,,,,,2,n,1.0906,29.77342428,1,3.9094,1,,,,,,29.77342428,0,2.838865588,,,,,,,,,,,,,0,27,27,57,1,0.510363415,1,,,,,,,,,,,,,,,,,,,,,,,,,,,,,,,,,,,,,,,,,,,,,,,,,,,,,,,,,,,,,,,,,,,,,,,,,,,,,,,,
,,5e0e16d70db892559eb23487,2022-09-01_13h53.34.469,CGTgamblingSpanTasks,2022.2.1,MacIntel,60.0024001,,,,,,,,2.6627,,,,,,,,,,,,,,1,v,1.3373,27.39221343,1,3.6627,1,,,,,,27.39221343,0,2.743407746,,,,,,,,,,,,,0,28,28,47,1,0.49752044,1,,,,,,,,,,,,,,,,,,,,,,,,,,,,,,,,,,,,,,,,,,,,,,,,,,,,,,,,,,,,,,,,,,,,,,,,,,,,,,,,
,,5e0e16d70db892559eb23487,2022-09-01_13h53.34.469,CGTgamblingSpanTasks,2022.2.1,MacIntel,60.0024001,,,,,,,,2.2989,,,,,,,,,,,,,,1,v,1.7011,0,1,3.2989,1,,,,,,23.4214135,0,2.485985001,,,,,,,,,,,,,0,29,29,81,1,0.482105905,1,,,,,,,,,,,,,,,,,,,,,,,,,,,,,,,,,,,,,,,,,,,,,,,,,,,,,,,,,,,,,,,,,,,,,,,,,,,,,,,,
,,5e0e16d70db892559eb23487,2022-09-01_13h53.34.469,CGTgamblingSpanTasks,2022.2.1,MacIntel,60.0024001,,,,,,,,2.5572,,,,,,,,,,,,,,1,v,1.4428,0,1,3.5572,1,,,,,,27.7711693,0,2.320849632,,,,,,,,,,,,,0,30,30,94,1,0.543786368,1,,,,,,,,,,,,,,,,,,,,,,,,,,,,,,,,,,,,,,,,,,,,,,,,,,,,,,,,,,,,,,,,,,,,,,,,,,,,,,,,
,,5e0e16d70db892559eb23487,2022-09-01_13h53.34.469,CGTgamblingSpanTasks,2022.2.1,MacIntel,60.0024001,,,,,,,,2.9487,,,,,,,,,,,,,,1,v,1.0513,0,1,4.4487,1.5,,,,,,25.76582409,0,2.393193076,,,,,,,,,,,,,0,31,31,46,1,0.517129855,1,,,,,,,,,,,,,,,,,,,,,,,,,,,,,,,,,,,,,,,,,,,,,,,,,,,,,,,,,,,,,,,,,,,,,,,,,,,,,,,,
,,5e0e16d70db892559eb23487,2022-09-01_13h53.34.469,CGTgamblingSpanTasks,2022.2.1,MacIntel,60.0024001,,,,,,,,0,,,,,,,,,,,,,,2,,,,,1.5,1.5,,,,,,15.43649625,0,1.65459324,,,,,,,,,,,,,0,32,32,33,1,0.479480163,1,,,,,,,,,,,,,,,,,,,,,,,,,,,,,,,,,,,,,,,,,,,,,,,,,,,,,,,,,,,,,,,,,,,,,,,,,,,,,,,,
,,5e0e16d70db892559eb23487,2022-09-01_13h53.34.469,CGTgamblingSpanTasks,2022.2.1,MacIntel,60.0024001,,,,,,,,0,,,,,,,,,,,,,,1,,,,,1.5,1.5,,,,,,17.30137174,0,1.716380842,,,,,,,,,,,,,0,33,33,20,1,0.500020285,1,,,,,,,,,,,,,,,,,,,,,,,,,,,,,,,,,,,,,,,,,,,,,,,,,,,,,,,,,,,,,,,,,,,,,,,,,,,,,,,,
,,5e0e16d70db892559eb23487,2022-09-01_13h53.34.469,CGTgamblingSpanTasks,2022.2.1,MacIntel,60.0024001,,,,,,,,0.7579,,,,,,,,,,,,,,1,v,3.2421,0,1,2.2579,1.5,,,,,,10.05300841,0,8.512335864,,,,,,,,,,,,,0,34,34,74,1,0.040729225,0,,,,,,,,,,,,,,,,,,,,,,,,,,,,,,,,,,,,,,,,,,,,,,,,,,,,,,,,,,,,,,,,,,,,,,,,,,,,,,,,
,,5e0e16d70db892559eb23487,2022-09-01_13h53.34.469,CGTgamblingSpanTasks,2022.2.1,MacIntel,60.0024001,,,,,,,,2.9051,,,,,,,,,,,,,,1,v,1.0949,19.30622782,1,4.4051,1.5,,,,,,19.30622782,0,10.31611309,,,,,,,,,,,,,0,35,35,1,1,0.091105656,0,,,,,,,,,,,,,,,,,,,,,,,,,,,,,,,,,,,,,,,,,,,,,,,,,,,,,,,,,,,,,,,,,,,,,,,,,,,,,,,,
,,5e0e16d70db892559eb23487,2022-09-01_13h53.34.469,CGTgamblingSpanTasks,2022.2.1,MacIntel,60.0024001,,,,,,,,3.2194,,,,,,,,,,,,,,2,n,0.7806,20.5726842,1,4.7194,1.5,,,,,,20.5726842,0,0.073558523,,,,,,,,,,,,,0,36,36,26,1,0.901008565,0,,,,,,,,,,,,,,,,,,,,,,,,,,,,,,,,,,,,,,,,,,,,,,,,,,,,,,,,,,,,,,,,,,,,,,,,,,,,,,,,
,,5e0e16d70db892559eb23487,2022-09-01_13h53.34.469,CGTgamblingSpanTasks,2022.2.1,MacIntel,60.0024001,,,,,,,,2.9705,,,,,,,,,,,,,,1,v,1.0295,28.94627214,1,4.4705,1.5,,,,,,28.94627214,0,2.701896413,,,,,,,,,,,,,0,37,37,111,1,0.515860759,1,,,,,,,,,,,,,,,,,,,,,,,,,,,,,,,,,,,,,,,,,,,,,,,,,,,,,,,,,,,,,,,,,,,,,,,,,,,,,,,,
,,5e0e16d70db892559eb23487,2022-09-01_13h53.34.469,CGTgamblingSpanTasks,2022.2.1,MacIntel,60.0024001,,,,,,,,3.2009,,,,,,,,,,,,,,2,v,0.7991,4.462262453,0,4.7009,1.5,,,,,,0.192759042,0,4.462262453,,,,,,,,,,,,,0,38,38,52,1,0.003553223,0,,,,,,,,,,,,,,,,,,,,,,,,,,,,,,,,,,,,,,,,,,,,,,,,,,,,,,,,,,,,,,,,,,,,,,,,,,,,,,,,
,,5e0e16d70db892559eb23487,2022-09-01_13h53.34.469,CGTgamblingSpanTasks,2022.2.1,MacIntel,60.0024001,,,,,,,,3.0011,,,,,,,,,,,,,,2,n,0.9989,23.0613391,1,4.0011,1,,,,,,23.0613391,0,2.387726776,,,,,,,,,,,,,0,39,39,69,1,0.488727763,1,,,,,,,,,,,,,,,,,,,,,,,,,,,,,,,,,,,,,,,,,,,,,,,,,,,,,,,,,,,,,,,,,,,,,,,,,,,,,,,,
,,5e0e16d70db892559eb23487,2022-09-01_13h53.34.469,CGTgamblingSpanTasks,2022.2.1,MacIntel,60.0024001,,,,,,,,3.0842,,,,,,,,,,,,,,2,n,0.9158,0,1,4.0842,1,,,,,,21.46599803,0,0.059789256,,,,,,,,,,,,,0,40,40,8,1,0.909019081,0,,,,,,,,,,,,,,,,,,,,,,,,,,,,,,,,,,,,,,,,,,,,,,,,,,,,,,,,,,,,,,,,,,,,,,,,,,,,,,,,
,,5e0e16d70db892559eb23487,2022-09-01_13h53.34.469,CGTgamblingSpanTasks,2022.2.1,MacIntel,60.0024001,,,,,,,,2.5992,,,,,,,,,,,,,,1,v,1.4008,26.16821818,1,4.0992,1.5,,,,,,26.16821818,0,0.093528069,,,,,,,,,,,,,0,41,41,42,1,0.901022427,0,,,,,,,,,,,,,,,,,,,,,,,,,,,,,,,,,,,,,,,,,,,,,,,,,,,,,,,,,,,,,,,,,,,,,,,,,,,,,,,,
,,5e0e16d70db892559eb23487,2022-09-01_13h53.34.469,CGTgamblingSpanTasks,2022.2.1,MacIntel,60.0024001,,,,,,,,3.2135,,,,,,,,,,,,,,1,v,0.7865,11.08143071,1,4.2135,1,,,,,,11.08143071,0,1.207538756,,,,,,,,,,,,,0,42,42,84,1,0.475047453,1,,,,,,,,,,,,,,,,,,,,,,,,,,,,,,,,,,,,,,,,,,,,,,,,,,,,,,,,,,,,,,,,,,,,,,,,,,,,,,,,
,,5e0e16d70db892559eb23487,2022-09-01_13h53.34.469,CGTgamblingSpanTasks,2022.2.1,MacIntel,60.0024001,,,,,,,,3.1625,,,,,,,,,,,,,,2,n,0.8375,27.76752685,1,4.1625,1,,,,,,27.76752685,0,0.083968035,,,,,,,,,,,,,0,43,43,13,1,0.906513967,0,,,,,,,,,,,,,,,,,,,,,,,,,,,,,,,,,,,,,,,,,,,,,,,,,,,,,,,,,,,,,,,,,,,,,,,,,,,,,,,,
,,5e0e16d70db892559eb23487,2022-09-01_13h53.34.469,CGTgamblingSpanTasks,2022.2.1,MacIntel,60.0024001,,,,,,,,3.1682,,,,,,,,,,,,,,2,n,0.8318,0,1,4.1682,1,,,,,,25.26994993,0,2.78925142,,,,,,,,,,,,,0,44,44,108,1,0.471582922,1,,,,,,,,,,,,,,,,,,,,,,,,,,,,,,,,,,,,,,,,,,,,,,,,,,,,,,,,,,,,,,,,,,,,,,,,,,,,,,,,
,,5e0e16d70db892559eb23487,2022-09-01_13h53.34.469,CGTgamblingSpanTasks,2022.2.1,MacIntel,60.0024001,,,,,,,,1.3988,,,,,,,,,,,,,,1,v,2.6012,8.670591867,1,2.8988,1.5,,,,,,8.670591867,0,1.025847652,,,,,,,,,,,,,0,45,45,18,1,0.452680459,1,,,,,,,,,,,,,,,,,,,,,,,,,,,,,,,,,,,,,,,,,,,,,,,,,,,,,,,,,,,,,,,,,,,,,,,,,,,,,,,,
,,5e0e16d70db892559eb23487,2022-09-01_13h53.34.469,CGTgamblingSpanTasks,2022.2.1,MacIntel,60.0024001,,,,,,,,3.2336,,,,,,,,,,,,,,2,n,0.7664,14.3363647,1,4.2336,1,,,,,,14.3363647,0,1.396635362,,,,,,,,,,,,,0,46,46,78,1,0.504775474,1,,,,,,,,,,,,,,,,,,,,,,,,,,,,,,,,,,,,,,,,,,,,,,,,,,,,,,,,,,,,,,,,,,,,,,,,,,,,,,,,
,,5e0e16d70db892559eb23487,2022-09-01_13h53.34.469,CGTgamblingSpanTasks,2022.2.1,MacIntel,60.0024001,,,,,,,,3.2631,,,,,,,,,,,,,,1,v,0.7369,0,1,4.7631,1.5,,,,,,22.86604061,0,2.293289792,,,,,,,,,,,,,0,47,47,51,1,0.49715382,1,,,,,,,,,,,,,,,,,,,,,,,,,,,,,,,,,,,,,,,,,,,,,,,,,,,,,,,,,,,,,,,,,,,,,,,,,,,,,,,,
,,5e0e16d70db892559eb23487,2022-09-01_13h53.34.469,CGTgamblingSpanTasks,2022.2.1,MacIntel,60.0024001,,,,,,,,3.2655,,,,,,,,,,,,,,2,n,0.7345,27.60724521,1,4.2655,1,,,,,,27.60724521,0,0.088432325,,,,,,,,,,,,,0,48,48,17,1,0.904684186,0,,,,,,,,,,,,,,,,,,,,,,,,,,,,,,,,,,,,,,,,,,,,,,,,,,,,,,,,,,,,,,,,,,,,,,,,,,,,,,,,
,,5e0e16d70db892559eb23487,2022-09-01_13h53.34.469,CGTgamblingSpanTasks,2022.2.1,MacIntel,60.0024001,,,,,,,,3.1313,,,,,,,,,,,,,,1,v,0.8687,0,1,4.1313,1,,,,,,28.18900855,0,0.05384276,,,,,,,,,,,,,0,49,49,55,1,0.919081308,0,,,,,,,,,,,,,,,,,,,,,,,,,,,,,,,,,,,,,,,,,,,,,,,,,,,,,,,,,,,,,,,,,,,,,,,,,,,,,,,,
,,5e0e16d70db892559eb23487,2022-09-01_13h53.34.469,CGTgamblingSpanTasks,2022.2.1,MacIntel,60.0024001,,,,,,,,3.1449,,,,,,,,,,,,,,1,n,0.8551,11.61882862,0,4.6449,1.5,,,,,,4.022743614,0,11.61882862,,,,,,,,,,,,,0,50,50,38,1,0.011499376,0,,,,,,,,,,,,,,,,,,,,,,,,,,,,,,,,,,,,,,,,,,,,,,,,,,,,,,,,,,,,,,,,,,,,,,,,,,,,,,,,
,,5e0e16d70db892559eb23487,2022-09-01_13h53.34.469,CGTgamblingSpanTasks,2022.2.1,MacIntel,60.0024001,,,,,,,,1.9995,,,,,,,,,,,,,,1,v,2.0005,26.11188619,1,2.9995,1,,,,,,26.11188619,0,0.081942421,,,,,,,,,,,,,0,51,51,105,1,0.905343856,0,,,,,,,,,,,,,,,,,,,,,,,,,,,,,,,,,,,,,,,,,,,,,,,,,,,,,,,,,,,,,,,,,,,,,,,,,,,,,,,,
,,5e0e16d70db892559eb23487,2022-09-01_13h53.34.469,CGTgamblingSpanTasks,2022.2.1,MacIntel,60.0024001,,,,,,,,3,,,,,,,,,,,,,,2,n,1,0,1,4,1,,,,,,22.0050376,0,2.257683666,,,,,,,,,,,,,0,52,52,4,1,0.491147312,1,,,,,,,,,,,,,,,,,,,,,,,,,,,,,,,,,,,,,,,,,,,,,,,,,,,,,,,,,,,,,,,,,,,,,,,,,,,,,,,,
,,5e0e16d70db892559eb23487,2022-09-01_13h53.34.469,CGTgamblingSpanTasks,2022.2.1,MacIntel,60.0024001,,,,,,,,3.3115,,,,,,,,,,,,,,1,n,0.6885,10.41201161,0,4.3115,1,,,,,,6.307062696,0,10.41201161,,,,,,,,,,,,,0,53,53,23,1,0.018187109,0,,,,,,,,,,,,,,,,,,,,,,,,,,,,,,,,,,,,,,,,,,,,,,,,,,,,,,,,,,,,,,,,,,,,,,,,,,,,,,,,
,,5e0e16d70db892559eb23487,2022-09-01_13h53.34.469,CGTgamblingSpanTasks,2022.2.1,MacIntel,60.0024001,,,,,,,,3.104,,,,,,,,,,,,,,2,n,0.896,0,1,4.104,1,,,,,,28.13634754,0,2.532806323,,,,,,,,,,,,,0,54,54,28,1,0.525136524,1,,,,,,,,,,,,,,,,,,,,,,,,,,,,,,,,,,,,,,,,,,,,,,,,,,,,,,,,,,,,,,,,,,,,,,,,,,,,,,,,
,,5e0e16d70db892559eb23487,2022-09-01_13h53.34.469,CGTgamblingSpanTasks,2022.2.1,MacIntel,60.0024001,,,,,,,,0,,,,,,,,,,,,,,2,,,,,1,1,,,,,,19.5450126,0,2.123581464,,,,,,,,,,,,,0,55,55,65,1,0.475836144,1,,,,,,,,,,,,,,,,,,,,,,,,,,,,,,,,,,,,,,,,,,,,,,,,,,,,,,,,,,,,,,,,,,,,,,,,,,,,,,,,
,,5e0e16d70db892559eb23487,2022-09-01_13h53.34.469,CGTgamblingSpanTasks,2022.2.1,MacIntel,60.0024001,,,,,,,,0,,,,,,,,,,,,,,1,,,,,1.5,1.5,,,,,,28.9381277,0,2.663622024,,,,,,,,,,,,,0,56,56,103,1,0.519453367,1,,,,,,,,,,,,,,,,,,,,,,,,,,,,,,,,,,,,,,,,,,,,,,,,,,,,,,,,,,,,,,,,,,,,,,,,,,,,,,,,
,,5e0e16d70db892559eb23487,2022-09-01_13h53.34.469,CGTgamblingSpanTasks,2022.2.1,MacIntel,60.0024001,,,,,,,,2.8171,,,,,,,,,,,,,,2,v,1.1829,6.833409611,0,4.3171,1.5,,,,,,6.325091157,0,6.833409611,,,,,,,,,,,,,0,57,57,58,1,0.027113638,0,,,,,,,,,,,,,,,,,,,,,,,,,,,,,,,,,,,,,,,,,,,,,,,,,,,,,,,,,,,,,,,,,,,,,,,,,,,,,,,,
,,5e0e16d70db892559eb23487,2022-09-01_13h53.34.469,CGTgamblingSpanTasks,2022.2.1,MacIntel,60.0024001,,,,,,,,3.1142,,,,,,,,,,,,,,2,n,0.8858,0,1,4.6142,1.5,,,,,,22.72923833,0,0.067170781,,,,,,,,,,,,,0,58,58,86,1,0.907226703,0,,,,,,,,,,,,,,,,,,,,,,,,,,,,,,,,,,,,,,,,,,,,,,,,,,,,,,,,,,,,,,,,,,,,,,,,,,,,,,,,
,,5e0e16d70db892559eb23487,2022-09-01_13h53.34.469,CGTgamblingSpanTasks,2022.2.1,MacIntel,60.0024001,,,,,,,,2.6791,,,,,,,,,,,,,,2,v,1.3209,5.683635938,0,4.1791,1.5,,,,,,4.941039335,0,5.683635938,,,,,,,,,,,,,0,59,59,9,1,0.025481984,0,,,,,,,,,,,,,,,,,,,,,,,,,,,,,,,,,,,,,,,,,,,,,,,,,,,,,,,,,,,,,,,,,,,,,,,,,,,,,,,,
,,5e0e16d70db892559eb23487,2022-09-01_13h53.34.469,CGTgamblingSpanTasks,2022.2.1,MacIntel,60.0024001,,,,,,,,3.2637,,,,,,,,,,,,,,2,v,0.7363,4.904872644,0,4.2637,1,,,,,,4.698775357,0,4.904872644,,,,,,,,,,,,,0,60,60,75,1,0.028064484,0,,,,,,,,,,,,,,,,,,,,,,,,,,,,,,,,,,,,,,,,,,,,,,,,,,,,,,,,,,,,,,,,,,,,,,,,,,,,,,,,
,,5e0e16d70db892559eb23487,2022-09-01_13h53.34.469,CGTgamblingSpanTasks,2022.2.1,MacIntel,60.0024001,,,,,,,,3.0489,,,,,,,,,,,,,,2,n,0.9511,28.14876717,1,4.0489,1,,,,,,28.14876717,0,3.117906378,,,,,,,,,,,,,0,61,61,76,1,0.470636736,1,,,,,,,,,,,,,,,,,,,,,,,,,,,,,,,,,,,,,,,,,,,,,,,,,,,,,,,,,,,,,,,,,,,,,,,,,,,,,,,,
,,5e0e16d70db892559eb23487,2022-09-01_13h53.34.469,CGTgamblingSpanTasks,2022.2.1,MacIntel,60.0024001,,,,,,,,3.1661,,,,,,,,,,,,,,2,n,0.8339,11.16819157,1,4.6661,1.5,,,,,,11.16819157,0,0.941456753,,,,,,,,,,,,,0,62,62,45,1,0.54163803,1,,,,,,,,,,,,,,,,,,,,,,,,,,,,,,,,,,,,,,,,,,,,,,,,,,,,,,,,,,,,,,,,,,,,,,,,,,,,,,,,
,,5e0e16d70db892559eb23487,2022-09-01_13h53.34.469,CGTgamblingSpanTasks,2022.2.1,MacIntel,60.0024001,,,,,,,,3.1481,,,,,,,,,,,,,,1,v,0.8519,0,1,4.1481,1,,,,,,27.57491653,0,2.99133314,,,,,,,,,,,,,0,63,63,10,1,0.47625893,1,,,,,,,,,,,,,,,,,,,,,,,,,,,,,,,,,,,,,,,,,,,,,,,,,,,,,,,,,,,,,,,,,,,,,,,,,,,,,,,,
,,5e0e16d70db892559eb23487,2022-09-01_13h53.34.469,CGTgamblingSpanTasks,2022.2.1,MacIntel,60.0024001,,,,,,,,2.9482,,,,,,,,,,,,,,1,v,1.0518,24.8002852,1,4.4482,1.5,,,,,,24.8002852,0,0.071848086,,,,,,,,,,,,,0,64,64,16,1,0.90783559,0,,,,,,,,,,,,,,,,,,,,,,,,,,,,,,,,,,,,,,,,,,,,,,,,,,,,,,,,,,,,,,,,,,,,,,,,,,,,,,,,
,,5e0e16d70db892559eb23487,2022-09-01_13h53.34.469,CGTgamblingSpanTasks,2022.2.1,MacIntel,60.0024001,,,,,,,,2.9842,,,,,,,,,,,,,,2,n,1.0158,17.5608285,1,3.9842,1,,,,,,17.5608285,0,1.825111303,,,,,,,,,,,,,0,65,65,104,1,0.487721116,1,,,,,,,,,,,,,,,,,,,,,,,,,,,,,,,,,,,,,,,,,,,,,,,,,,,,,,,,,,,,,,,,,,,,,,,,,,,,,,,,
,,5e0e16d70db892559eb23487,2022-09-01_13h53.34.469,CGTgamblingSpanTasks,2022.2.1,MacIntel,60.0024001,,,,,,,,3.2992,,,,,,,,,,,,,,2,n,0.7008,19.36415485,1,4.2992,1,,,,,,19.36415485,0,1.966229494,,,,,,,,,,,,,0,66,66,96,1,0.493893111,1,,,,,,,,,,,,,,,,,,,,,,,,,,,,,,,,,,,,,,,,,,,,,,,,,,,,,,,,,,,,,,,,,,,,,,,,,,,,,,,,
,,5e0e16d70db892559eb23487,2022-09-01_13h53.34.469,CGTgamblingSpanTasks,2022.2.1,MacIntel,60.0024001,,,,,,,,2.615,,,,,,,,,,,,,,1,v,1.385,18.20422443,1,4.115,1.5,,,,,,18.20422443,0,1.635040165,,,,,,,,,,,,,0,67,67,82,1,0.525708991,1,,,,,,,,,,,,,,,,,,,,,,,,,,,,,,,,,,,,,,,,,,,,,,,,,,,,,,,,,,,,,,,,,,,,,,,,,,,,,,,,
,,5e0e16d70db892559eb23487,2022-09-01_13h53.34.469,CGTgamblingSpanTasks,2022.2.1,MacIntel,60.0024001,,,,,,,,3.4594,,,,,,,,,,,,,,1,v,0.5406,0,1,4.4594,1,,,,,,21.7711579,0,2.502728921,,,,,,,,,,,,,0,68,68,101,1,0.460552621,1,,,,,,,,,,,,,,,,,,,,,,,,,,,,,,,,,,,,,,,,,,,,,,,,,,,,,,,,,,,,,,,,,,,,,,,,,,,,,,,,
,,5e0e16d70db892559eb23487,2022-09-01_13h53.34.469,CGTgamblingSpanTasks,2022.2.1,MacIntel,60.0024001,,,,,,,,3.2807,,,,,,,,,,,,,,1,v,0.7193,18.51345298,1,4.2807,1,,,,,,18.51345298,0,1.932334278,,,,,,,,,,,,,0,69,69,31,1,0.48658696,1,,,,,,,,,,,,,,,,,,,,,,,,,,,,,,,,,,,,,,,,,,,,,,,,,,,,,,,,,,,,,,,,,,,,,,,,,,,,,,,,
,,5e0e16d70db892559eb23487,2022-09-01_13h53.34.469,CGTgamblingSpanTasks,2022.2.1,MacIntel,60.0024001,,,,,,,,3.1303,,,,,,,,,,,,,,2,v,0.8697,11.35147481,0,4.6303,1.5,,,,,,17.67865084,0,11.35147481,,,,,,,,,,,,,0,70,70,91,1,0.067304606,0,,,,,,,,,,,,,,,,,,,,,,,,,,,,,,,,,,,,,,,,,,,,,,,,,,,,,,,,,,,,,,,,,,,,,,,,,,,,,,,,
,,5e0e16d70db892559eb23487,2022-09-01_13h53.34.469,CGTgamblingSpanTasks,2022.2.1,MacIntel,60.0024001,,,,,,,,3.3502,,,,,,,,,,,,,,1,v,0.6498,0,1,4.8502,1.5,,,,,,27.53810185,0,0.097022401,,,,,,,,,,,,,0,71,71,50,1,0.901515865,0,,,,,,,,,,,,,,,,,,,,,,,,,,,,,,,,,,,,,,,,,,,,,,,,,,,,,,,,,,,,,,,,,,,,,,,,,,,,,,,,
,,5e0e16d70db892559eb23487,2022-09-01_13h53.34.469,CGTgamblingSpanTasks,2022.2.1,MacIntel,60.0024001,,,,,,,,3.0674,,,,,,,,,,,,,,2,n,0.9326,27.38828234,1,4.5674,1.5,,,,,,27.38828234,0,0.0639233,,,,,,,,,,,,,0,72,72,43,1,0.914010176,0,,,,,,,,,,,,,,,,,,,,,,,,,,,,,,,,,,,,,,,,,,,,,,,,,,,,,,,,,,,,,,,,,,,,,,,,,,,,,,,,
,,5e0e16d70db892559eb23487,2022-09-01_13h53.34.469,CGTgamblingSpanTasks,2022.2.1,MacIntel,60.0024001,,,,,,,,3.429,,,,,,,,,,,,,,1,v,0.571,18.50662664,1,4.429,1,,,,,,18.50662664,0,0.052546026,,,,,,,,,,,,,0,73,73,112,1,0.908444837,0,,,,,,,,,,,,,,,,,,,,,,,,,,,,,,,,,,,,,,,,,,,,,,,,,,,,,,,,,,,,,,,,,,,,,,,,,,,,,,,,
,,5e0e16d70db892559eb23487,2022-09-01_13h53.34.469,CGTgamblingSpanTasks,2022.2.1,MacIntel,60.0024001,,,,,,,,2.6952,,,,,,,,,,,,,,1,v,1.3048,23.59556381,1,4.1952,1.5,,,,,,23.59556381,0,2.464662219,,,,,,,,,,,,,0,74,74,22,1,0.486383205,1,,,,,,,,,,,,,,,,,,,,,,,,,,,,,,,,,,,,,,,,,,,,,,,,,,,,,,,,,,,,,,,,,,,,,,,,,,,,,,,,
,,5e0e16d70db892559eb23487,2022-09-01_13h53.34.469,CGTgamblingSpanTasks,2022.2.1,MacIntel,60.0024001,,,,,,,,3.3852,,,,,,,,,,,,,,1,v,0.6148,0,1,4.8852,1.5,,,,,,29.76099779,0,0.095763086,,,,,,,,,,,,,0,75,75,35,1,0.904537896,0,,,,,,,,,,,,,,,,,,,,,,,,,,,,,,,,,,,,,,,,,,,,,,,,,,,,,,,,,,,,,,,,,,,,,,,,,,,,,,,,
,,5e0e16d70db892559eb23487,2022-09-01_13h53.34.469,CGTgamblingSpanTasks,2022.2.1,MacIntel,60.0024001,,,,,,,,2.9667,,,,,,,,,,,,,,2,n,1.0333,26.36733703,1,3.9667,1,,,,,,26.36733703,0,2.201057101,,,,,,,,,,,,,0,76,76,90,1,0.544064207,1,,,,,,,,,,,,,,,,,,,,,,,,,,,,,,,,,,,,,,,,,,,,,,,,,,,,,,,,,,,,,,,,,,,,,,,,,,,,,,,,
,,5e0e16d70db892559eb23487,2022-09-01_13h53.34.469,CGTgamblingSpanTasks,2022.2.1,MacIntel,60.0024001,,,,,,,,3.0961,,,,,,,,,,,,,,1,n,0.9039,5.526483034,0,4.5961,1.5,,,,,,9.725876653,0,5.526483034,,,,,,,,,,,,,0,77,77,44,1,0.082550696,0,,,,,,,,,,,,,,,,,,,,,,,,,,,,,,,,,,,,,,,,,,,,,,,,,,,,,,,,,,,,,,,,,,,,,,,,,,,,,,,,
,,5e0e16d70db892559eb23487,2022-09-01_13h53.34.469,CGTgamblingSpanTasks,2022.2.1,MacIntel,60.0024001,,,,,,,,3.3486,,,,,,,,,,,,,,1,v,0.6514,0,1,4.8486,1.5,,,,,,29.75778644,0,2.810531415,,,,,,,,,,,,,0,78,78,113,1,0.512824233,1,,,,,,,,,,,,,,,,,,,,,,,,,,,,,,,,,,,,,,,,,,,,,,,,,,,,,,,,,,,,,,,,,,,,,,,,,,,,,,,,
,,5e0e16d70db892559eb23487,2022-09-01_13h53.34.469,CGTgamblingSpanTasks,2022.2.1,MacIntel,60.0024001,,,,,,,,2.8349,,,,,,,,,,,,,,2,n,1.1651,0,1,3.8349,1,,,,,,14.11762686,0,8.579385201,,,,,,,,,,,,,0,79,79,60,1,0.073886959,0,,,,,,,,,,,,,,,,,,,,,,,,,,,,,,,,,,,,,,,,,,,,,,,,,,,,,,,,,,,,,,,,,,,,,,,,,,,,,,,,
,,5e0e16d70db892559eb23487,2022-09-01_13h53.34.469,CGTgamblingSpanTasks,2022.2.1,MacIntel,60.0024001,,,,,,,,3.0301,,,,,,,,,,,,,,1,v,0.9699,27.12325385,1,4.0301,1,,,,,,27.12325385,0,0.080932047,,,,,,,,,,,,,0,80,80,14,1,0.906929184,0,,,,,,,,,,,,,,,,,,,,,,,,,,,,,,,,,,,,,,,,,,,,,,,,,,,,,,,,,,,,,,,,,,,,,,,,,,,,,,,,
,,5e0e16d70db892559eb23487,2022-09-01_13h53.34.469,CGTgamblingSpanTasks,2022.2.1,MacIntel,60.0024001,,,,,,,,2.9847,,,,,,,,,,,,,,2,n,1.0153,0,1,4.4847,1.5,,,,,,13.4287264,0,1.317368801,,,,,,,,,,,,,0,81,81,100,1,0.502953125,1,,,,,,,,,,,,,,,,,,,,,,,,,,,,,,,,,,,,,,,,,,,,,,,,,,,,,,,,,,,,,,,,,,,,,,,,,,,,,,,,
,,5e0e16d70db892559eb23487,2022-09-01_13h53.34.469,CGTgamblingSpanTasks,2022.2.1,MacIntel,60.0024001,,,,,,,,3.2148,,,,,,,,,,,,,,1,v,0.7852,0,1,4.7148,1.5,,,,,,21.2188881,0,2.067660742,,,,,,,,,,,,,0,82,82,107,1,0.50470775,1,,,,,,,,,,,,,,,,,,,,,,,,,,,,,,,,,,,,,,,,,,,,,,,,,,,,,,,,,,,,,,,,,,,,,,,,,,,,,,,,
,,5e0e16d70db892559eb23487,2022-09-01_13h53.34.469,CGTgamblingSpanTasks,2022.2.1,MacIntel,60.0024001,,,,,,,,3.3838,,,,,,,,,,,,,,1,v,0.6162,0,1,4.3838,1,,,,,,23.24777057,0,2.003482335,,,,,,,,,,,,,0,83,83,59,1,0.536135174,1,,,,,,,,,,,,,,,,,,,,,,,,,,,,,,,,,,,,,,,,,,,,,,,,,,,,,,,,,,,,,,,,,,,,,,,,,,,,,,,,
,,5e0e16d70db892559eb23487,2022-09-01_13h53.34.469,CGTgamblingSpanTasks,2022.2.1,MacIntel,60.0024001,,,,,,,,3.0152,,,,,,,,,,,,,,2,n,0.9848,27.4965044,1,4.5152,1.5,,,,,,27.4965044,0,2.461467004,,,,,,,,,,,,,0,84,84,36,1,0.526550878,1,,,,,,,,,,,,,,,,,,,,,,,,,,,,,,,,,,,,,,,,,,,,,,,,,,,,,,,,,,,,,,,,,,,,,,,,,,,,,,,,
,,5e0e16d70db892559eb23487,2022-09-01_13h53.34.469,CGTgamblingSpanTasks,2022.2.1,MacIntel,60.0024001,,,,,,,,2.9968,,,,,,,,,,,,,,2,n,1.0032,15.87668502,1,3.9968,1,,,,,,15.87668502,0,8.42547829,,,,,,,,,,,,,0,85,85,56,1,0.092099462,0,,,,,,,,,,,,,,,,,,,,,,,,,,,,,,,,,,,,,,,,,,,,,,,,,,,,,,,,,,,,,,,,,,,,,,,,,,,,,,,,
,,5e0e16d70db892559eb23487,2022-09-01_13h53.34.469,CGTgamblingSpanTasks,2022.2.1,MacIntel,60.0024001,,,,,,,,2.8008,,,,,,,,,,,,,,2,n,1.1992,0,1,3.8008,1,,,,,,28.33977875,0,2.768313633,,,,,,,,,,,,,0,86,86,116,1,0.50406901,1,,,,,,,,,,,,,,,,,,,,,,,,,,,,,,,,,,,,,,,,,,,,,,,,,,,,,,,,,,,,,,,,,,,,,,,,,,,,,,,,
,,5e0e16d70db892559eb23487,2022-09-01_13h53.34.469,CGTgamblingSpanTasks,2022.2.1,MacIntel,60.0024001,,,,,,,,3.0643,,,,,,,,,,,,,,2,v,0.9357,7.50753835,0,4.5643,1.5,,,,,,2.231316635,0,7.50753835,,,,,,,,,,,,,0,87,87,29,1,0.010273427,0,,,,,,,,,,,,,,,,,,,,,,,,,,,,,,,,,,,,,,,,,,,,,,,,,,,,,,,,,,,,,,,,,,,,,,,,,,,,,,,,
,,5e0e16d70db892559eb23487,2022-09-01_13h53.34.469,CGTgamblingSpanTasks,2022.2.1,MacIntel,60.0024001,,,,,,,,3.084,,,,,,,,,,,,,,1,n,0.916,7.646213173,0,4.084,1,,,,,,2.042350179,0,7.646213173,,,,,,,,,,,,,0,88,88,53,1,0.009522273,0,,,,,,,,,,,,,,,,,,,,,,,,,,,,,,,,,,,,,,,,,,,,,,,,,,,,,,,,,,,,,,,,,,,,,,,,,,,,,,,,
,,5e0e16d70db892559eb23487,2022-09-01_13h53.34.469,CGTgamblingSpanTasks,2022.2.1,MacIntel,60.0024001,,,,,,,,3.2305,,,,,,,,,,,,,,1,n,0.7695,7.850775577,0,4.7305,1.5,,,,,,4.622707531,0,7.850775577,,,,,,,,,,,,,0,89,89,6,1,0.017737407,0,,,,,,,,,,,,,,,,,,,,,,,,,,,,,,,,,,,,,,,,,,,,,,,,,,,,,,,,,,,,,,,,,,,,,,,,,,,,,,,,
,,5e0e16d70db892559eb23487,2022-09-01_13h53.34.469,CGTgamblingSpanTasks,2022.2.1,MacIntel,60.0024001,,,,,,,,3.1126,,,,,,,,,,,,,,1,v,0.8874,0,1,4.1126,1,,,,,,7.534278541,0,0.747140182,,,,,,,,,,,,,0,90,90,37,1,0.50012466,1,,,,,,,,,,,,,,,,,,,,,,,,,,,,,,,,,,,,,,,,,,,,,,,,,,,,,,,,,,,,,,,,,,,,,,,,,,,,,,,,
,,5e0e16d70db892559eb23487,2022-09-01_13h53.34.469,CGTgamblingSpanTasks,2022.2.1,MacIntel,60.0024001,,,,,,,,2.7132,,,,,,,,,,,,,,2,n,1.2868,0,1,3.7132,1,,,,,,21.00799273,0,0.067969053,,,,,,,,,,,,,0,91,91,92,1,0.904360262,0,,,,,,,,,,,,,,,,,,,,,,,,,,,,,,,,,,,,,,,,,,,,,,,,,,,,,,,,,,,,,,,,,,,,,,,,,,,,,,,,
,,5e0e16d70db892559eb23487,2022-09-01_13h53.34.469,CGTgamblingSpanTasks,2022.2.1,MacIntel,60.0024001,,,,,,,,2.9627,,,,,,,,,,,,,,2,n,1.0373,0,1,4.4627,1.5,,,,,,21.48443242,0,2.229247341,,,,,,,,,,,,,0,92,92,63,1,0.488155912,1,,,,,,,,,,,,,,,,,,,,,,,,,,,,,,,,,,,,,,,,,,,,,,,,,,,,,,,,,,,,,,,,,,,,,,,,,,,,,,,,
,,5e0e16d70db892559eb23487,2022-09-01_13h53.34.469,CGTgamblingSpanTasks,2022.2.1,MacIntel,60.0024001,,,,,,,,3.3252,,,,,,,,,,,,,,2,n,0.6748,0,1,4.3252,1,,,,,,28.68598705,0,0.050674956,,,,,,,,,,,,,0,93,93,62,1,0.920905497,0,,,,,,,,,,,,,,,,,,,,,,,,,,,,,,,,,,,,,,,,,,,,,,,,,,,,,,,,,,,,,,,,,,,,,,,,,,,,,,,,
,,5e0e16d70db892559eb23487,2022-09-01_13h53.34.469,CGTgamblingSpanTasks,2022.2.1,MacIntel,60.0024001,,,,,,,,3.09,,,,,,,,,,,,,,1,v,0.91,0,1,4.59,1.5,,,,,,17.4320197,0,1.448620949,,,,,,,,,,,,,0,94,94,30,1,0.545178213,1,,,,,,,,,,,,,,,,,,,,,,,,,,,,,,,,,,,,,,,,,,,,,,,,,,,,,,,,,,,,,,,,,,,,,,,,,,,,,,,,
,,5e0e16d70db892559eb23487,2022-09-01_13h53.34.469,CGTgamblingSpanTasks,2022.2.1,MacIntel,60.0024001,,,,,,,,3.163,,,,,,,,,,,,,,1,n,0.837,3.877530383,0,4.163,1,,,,,,3.471484939,0,3.877530383,,,,,,,,,,,,,0,95,95,40,1,0.02623078,0,,,,,,,,,,,,,,,,,,,,,,,,,,,,,,,,,,,,,,,,,,,,,,,,,,,,,,,,,,,,,,,,,,,,,,,,,,,,,,,,
,,5e0e16d70db892559eb23487,2022-09-01_13h53.34.469,CGTgamblingSpanTasks,2022.2.1,MacIntel,60.0024001,,,,,,,,3.2663,,,,,,,,,,,,,,2,n,0.7337,20.31034258,1,4.2663,1,,,,,,20.31034258,0,1.870404296,,,,,,,,,,,,,0,96,96,85,1,0.519325853,1,,,,,,,,,,,,,,,,,,,,,,,,,,,,,,,,,,,,,,,,,,,,,,,,,,,,,,,,,,,,,,,,,,,,,,,,,,,,,,,,
,,5e0e16d70db892559eb23487,2022-09-01_13h53.34.469,CGTgamblingSpanTasks,2022.2.1,MacIntel,60.0024001,,,,,,,,3.0799,,,,,,,,,,,,,,1,v,0.9201,0,1,4.0799,1,,,,,,13.96521039,0,1.591282699,,,,,,,,,,,,,0,97,97,49,1,0.462956344,1,,,,,,,,,,,,,,,,,,,,,,,,,,,,,,,,,,,,,,,,,,,,,,,,,,,,,,,,,,,,,,,,,,,,,,,,,,,,,,,,
,,5e0e16d70db892559eb23487,2022-09-01_13h53.34.469,CGTgamblingSpanTasks,2022.2.1,MacIntel,60.0024001,,,,,,,,3.1817,,,,,,,,,,,,,,1,v,0.8183,15.13999312,1,4.1817,1,,,,,,15.13999312,0,8.653432553,,,,,,,,,,,,,0,98,98,54,1,0.081767484,0,,,,,,,,,,,,,,,,,,,,,,,,,,,,,,,,,,,,,,,,,,,,,,,,,,,,,,,,,,,,,,,,,,,,,,,,,,,,,,,,
,,5e0e16d70db892559eb23487,2022-09-01_13h53.34.469,CGTgamblingSpanTasks,2022.2.1,MacIntel,60.0024001,,,,,,,,3.1834,,,,,,,,,,,,,,1,n,0.8166,11.93550497,0,4.6834,1.5,,,,,,14.20587264,0,11.93550497,,,,,,,,,,,,,0,99,99,21,1,0.041340301,0,,,,,,,,,,,,,,,,,,,,,,,,,,,,,,,,,,,,,,,,,,,,,,,,,,,,,,,,,,,,,,,,,,,,,,,,,,,,,,,,
,,5e0e16d70db892559eb23487,2022-09-01_13h53.34.469,CGTgamblingSpanTasks,2022.2.1,MacIntel,60.0024001,,,,,,,,3.2492,,,,,,,,,,,,,,1,v,0.7508,0,1,4.2492,1,,,,,,21.16780451,0,2.469465385,,,,,,,,,,,,,0,100,100,32,1,0.456531699,1,,,,,,,,,,,,,,,,,,,,,,,,,,,,,,,,,,,,,,,,,,,,,,,,,,,,,,,,,,,,,,,,,,,,,,,,,,,,,,,,
,,5e0e16d70db892559eb23487,2022-09-01_13h53.34.469,CGTgamblingSpanTasks,2022.2.1,MacIntel,60.0024001,,,,,,,,3.0772,,,,,,,,,,,,,,2,v,0.9228,6.091504705,0,4.5772,1.5,,,,,,6.662965216,0,6.091504705,,,,,,,,,,,,,0,101,101,102,1,0.035087099,0,,,,,,,,,,,,,,,,,,,,,,,,,,,,,,,,,,,,,,,,,,,,,,,,,,,,,,,,,,,,,,,,,,,,,,,,,,,,,,,,
,,5e0e16d70db892559eb23487,2022-09-01_13h53.34.469,CGTgamblingSpanTasks,2022.2.1,MacIntel,60.0024001,,,,,,,,3.1934,,,,,,,,,,,,,,1,v,0.8066,0,1,4.1934,1,,,,,,27.88092897,0,2.771762788,,,,,,,,,,,,,0,102,102,117,1,0.499466648,1,,,,,,,,,,,,,,,,,,,,,,,,,,,,,,,,,,,,,,,,,,,,,,,,,,,,,,,,,,,,,,,,,,,,,,,,,,,,,,,,
,,5e0e16d70db892559eb23487,2022-09-01_13h53.34.469,CGTgamblingSpanTasks,2022.2.1,MacIntel,60.0024001,,,,,,,,3.0476,,,,,,,,,,,,,,1,v,0.9524,22.62475578,1,4.5476,1.5,,,,,,22.62475578,0,2.397643354,,,,,,,,,,,,,0,103,103,93,1,0.482527609,1,,,,,,,,,,,,,,,,,,,,,,,,,,,,,,,,,,,,,,,,,,,,,,,,,,,,,,,,,,,,,,,,,,,,,,,,,,,,,,,,
,,5e0e16d70db892559eb23487,2022-09-01_13h53.34.469,CGTgamblingSpanTasks,2022.2.1,MacIntel,60.0024001,,,,,,,,3.2125,,,,,,,,,,,,,,2,n,0.7875,0,1,4.2125,1,,,,,,27.37527992,0,2.860319095,,,,,,,,,,,,,0,104,104,39,1,0.486304156,1,,,,,,,,,,,,,,,,,,,,,,,,,,,,,,,,,,,,,,,,,,,,,,,,,,,,,,,,,,,,,,,,,,,,,,,,,,,,,,,,
,,5e0e16d70db892559eb23487,2022-09-01_13h53.34.469,CGTgamblingSpanTasks,2022.2.1,MacIntel,60.0024001,,,,,,,,3.2973,,,,,,,,,,,,,,1,v,0.7027,13.84410806,1,4.7973,1.5,,,,,,13.84410806,0,1.535873964,,,,,,,,,,,,,0,105,105,88,1,0.470209002,1,,,,,,,,,,,,,,,,,,,,,,,,,,,,,,,,,,,,,,,,,,,,,,,,,,,,,,,,,,,,,,,,,,,,,,,,,,,,,,,,
,,5e0e16d70db892559eb23487,2022-09-01_13h53.34.469,CGTgamblingSpanTasks,2022.2.1,MacIntel,60.0024001,,,,,,,,3.4306,,,,,,,,,,,,,,2,n,0.5694,25.0707644,1,4.4306,1,,,,,,25.0707644,0,0.067651625,,,,,,,,,,,,,0,106,106,70,1,0.909952349,0,,,,,,,,,,,,,,,,,,,,,,,,,,,,,,,,,,,,,,,,,,,,,,,,,,,,,,,,,,,,,,,,,,,,,,,,,,,,,,,,
,,5e0e16d70db892559eb23487,2022-09-01_13h53.34.469,CGTgamblingSpanTasks,2022.2.1,MacIntel,60.0024001,,,,,,,,3.164,,,,,,,,,,,,,,2,n,0.836,28.9323758,1,4.164,1,,,,,,28.9323758,0,2.893007023,,,,,,,,,,,,,0,107,107,11,1,0.497943321,1,,,,,,,,,,,,,,,,,,,,,,,,,,,,,,,,,,,,,,,,,,,,,,,,,,,,,,,,,,,,,,,,,,,,,,,,,,,,,,,,
,,5e0e16d70db892559eb23487,2022-09-01_13h53.34.469,CGTgamblingSpanTasks,2022.2.1,MacIntel,60.0024001,,,,,,,,3.3675,,,,,,,,,,,,,,2,n,0.6325,0,1,4.3675,1,,,,,,17.92584289,0,1.878232496,,,,,,,,,,,,,0,108,108,5,1,0.485559263,1,,,,,,,,,,,,,,,,,,,,,,,,,,,,,,,,,,,,,,,,,,,,,,,,,,,,,,,,,,,,,,,,,,,,,,,,,,,,,,,,
,,5e0e16d70db892559eb23487,2022-09-01_13h53.34.469,CGTgamblingSpanTasks,2022.2.1,MacIntel,60.0024001,,,,,,,,3.3203,,,,,,,,,,,,,,2,n,0.6797,22.25959835,1,4.3203,1,,,,,,22.25959835,0,0.065383587,,,,,,,,,,,,,0,109,109,97,1,0.907413875,0,,,,,,,,,,,,,,,,,,,,,,,,,,,,,,,,,,,,,,,,,,,,,,,,,,,,,,,,,,,,,,,,,,,,,,,,,,,,,,,,
,,5e0e16d70db892559eb23487,2022-09-01_13h53.34.469,CGTgamblingSpanTasks,2022.2.1,MacIntel,60.0024001,,,,,,,,3.0003,,,,,,,,,,,,,,1,n,0.9997,11.6744431,0,4.5003,1.5,,,,,,10.43004651,0,11.6744431,,,,,,,,,,,,,0,110,110,15,1,0.026176489,0,,,,,,,,,,,,,,,,,,,,,,,,,,,,,,,,,,,,,,,,,,,,,,,,,,,,,,,,,,,,,,,,,,,,,,,,,,,,,,,,
,,5e0e16d70db892559eb23487,2022-09-01_13h53.34.469,CGTgamblingSpanTasks,2022.2.1,MacIntel,60.0024001,,,,,,,,2.7326,,,,,,,,,,,,,,1,v,1.2674,0,1,4.2326,1.5,,,,,,27.94544945,0,2.32030209,,,,,,,,,,,,,0,111,111,115,1,0.545390564,1,,,,,,,,,,,,,,,,,,,,,,,,,,,,,,,,,,,,,,,,,,,,,,,,,,,,,,,,,,,,,,,,,,,,,,,,,,,,,,,,
,,5e0e16d70db892559eb23487,2022-09-01_13h53.34.469,CGTgamblingSpanTasks,2022.2.1,MacIntel,60.0024001,,,,,,,,3.3766,,,,,,,,,,,,,,2,n,0.6234,0,1,4.8766,1.5,,,,,,22.87092517,0,0.059276504,,,,,,,,,,,,,0,112,112,27,1,0.911114935,0,,,,,,,,,,,,,,,,,,,,,,,,,,,,,,,,,,,,,,,,,,,,,,,,,,,,,,,,,,,,,,,,,,,,,,,,,,,,,,,,
,,5e0e16d70db892559eb23487,2022-09-01_13h53.34.469,CGTgamblingSpanTasks,2022.2.1,MacIntel,60.0024001,,,,,,,,3.3414,,,,,,,,,,,,,,1,v,0.6586,21.39646914,1,4.3414,1,,,,,,21.39646914,0,0.072474078,,,,,,,,,,,,,0,113,113,3,1,0.902848133,0,,,,,,,,,,,,,,,,,,,,,,,,,,,,,,,,,,,,,,,,,,,,,,,,,,,,,,,,,,,,,,,,,,,,,,,,,,,,,,,,
,,5e0e16d70db892559eb23487,2022-09-01_13h53.34.469,CGTgamblingSpanTasks,2022.2.1,MacIntel,60.0024001,,,,,,,,2.5516,,,,,,,,,,,,,,1,v,1.4484,0,1,4.0516,1.5,,,,,,17.23907308,0,2.055848574,,,,,,,,,,,,,0,114,114,66,1,0.450504458,1,,,,,,,,,,,,,,,,,,,,,,,,,,,,,,,,,,,,,,,,,,,,,,,,,,,,,,,,,,,,,,,,,,,,,,,,,,,,,,,,
,,5e0e16d70db892559eb23487,2022-09-01_13h53.34.469,CGTgamblingSpanTasks,2022.2.1,MacIntel,60.0024001,,,,,,,,2.7325,,,,,,,,,,,,,,2,n,1.2675,0,1,4.2325,1.5,,,,,,25.56803059,0,2.543951743,,,,,,,,,,,,,0,115,115,41,1,0.499247217,1,,,,,,,,,,,,,,,,,,,,,,,,,,,,,,,,,,,,,,,,,,,,,,,,,,,,,,,,,,,,,,,,,,,,,,,,,,,,,,,,
,,5e0e16d70db892559eb23487,2022-09-01_13h53.34.469,CGTgamblingSpanTasks,2022.2.1,MacIntel,60.0024001,,,,,,,,3.2835,,,,,,,,,,,,,,2,v,0.7165,11.41737518,0,4.7835,1.5,,,,,,18.11029021,0,11.41737518,,,,,,,,,,,,,0,116,116,48,1,0.069445859,0,,,,,,,,,,,,,,,,,,,,,,,,,,,,,,,,,,,,,,,,,,,,,,,,,,,,,,,,,,,,,,,,,,,,,,,,,,,,,,,,
,,5e0e16d70db892559eb23487,2022-09-01_13h53.34.469,CGTgamblingSpanTasks,2022.2.1,MacIntel,60.0024001,,,,,,,,3.3474,,,,,,,,,,,,,,2,n,0.6526,25.21882231,1,4.8474,1.5,,,,,,25.21882231,0,0.085746782,,,,,,,,,,,,,0,117,117,64,1,0.90272076,0,,,,,,,,,,,,,,,,,,,,,,,,,,,,,,,,,,,,,,,,,,,,,,,,,,,,,,,,,,,,,,,,,,,,,,,,,,,,,,,,
,,5e0e16d70db892559eb23487,2022-09-01_13h53.34.469,CGTgamblingSpanTasks,2022.2.1,MacIntel,60.0024001,,,,,,,,3.0626,,,,,,,,,,,,,,2,v,0.9374,10.68505773,0,4.0626,1,,,,,,17.64114152,0,10.68505773,,,,,,,,,,,,,0,118,118,98,1,0.074299362,0,,,,,,,,,,,,,,,,,,,,,,,,,,,,,,,,,,,,,,,,,,,,,,,,,,,,,,,,,,,,,,,,,,,,,,,,,,,,,,,,
,,5e0e16d70db892559eb23487,2022-09-01_13h53.34.469,CGTgamblingSpanTasks,2022.2.1,MacIntel,60.0024001,,,,,,,,3.1002,,,,,,,,,,,,,,2,n,0.8998,15.73000491,1,4.1002,1,,,,,,15.73000491,0,8.830252162,,,,,,,,,,,,,0,119,119,95,1,0.084193143,0,,,,,,,,,,,,,,,,,,,,,,,,,,,,,,,,,,,,,,,,,,,,,,,,,,,,,,,,,,,,,,,,,,,,,,,,,,,,,,,,
,,5e0e16d70db892559eb23487,2022-09-01_13h53.34.469,CGTgamblingSpanTasks,2022.2.1,MacIntel,60.0024001,,,,,,,,,,,,,,,,,,,,,,,,,,,,,,,,,,,,,,,,,,,,,,,,,,,,,,,,return,34.2418,,,,,,,,,,,,,,,,,,,,,,,,,,,,,,,,,,,,,,,,,,,,,,,,,,,,,,,,,,,,,,,,,,,,,,,,,,,,,,
,,5e0e16d70db892559eb23487,2022-09-01_13h53.34.469,CGTgamblingSpanTasks,2022.2.1,MacIntel,60.0024001,,,,,,,,,,,,,,,,,,,,,,,,,,,,,,,,,,,,,,,,,,,,,,,,,,,,,,,,,,return,15.6171,,,,,,,,,,,,,,,,,,,,,,,,,,,,,,,,,,,,,,,,,,,,,,,,,,,,,,,,,,,,,,,,,,,,,,,,,,,,
,,5e0e16d70db892559eb23487,2022-09-01_13h53.34.469,CGTgamblingSpanTasks,2022.2.1,MacIntel,60.0024001,,,,,,,,,,,,,,,,,,,,,,,,,,,,,,,,,,,,,,,,,,,,,,,,,,,,,,,,,,,,return,20.9269,,,,,,,,,,,,,,,,,,,,,,,,,,,,,,,,,,,,,,,,,,,,,,,,,,,,,,,,,,,,,,,,,,,,,,,,,,
,,5e0e16d70db892559eb23487,2022-09-01_13h53.34.469,CGTgamblingSpanTasks,2022.2.1,MacIntel,60.0024001,,,,,,,,,,,,,,,,,,,,,,,,,,,,,,,,,,,,,,,,,,,,,,,,,,,,,,,,,,,,,,342,1,0.105488979,-0.410479794,1,0,0,cont_buttonPractice,0,0,0,0,1,3,342,24,2,42,,,,,,,,,,,,,,,,,,,,,,,,,,,,,,,,,,,,,,,,,,,,,,,,,,,,,,,,
,,5e0e16d70db892559eb23487,2022-09-01_13h53.34.469,CGTgamblingSpanTasks,2022.2.1,MacIntel,60.0024001,,,,,,,,,,,,,,,,,,,,,,,,,,,,,,,,,,,,,,,,,,,,,,,,,,,,,,,,,,,,,,937,1,0.04573777,-0.417083915,1,0,0,cont_buttonPractice,0,1,1,1,1,3,937,73,2,37,,,,,,,,,,,,,,,,,,,,,,,,,,,,,,,,,,,,,,,,,,,,,,,,,,,,,,,,
,,5e0e16d70db892559eb23487,2022-09-01_13h53.34.469,CGTgamblingSpanTasks,2022.2.1,MacIntel,60.0024001,,,,,,,,,,,,,,,,,,,,,,,,,,,,,,,,,,,,,,,,,,,,,,,,,,,,,,,,,,,,,,,,,,,,,,,,,,,,,,,,return,8.418,,,,,,,,,,,,,,,,,,,,,,,,,,,,,,,,,,,,,,,,,,,,,,,,,,,,,,
,,5e0e16d70db892559eb23487,2022-09-01_13h53.34.469,CGTgamblingSpanTasks,2022.2.1,MacIntel,60.0024001,,,,,,,,,,,,,,,,,,,,,,,,,,,,,,,,,,,,,,,,,,,,,,,,,,,,,,,,,,,,,,,,,,,,,,,,,,,,,,,,,,"[5,3,2]",0,0,0,0,1,,,,,,,,,,,,,,,,,,,,,,,,,,,,,,,,,,,,,,,,,,,,,,,,
,,5e0e16d70db892559eb23487,2022-09-01_13h53.34.469,CGTgamblingSpanTasks,2022.2.1,MacIntel,60.0024001,,,,,,,,,,,,,,,,,,,,,,,,,,,,,,,,,,,,,,,,,,,,,,,,,,,,,,,,,,,,,,,,,,,,,,,,,,,,,,,,,,"[5,3,2]",1,0,1,0,1,,,,,,,,,,,,,,,,,,,,,,,,,,,,,,,,,,,,,,,,,,,,,,,,
,,5e0e16d70db892559eb23487,2022-09-01_13h53.34.469,CGTgamblingSpanTasks,2022.2.1,MacIntel,60.0024001,,,,,,,,,,,,,,,,,,,,,,,,,,,,,,,,,,,,,,,,,,,,,,,,,,,,,,,,,,,,,,,,,,,,,,,,,,,,,,,,,,"[5,3,2]",2,0,2,0,1,,,,,,,,,,,,,,,,,,,,,,,,,,,,,,,,,,,,,,,,,,,,,,,,
,,5e0e16d70db892559eb23487,2022-09-01_13h53.34.469,CGTgamblingSpanTasks,2022.2.1,MacIntel,60.0024001,,,,,,,,,,,,,,,,,,,,,,,,,,,,,,,,,,,,,,,,,,,,,,,,,,,,,,,,,,,,,,,1,,,,,,,,,,,,,,,,,,,,,,,,,532,-0.008225911,-0.395609189,1,0,0,cont_button,0,0,0,0,1,1,,,,,,,,,,,,,,,,,,,,,,,,,,,,,,,,,,,
,,5e0e16d70db892559eb23487,2022-09-01_13h53.34.469,CGTgamblingSpanTasks,2022.2.1,MacIntel,60.0024001,,,,,,,,,,,,,,,,,,,,,,,,,,,,,,,,,,,,,,,,,,,,,,,,,,,,,,,,,,,,,,,,,,,,,,,,,,,,,,,,,,"[4,8,3,7]",0,0,0,0,1,,,,,,,,,,,,,,,,,,,,,,,,,,,,,,,,,,,,,,,,,,,,,,,,
,,5e0e16d70db892559eb23487,2022-09-01_13h53.34.469,CGTgamblingSpanTasks,2022.2.1,MacIntel,60.0024001,,,,,,,,,,,,,,,,,,,,,,,,,,,,,,,,,,,,,,,,,,,,,,,,,,,,,,,,,,,,,,,,,,,,,,,,,,,,,,,,,,"[4,8,3,7]",1,0,1,0,1,,,,,,,,,,,,,,,,,,,,,,,,,,,,,,,,,,,,,,,,,,,,,,,,
,,5e0e16d70db892559eb23487,2022-09-01_13h53.34.469,CGTgamblingSpanTasks,2022.2.1,MacIntel,60.0024001,,,,,,,,,,,,,,,,,,,,,,,,,,,,,,,,,,,,,,,,,,,,,,,,,,,,,,,,,,,,,,,,,,,,,,,,,,,,,,,,,,"[4,8,3,7]",2,0,2,0,1,,,,,,,,,,,,,,,,,,,,,,,,,,,,,,,,,,,,,,,,,,,,,,,,
,,5e0e16d70db892559eb23487,2022-09-01_13h53.34.469,CGTgamblingSpanTasks,2022.2.1,MacIntel,60.0024001,,,,,,,,,,,,,,,,,,,,,,,,,,,,,,,,,,,,,,,,,,,,,,,,,,,,,,,,,,,,,,,,,,,,,,,,,,,,,,,,,,"[4,8,3,7]",3,0,3,0,1,,,,,,,,,,,,,,,,,,,,,,,,,,,,,,,,,,,,,,,,,,,,,,,,
,,5e0e16d70db892559eb23487,2022-09-01_13h53.34.469,CGTgamblingSpanTasks,2022.2.1,MacIntel,60.0024001,,,,,,,,,,,,,,,,,,,,,,,,,,,,,,,,,,,,,,,,,,,,,,,,,,,,,,,,,,,,,,,1,,,,,,,,,,,,,,,,,,,,,,,,,4837,0.051832159,-0.41053182,1,0,0,cont_button,0,1,1,1,1,2,,,,,,,,,,,,,,,,,,,,,,,,,,,,,,,,,,,
,,5e0e16d70db892559eb23487,2022-09-01_13h53.34.469,CGTgamblingSpanTasks,2022.2.1,MacIntel,60.0024001,,,,,,,,,,,,,,,,,,,,,,,,,,,,,,,,,,,,,,,,,,,,,,,,,,,,,,,,,,,,,,,,,,,,,,,,,,,,,,,,,,"[8,3,6,1,7]",0,0,0,0,1,,,,,,,,,,,,,,,,,,,,,,,,,,,,,,,,,,,,,,,,,,,,,,,,
,,5e0e16d70db892559eb23487,2022-09-01_13h53.34.469,CGTgamblingSpanTasks,2022.2.1,MacIntel,60.0024001,,,,,,,,,,,,,,,,,,,,,,,,,,,,,,,,,,,,,,,,,,,,,,,,,,,,,,,,,,,,,,,,,,,,,,,,,,,,,,,,,,"[8,3,6,1,7]",1,0,1,0,1,,,,,,,,,,,,,,,,,,,,,,,,,,,,,,,,,,,,,,,,,,,,,,,,
,,5e0e16d70db892559eb23487,2022-09-01_13h53.34.469,CGTgamblingSpanTasks,2022.2.1,MacIntel,60.0024001,,,,,,,,,,,,,,,,,,,,,,,,,,,,,,,,,,,,,,,,,,,,,,,,,,,,,,,,,,,,,,,,,,,,,,,,,,,,,,,,,,"[8,3,6,1,7]",2,0,2,0,1,,,,,,,,,,,,,,,,,,,,,,,,,,,,,,,,,,,,,,,,,,,,,,,,
,,5e0e16d70db892559eb23487,2022-09-01_13h53.34.469,CGTgamblingSpanTasks,2022.2.1,MacIntel,60.0024001,,,,,,,,,,,,,,,,,,,,,,,,,,,,,,,,,,,,,,,,,,,,,,,,,,,,,,,,,,,,,,,,,,,,,,,,,,,,,,,,,,"[8,3,6,1,7]",3,0,3,0,1,,,,,,,,,,,,,,,,,,,,,,,,,,,,,,,,,,,,,,,,,,,,,,,,
,,5e0e16d70db892559eb23487,2022-09-01_13h53.34.469,CGTgamblingSpanTasks,2022.2.1,MacIntel,60.0024001,,,,,,,,,,,,,,,,,,,,,,,,,,,,,,,,,,,,,,,,,,,,,,,,,,,,,,,,,,,,,,,,,,,,,,,,,,,,,,,,,,"[8,3,6,1,7]",4,0,4,0,1,,,,,,,,,,,,,,,,,,,,,,,,,,,,,,,,,,,,,,,,,,,,,,,,
,,5e0e16d70db892559eb23487,2022-09-01_13h53.34.469,CGTgamblingSpanTasks,2022.2.1,MacIntel,60.0024001,,,,,,,,,,,,,,,,,,,,,,,,,,,,,,,,,,,,,,,,,,,,,,,,,,,,,,,,,,,,,,,1,,,,,,,,,,,,,,,,,,,,,,,,,83617,0.061178385,-0.414918387,1,0,0,cont_button,0,2,2,2,1,3,,,,,,,,,,,,,,,,,,,,,,,,,,,,,,,,,,,
,,5e0e16d70db892559eb23487,2022-09-01_13h53.34.469,CGTgamblingSpanTasks,2022.2.1,MacIntel,60.0024001,,,,,,,,,,,,,,,,,,,,,,,,,,,,,,,,,,,,,,,,,,,,,,,,,,,,,,,,,,,,,,,,,,,,,,,,,,,,,,,,,,"[5,1,2,7,8,6]",0,0,0,0,1,,,,,,,,,,,,,,,,,,,,,,,,,,,,,,,,,,,,,,,,,,,,,,,,
,,5e0e16d70db892559eb23487,2022-09-01_13h53.34.469,CGTgamblingSpanTasks,2022.2.1,MacIntel,60.0024001,,,,,,,,,,,,,,,,,,,,,,,,,,,,,,,,,,,,,,,,,,,,,,,,,,,,,,,,,,,,,,,,,,,,,,,,,,,,,,,,,,"[5,1,2,7,8,6]",1,0,1,0,1,,,,,,,,,,,,,,,,,,,,,,,,,,,,,,,,,,,,,,,,,,,,,,,,
,,5e0e16d70db892559eb23487,2022-09-01_13h53.34.469,CGTgamblingSpanTasks,2022.2.1,MacIntel,60.0024001,,,,,,,,,,,,,,,,,,,,,,,,,,,,,,,,,,,,,,,,,,,,,,,,,,,,,,,,,,,,,,,,,,,,,,,,,,,,,,,,,,"[5,1,2,7,8,6]",2,0,2,0,1,,,,,,,,,,,,,,,,,,,,,,,,,,,,,,,,,,,,,,,,,,,,,,,,
,,5e0e16d70db892559eb23487,2022-09-01_13h53.34.469,CGTgamblingSpanTasks,2022.2.1,MacIntel,60.0024001,,,,,,,,,,,,,,,,,,,,,,,,,,,,,,,,,,,,,,,,,,,,,,,,,,,,,,,,,,,,,,,,,,,,,,,,,,,,,,,,,,"[5,1,2,7,8,6]",3,0,3,0,1,,,,,,,,,,,,,,,,,,,,,,,,,,,,,,,,,,,,,,,,,,,,,,,,
,,5e0e16d70db892559eb23487,2022-09-01_13h53.34.469,CGTgamblingSpanTasks,2022.2.1,MacIntel,60.0024001,,,,,,,,,,,,,,,,,,,,,,,,,,,,,,,,,,,,,,,,,,,,,,,,,,,,,,,,,,,,,,,,,,,,,,,,,,,,,,,,,,"[5,1,2,7,8,6]",4,0,4,0,1,,,,,,,,,,,,,,,,,,,,,,,,,,,,,,,,,,,,,,,,,,,,,,,,
,,5e0e16d70db892559eb23487,2022-09-01_13h53.34.469,CGTgamblingSpanTasks,2022.2.1,MacIntel,60.0024001,,,,,,,,,,,,,,,,,,,,,,,,,,,,,,,,,,,,,,,,,,,,,,,,,,,,,,,,,,,,,,,,,,,,,,,,,,,,,,,,,,"[5,1,2,7,8,6]",5,0,5,0,1,,,,,,,,,,,,,,,,,,,,,,,,,,,,,,,,,,,,,,,,,,,,,,,,
,,5e0e16d70db892559eb23487,2022-09-01_13h53.34.469,CGTgamblingSpanTasks,2022.2.1,MacIntel,60.0024001,,,,,,,,,,,,,,,,,,,,,,,,,,,,,,,,,,,,,,,,,,,,,,,,,,,,,,,,,,,,,,,1,,,,,,,,,,,,,,,,,,,,,,,,,512786,0.048836496,-0.411610631,1,0,0,cont_button,0,3,3,3,1,4,,,,,,,,,,,,,,,,,,,,,,,,,,,,,,,,,,,
,,5e0e16d70db892559eb23487,2022-09-01_13h53.34.469,CGTgamblingSpanTasks,2022.2.1,MacIntel,60.0024001,,,,,,,,,,,,,,,,,,,,,,,,,,,,,,,,,,,,,,,,,,,,,,,,,,,,,,,,,,,,,,,,,,,,,,,,,,,,,,,,,,"[8,7,2,4,6,1,3]",0,0,0,0,1,,,,,,,,,,,,,,,,,,,,,,,,,,,,,,,,,,,,,,,,,,,,,,,,
,,5e0e16d70db892559eb23487,2022-09-01_13h53.34.469,CGTgamblingSpanTasks,2022.2.1,MacIntel,60.0024001,,,,,,,,,,,,,,,,,,,,,,,,,,,,,,,,,,,,,,,,,,,,,,,,,,,,,,,,,,,,,,,,,,,,,,,,,,,,,,,,,,"[8,7,2,4,6,1,3]",1,0,1,0,1,,,,,,,,,,,,,,,,,,,,,,,,,,,,,,,,,,,,,,,,,,,,,,,,
,,5e0e16d70db892559eb23487,2022-09-01_13h53.34.469,CGTgamblingSpanTasks,2022.2.1,MacIntel,60.0024001,,,,,,,,,,,,,,,,,,,,,,,,,,,,,,,,,,,,,,,,,,,,,,,,,,,,,,,,,,,,,,,,,,,,,,,,,,,,,,,,,,"[8,7,2,4,6,1,3]",2,0,2,0,1,,,,,,,,,,,,,,,,,,,,,,,,,,,,,,,,,,,,,,,,,,,,,,,,
,,5e0e16d70db892559eb23487,2022-09-01_13h53.34.469,CGTgamblingSpanTasks,2022.2.1,MacIntel,60.0024001,,,,,,,,,,,,,,,,,,,,,,,,,,,,,,,,,,,,,,,,,,,,,,,,,,,,,,,,,,,,,,,,,,,,,,,,,,,,,,,,,,"[8,7,2,4,6,1,3]",3,0,3,0,1,,,,,,,,,,,,,,,,,,,,,,,,,,,,,,,,,,,,,,,,,,,,,,,,
,,5e0e16d70db892559eb23487,2022-09-01_13h53.34.469,CGTgamblingSpanTasks,2022.2.1,MacIntel,60.0024001,,,,,,,,,,,,,,,,,,,,,,,,,,,,,,,,,,,,,,,,,,,,,,,,,,,,,,,,,,,,,,,,,,,,,,,,,,,,,,,,,,"[8,7,2,4,6,1,3]",4,0,4,0,1,,,,,,,,,,,,,,,,,,,,,,,,,,,,,,,,,,,,,,,,,,,,,,,,
,,5e0e16d70db892559eb23487,2022-09-01_13h53.34.469,CGTgamblingSpanTasks,2022.2.1,MacIntel,60.0024001,,,,,,,,,,,,,,,,,,,,,,,,,,,,,,,,,,,,,,,,,,,,,,,,,,,,,,,,,,,,,,,,,,,,,,,,,,,,,,,,,,"[8,7,2,4,6,1,3]",5,0,5,0,1,,,,,,,,,,,,,,,,,,,,,,,,,,,,,,,,,,,,,,,,,,,,,,,,
,,5e0e16d70db892559eb23487,2022-09-01_13h53.34.469,CGTgamblingSpanTasks,2022.2.1,MacIntel,60.0024001,,,,,,,,,,,,,,,,,,,,,,,,,,,,,,,,,,,,,,,,,,,,,,,,,,,,,,,,,,,,,,,,,,,,,,,,,,,,,,,,,,"[8,7,2,4,6,1,3]",6,0,6,0,1,,,,,,,,,,,,,,,,,,,,,,,,,,,,,,,,,,,,,,,,,,,,,,,,
,,5e0e16d70db892559eb23487,2022-09-01_13h53.34.469,CGTgamblingSpanTasks,2022.2.1,MacIntel,60.0024001,,,,,,,,,,,,,,,,,,,,,,,,,,,,,,,,,,,,,,,,,,,,,,,,,,,,,,,,,,,,,,,1,,,,,,,,,,,,,,,,,,,,,,,,,8724613,0.040956101,-0.38936849,1,0,0,cont_button,0,4,4,4,1,5,,,,,,,,,,,,,,,,,,,,,,,,,,,,,,,,,,,
,,5e0e16d70db892559eb23487,2022-09-01_13h53.34.469,CGTgamblingSpanTasks,2022.2.1,MacIntel,60.0024001,,,,,,,,,,,,,,,,,,,,,,,,,,,,,,,,,,,,,,,,,,,,,,,,,,,,,,,,,,,,,,,,,,,,,,,,,,,,,,,,,,"[9,6,2,3,5,7,4,1]",0,0,0,0,1,,,,,,,,,,,,,,,,,,,,,,,,,,,,,,,,,,,,,,,,,,,,,,,,
,,5e0e16d70db892559eb23487,2022-09-01_13h53.34.469,CGTgamblingSpanTasks,2022.2.1,MacIntel,60.0024001,,,,,,,,,,,,,,,,,,,,,,,,,,,,,,,,,,,,,,,,,,,,,,,,,,,,,,,,,,,,,,,,,,,,,,,,,,,,,,,,,,"[9,6,2,3,5,7,4,1]",1,0,1,0,1,,,,,,,,,,,,,,,,,,,,,,,,,,,,,,,,,,,,,,,,,,,,,,,,
,,5e0e16d70db892559eb23487,2022-09-01_13h53.34.469,CGTgamblingSpanTasks,2022.2.1,MacIntel,60.0024001,,,,,,,,,,,,,,,,,,,,,,,,,,,,,,,,,,,,,,,,,,,,,,,,,,,,,,,,,,,,,,,,,,,,,,,,,,,,,,,,,,"[9,6,2,3,5,7,4,1]",2,0,2,0,1,,,,,,,,,,,,,,,,,,,,,,,,,,,,,,,,,,,,,,,,,,,,,,,,
,,5e0e16d70db892559eb23487,2022-09-01_13h53.34.469,CGTgamblingSpanTasks,2022.2.1,MacIntel,60.0024001,,,,,,,,,,,,,,,,,,,,,,,,,,,,,,,,,,,,,,,,,,,,,,,,,,,,,,,,,,,,,,,,,,,,,,,,,,,,,,,,,,"[9,6,2,3,5,7,4,1]",3,0,3,0,1,,,,,,,,,,,,,,,,,,,,,,,,,,,,,,,,,,,,,,,,,,,,,,,,
,,5e0e16d70db892559eb23487,2022-09-01_13h53.34.469,CGTgamblingSpanTasks,2022.2.1,MacIntel,60.0024001,,,,,,,,,,,,,,,,,,,,,,,,,,,,,,,,,,,,,,,,,,,,,,,,,,,,,,,,,,,,,,,,,,,,,,,,,,,,,,,,,,"[9,6,2,3,5,7,4,1]",4,0,4,0,1,,,,,,,,,,,,,,,,,,,,,,,,,,,,,,,,,,,,,,,,,,,,,,,,
,,5e0e16d70db892559eb23487,2022-09-01_13h53.34.469,CGTgamblingSpanTasks,2022.2.1,MacIntel,60.0024001,,,,,,,,,,,,,,,,,,,,,,,,,,,,,,,,,,,,,,,,,,,,,,,,,,,,,,,,,,,,,,,,,,,,,,,,,,,,,,,,,,"[9,6,2,3,5,7,4,1]",5,0,5,0,1,,,,,,,,,,,,,,,,,,,,,,,,,,,,,,,,,,,,,,,,,,,,,,,,
,,5e0e16d70db892559eb23487,2022-09-01_13h53.34.469,CGTgamblingSpanTasks,2022.2.1,MacIntel,60.0024001,,,,,,,,,,,,,,,,,,,,,,,,,,,,,,,,,,,,,,,,,,,,,,,,,,,,,,,,,,,,,,,,,,,,,,,,,,,,,,,,,,"[9,6,2,3,5,7,4,1]",6,0,6,0,1,,,,,,,,,,,,,,,,,,,,,,,,,,,,,,,,,,,,,,,,,,,,,,,,
,,5e0e16d70db892559eb23487,2022-09-01_13h53.34.469,CGTgamblingSpanTasks,2022.2.1,MacIntel,60.0024001,,,,,,,,,,,,,,,,,,,,,,,,,,,,,,,,,,,,,,,,,,,,,,,,,,,,,,,,,,,,,,,,,,,,,,,,,,,,,,,,,,"[9,6,2,3,5,7,4,1]",7,0,7,0,1,,,,,,,,,,,,,,,,,,,,,,,,,,,,,,,,,,,,,,,,,,,,,,,,
,,5e0e16d70db892559eb23487,2022-09-01_13h53.34.469,CGTgamblingSpanTasks,2022.2.1,MacIntel,60.0024001,,,,,,,,,,,,,,,,,,,,,,,,,,,,,,,,,,,,,,,,,,,,,,,,,,,,,,,,,,,,,,,1,,,,,,,,,,,,,,,,,,,,,,,,,96235741,0.02606736,-0.375973075,1,0,0,cont_button,0,5,5,5,1,6,,,,,,,,,,,,,,,,,,,,,,,,,,,,,,,,,,,
,,5e0e16d70db892559eb23487,2022-09-01_13h53.34.469,CGTgamblingSpanTasks,2022.2.1,MacIntel,60.0024001,,,,,,,,,,,,,,,,,,,,,,,,,,,,,,,,,,,,,,,,,,,,,,,,,,,,,,,,,,,,,,,,,,,,,,,,,,,,,,,,,,"[1,5,2,7,3,6,9,4,8]",0,0,0,0,1,,,,,,,,,,,,,,,,,,,,,,,,,,,,,,,,,,,,,,,,,,,,,,,,
,,5e0e16d70db892559eb23487,2022-09-01_13h53.34.469,CGTgamblingSpanTasks,2022.2.1,MacIntel,60.0024001,,,,,,,,,,,,,,,,,,,,,,,,,,,,,,,,,,,,,,,,,,,,,,,,,,,,,,,,,,,,,,,,,,,,,,,,,,,,,,,,,,"[1,5,2,7,3,6,9,4,8]",1,0,1,0,1,,,,,,,,,,,,,,,,,,,,,,,,,,,,,,,,,,,,,,,,,,,,,,,,
,,5e0e16d70db892559eb23487,2022-09-01_13h53.34.469,CGTgamblingSpanTasks,2022.2.1,MacIntel,60.0024001,,,,,,,,,,,,,,,,,,,,,,,,,,,,,,,,,,,,,,,,,,,,,,,,,,,,,,,,,,,,,,,,,,,,,,,,,,,,,,,,,,"[1,5,2,7,3,6,9,4,8]",2,0,2,0,1,,,,,,,,,,,,,,,,,,,,,,,,,,,,,,,,,,,,,,,,,,,,,,,,
,,5e0e16d70db892559eb23487,2022-09-01_13h53.34.469,CGTgamblingSpanTasks,2022.2.1,MacIntel,60.0024001,,,,,,,,,,,,,,,,,,,,,,,,,,,,,,,,,,,,,,,,,,,,,,,,,,,,,,,,,,,,,,,,,,,,,,,,,,,,,,,,,,"[1,5,2,7,3,6,9,4,8]",3,0,3,0,1,,,,,,,,,,,,,,,,,,,,,,,,,,,,,,,,,,,,,,,,,,,,,,,,
,,5e0e16d70db892559eb23487,2022-09-01_13h53.34.469,CGTgamblingSpanTasks,2022.2.1,MacIntel,60.0024001,,,,,,,,,,,,,,,,,,,,,,,,,,,,,,,,,,,,,,,,,,,,,,,,,,,,,,,,,,,,,,,,,,,,,,,,,,,,,,,,,,"[1,5,2,7,3,6,9,4,8]",4,0,4,0,1,,,,,,,,,,,,,,,,,,,,,,,,,,,,,,,,,,,,,,,,,,,,,,,,
,,5e0e16d70db892559eb23487,2022-09-01_13h53.34.469,CGTgamblingSpanTasks,2022.2.1,MacIntel,60.0024001,,,,,,,,,,,,,,,,,,,,,,,,,,,,,,,,,,,,,,,,,,,,,,,,,,,,,,,,,,,,,,,,,,,,,,,,,,,,,,,,,,"[1,5,2,7,3,6,9,4,8]",5,0,5,0,1,,,,,,,,,,,,,,,,,,,,,,,,,,,,,,,,,,,,,,,,,,,,,,,,
,,5e0e16d70db892559eb23487,2022-09-01_13h53.34.469,CGTgamblingSpanTasks,2022.2.1,MacIntel,60.0024001,,,,,,,,,,,,,,,,,,,,,,,,,,,,,,,,,,,,,,,,,,,,,,,,,,,,,,,,,,,,,,,,,,,,,,,,,,,,,,,,,,"[1,5,2,7,3,6,9,4,8]",6,0,6,0,1,,,,,,,,,,,,,,,,,,,,,,,,,,,,,,,,,,,,,,,,,,,,,,,,
,,5e0e16d70db892559eb23487,2022-09-01_13h53.34.469,CGTgamblingSpanTasks,2022.2.1,MacIntel,60.0024001,,,,,,,,,,,,,,,,,,,,,,,,,,,,,,,,,,,,,,,,,,,,,,,,,,,,,,,,,,,,,,,,,,,,,,,,,,,,,,,,,,"[1,5,2,7,3,6,9,4,8]",7,0,7,0,1,,,,,,,,,,,,,,,,,,,,,,,,,,,,,,,,,,,,,,,,,,,,,,,,
,,5e0e16d70db892559eb23487,2022-09-01_13h53.34.469,CGTgamblingSpanTasks,2022.2.1,MacIntel,60.0024001,,,,,,,,,,,,,,,,,,,,,,,,,,,,,,,,,,,,,,,,,,,,,,,,,,,,,,,,,,,,,,,,,,,,,,,,,,,,,,,,,,"[1,5,2,7,3,6,9,4,8]",8,0,8,0,1,,,,,,,,,,,,,,,,,,,,,,,,,,,,,,,,,,,,,,,,,,,,,,,,
,,5e0e16d70db892559eb23487,2022-09-01_13h53.34.469,CGTgamblingSpanTasks,2022.2.1,MacIntel,60.0024001,,,,,,,,,,,,,,,,,,,,,,,,,,,,,,,,,,,,,,,,,,,,,,,,,,,,,,,,,,,,,,,0,,,,,,,,,,,,,,,,,,,,,,,,,15273648,0.036444034,-0.401796177,1,0,0,cont_button,0,6,6,6,1,7,,,,,,,,,,,,,,,,,,,,,,,,,,,,,,,,,,,
,,5e0e16d70db892559eb23487,2022-09-01_13h53.34.469,CGTgamblingSpanTasks,2022.2.1,MacIntel,60.0024001,,,,,,,,,,,,,,,,,,,,,,,,,,,,,,,,,,,,,,,,,,,,,,,,,,,,,,,,,,,,,,,,,,,,,,,,,,,,,,,,,,"[7,9,1,3,5,4,8,6,2]",0,0,0,0,1,,,,,,,,,,,,,,,,,,,,,,,,,,,,,,,,,,,,,,,,,,,,,,,,
,,5e0e16d70db892559eb23487,2022-09-01_13h53.34.469,CGTgamblingSpanTasks,2022.2.1,MacIntel,60.0024001,,,,,,,,,,,,,,,,,,,,,,,,,,,,,,,,,,,,,,,,,,,,,,,,,,,,,,,,,,,,,,,,,,,,,,,,,,,,,,,,,,"[7,9,1,3,5,4,8,6,2]",1,0,1,0,1,,,,,,,,,,,,,,,,,,,,,,,,,,,,,,,,,,,,,,,,,,,,,,,,
,,5e0e16d70db892559eb23487,2022-09-01_13h53.34.469,CGTgamblingSpanTasks,2022.2.1,MacIntel,60.0024001,,,,,,,,,,,,,,,,,,,,,,,,,,,,,,,,,,,,,,,,,,,,,,,,,,,,,,,,,,,,,,,,,,,,,,,,,,,,,,,,,,"[7,9,1,3,5,4,8,6,2]",2,0,2,0,1,,,,,,,,,,,,,,,,,,,,,,,,,,,,,,,,,,,,,,,,,,,,,,,,
,,5e0e16d70db892559eb23487,2022-09-01_13h53.34.469,CGTgamblingSpanTasks,2022.2.1,MacIntel,60.0024001,,,,,,,,,,,,,,,,,,,,,,,,,,,,,,,,,,,,,,,,,,,,,,,,,,,,,,,,,,,,,,,,,,,,,,,,,,,,,,,,,,"[7,9,1,3,5,4,8,6,2]",3,0,3,0,1,,,,,,,,,,,,,,,,,,,,,,,,,,,,,,,,,,,,,,,,,,,,,,,,
,,5e0e16d70db892559eb23487,2022-09-01_13h53.34.469,CGTgamblingSpanTasks,2022.2.1,MacIntel,60.0024001,,,,,,,,,,,,,,,,,,,,,,,,,,,,,,,,,,,,,,,,,,,,,,,,,,,,,,,,,,,,,,,,,,,,,,,,,,,,,,,,,,"[7,9,1,3,5,4,8,6,2]",4,0,4,0,1,,,,,,,,,,,,,,,,,,,,,,,,,,,,,,,,,,,,,,,,,,,,,,,,
,,5e0e16d70db892559eb23487,2022-09-01_13h53.34.469,CGTgamblingSpanTasks,2022.2.1,MacIntel,60.0024001,,,,,,,,,,,,,,,,,,,,,,,,,,,,,,,,,,,,,,,,,,,,,,,,,,,,,,,,,,,,,,,,,,,,,,,,,,,,,,,,,,"[7,9,1,3,5,4,8,6,2]",5,0,5,0,1,,,,,,,,,,,,,,,,,,,,,,,,,,,,,,,,,,,,,,,,,,,,,,,,
,,5e0e16d70db892559eb23487,2022-09-01_13h53.34.469,CGTgamblingSpanTasks,2022.2.1,MacIntel,60.0024001,,,,,,,,,,,,,,,,,,,,,,,,,,,,,,,,,,,,,,,,,,,,,,,,,,,,,,,,,,,,,,,,,,,,,,,,,,,,,,,,,,"[7,9,1,3,5,4,8,6,2]",6,0,6,0,1,,,,,,,,,,,,,,,,,,,,,,,,,,,,,,,,,,,,,,,,,,,,,,,,
,,5e0e16d70db892559eb23487,2022-09-01_13h53.34.469,CGTgamblingSpanTasks,2022.2.1,MacIntel,60.0024001,,,,,,,,,,,,,,,,,,,,,,,,,,,,,,,,,,,,,,,,,,,,,,,,,,,,,,,,,,,,,,,,,,,,,,,,,,,,,,,,,,"[7,9,1,3,5,4,8,6,2]",7,0,7,0,1,,,,,,,,,,,,,,,,,,,,,,,,,,,,,,,,,,,,,,,,,,,,,,,,
,,5e0e16d70db892559eb23487,2022-09-01_13h53.34.469,CGTgamblingSpanTasks,2022.2.1,MacIntel,60.0024001,,,,,,,,,,,,,,,,,,,,,,,,,,,,,,,,,,,,,,,,,,,,,,,,,,,,,,,,,,,,,,,,,,,,,,,,,,,,,,,,,,"[7,9,1,3,5,4,8,6,2]",8,0,8,0,1,,,,,,,,,,,,,,,,,,,,,,,,,,,,,,,,,,,,,,,,,,,,,,,,
,,5e0e16d70db892559eb23487,2022-09-01_13h53.34.469,CGTgamblingSpanTasks,2022.2.1,MacIntel,60.0024001,,,,,,,,,,,,,,,,,,,,,,,,,,,,,,,,,,,,,,,,,,,,,,,,,,,,,,,,,,,,,,,0,,,,,,,,,,,,,,,,,,,,,,,,,7153948,0.045395915,-0.40335641,1,0,0,cont_button,0,7,7,7,1,8,,,,,,,,,,,,,,,,,,,,,,,,,,,,,,,,,,,
,,5e0e16d70db892559eb23487,2022-09-01_13h53.34.469,CGTgamblingSpanTasks,2022.2.1,MacIntel,60.0024001,,,,,,,,,,,,,,,,,,,,,,,,,,,,,,,,,,,,,,,,,,,,,,,,,,,,,,,,,,,,,,,,,,,,,,,,,,,,,,,,,,"[2,9,1,4,3,7,5,6]",0,0,0,0,1,,,,,,,,,,,,,,,,,,,,,,,,,,,,,,,,,,,,,,,,,,,,,,,,
,,5e0e16d70db892559eb23487,2022-09-01_13h53.34.469,CGTgamblingSpanTasks,2022.2.1,MacIntel,60.0024001,,,,,,,,,,,,,,,,,,,,,,,,,,,,,,,,,,,,,,,,,,,,,,,,,,,,,,,,,,,,,,,,,,,,,,,,,,,,,,,,,,"[2,9,1,4,3,7,5,6]",1,0,1,0,1,,,,,,,,,,,,,,,,,,,,,,,,,,,,,,,,,,,,,,,,,,,,,,,,
,,5e0e16d70db892559eb23487,2022-09-01_13h53.34.469,CGTgamblingSpanTasks,2022.2.1,MacIntel,60.0024001,,,,,,,,,,,,,,,,,,,,,,,,,,,,,,,,,,,,,,,,,,,,,,,,,,,,,,,,,,,,,,,,,,,,,,,,,,,,,,,,,,"[2,9,1,4,3,7,5,6]",2,0,2,0,1,,,,,,,,,,,,,,,,,,,,,,,,,,,,,,,,,,,,,,,,,,,,,,,,
,,5e0e16d70db892559eb23487,2022-09-01_13h53.34.469,CGTgamblingSpanTasks,2022.2.1,MacIntel,60.0024001,,,,,,,,,,,,,,,,,,,,,,,,,,,,,,,,,,,,,,,,,,,,,,,,,,,,,,,,,,,,,,,,,,,,,,,,,,,,,,,,,,"[2,9,1,4,3,7,5,6]",3,0,3,0,1,,,,,,,,,,,,,,,,,,,,,,,,,,,,,,,,,,,,,,,,,,,,,,,,
,,5e0e16d70db892559eb23487,2022-09-01_13h53.34.469,CGTgamblingSpanTasks,2022.2.1,MacIntel,60.0024001,,,,,,,,,,,,,,,,,,,,,,,,,,,,,,,,,,,,,,,,,,,,,,,,,,,,,,,,,,,,,,,,,,,,,,,,,,,,,,,,,,"[2,9,1,4,3,7,5,6]",4,0,4,0,1,,,,,,,,,,,,,,,,,,,,,,,,,,,,,,,,,,,,,,,,,,,,,,,,
,,5e0e16d70db892559eb23487,2022-09-01_13h53.34.469,CGTgamblingSpanTasks,2022.2.1,MacIntel,60.0024001,,,,,,,,,,,,,,,,,,,,,,,,,,,,,,,,,,,,,,,,,,,,,,,,,,,,,,,,,,,,,,,,,,,,,,,,,,,,,,,,,,"[2,9,1,4,3,7,5,6]",5,0,5,0,1,,,,,,,,,,,,,,,,,,,,,,,,,,,,,,,,,,,,,,,,,,,,,,,,
,,5e0e16d70db892559eb23487,2022-09-01_13h53.34.469,CGTgamblingSpanTasks,2022.2.1,MacIntel,60.0024001,,,,,,,,,,,,,,,,,,,,,,,,,,,,,,,,,,,,,,,,,,,,,,,,,,,,,,,,,,,,,,,,,,,,,,,,,,,,,,,,,,"[2,9,1,4,3,7,5,6]",6,0,6,0,1,,,,,,,,,,,,,,,,,,,,,,,,,,,,,,,,,,,,,,,,,,,,,,,,
,,5e0e16d70db892559eb23487,2022-09-01_13h53.34.469,CGTgamblingSpanTasks,2022.2.1,MacIntel,60.0024001,,,,,,,,,,,,,,,,,,,,,,,,,,,,,,,,,,,,,,,,,,,,,,,,,,,,,,,,,,,,,,,,,,,,,,,,,,,,,,,,,,"[2,9,1,4,3,7,5,6]",7,0,7,0,1,,,,,,,,,,,,,,,,,,,,,,,,,,,,,,,,,,,,,,,,,,,,,,,,
,,5e0e16d70db892559eb23487,2022-09-01_13h53.34.469,CGTgamblingSpanTasks,2022.2.1,MacIntel,60.0024001,,,,,,,,,,,,,,,,,,,,,,,,,,,,,,,,,,,,,,,,,,,,,,,,,,,,,,,,,,,,,,,1,,,,,,,,,,,,,,,,,,,,,,,,,29143756,0.04216018,-0.408039435,1,0,0,cont_button,0,8,8,8,1,9,,,,,,,,,,,,,,,,,,,,,,,,,,,,,,,,,,,
,,5e0e16d70db892559eb23487,2022-09-01_13h53.34.469,CGTgamblingSpanTasks,2022.2.1,MacIntel,60.0024001,,,,,,,,,,,,,,,,,,,,,,,,,,,,,,,,,,,,,,,,,,,,,,,,,,,,,,,,,,,,,,,,,,,,,,,,,,,,,,,,,,"[7,9,1,6,5,3,4,8,2]",0,0,0,0,1,,,,,,,,,,,,,,,,,,,,,,,,,,,,,,,,,,,,,,,,,,,,,,,,
,,5e0e16d70db892559eb23487,2022-09-01_13h53.34.469,CGTgamblingSpanTasks,2022.2.1,MacIntel,60.0024001,,,,,,,,,,,,,,,,,,,,,,,,,,,,,,,,,,,,,,,,,,,,,,,,,,,,,,,,,,,,,,,,,,,,,,,,,,,,,,,,,,"[7,9,1,6,5,3,4,8,2]",1,0,1,0,1,,,,,,,,,,,,,,,,,,,,,,,,,,,,,,,,,,,,,,,,,,,,,,,,
,,5e0e16d70db892559eb23487,2022-09-01_13h53.34.469,CGTgamblingSpanTasks,2022.2.1,MacIntel,60.0024001,,,,,,,,,,,,,,,,,,,,,,,,,,,,,,,,,,,,,,,,,,,,,,,,,,,,,,,,,,,,,,,,,,,,,,,,,,,,,,,,,,"[7,9,1,6,5,3,4,8,2]",2,0,2,0,1,,,,,,,,,,,,,,,,,,,,,,,,,,,,,,,,,,,,,,,,,,,,,,,,
,,5e0e16d70db892559eb23487,2022-09-01_13h53.34.469,CGTgamblingSpanTasks,2022.2.1,MacIntel,60.0024001,,,,,,,,,,,,,,,,,,,,,,,,,,,,,,,,,,,,,,,,,,,,,,,,,,,,,,,,,,,,,,,,,,,,,,,,,,,,,,,,,,"[7,9,1,6,5,3,4,8,2]",3,0,3,0,1,,,,,,,,,,,,,,,,,,,,,,,,,,,,,,,,,,,,,,,,,,,,,,,,
,,5e0e16d70db892559eb23487,2022-09-01_13h53.34.469,CGTgamblingSpanTasks,2022.2.1,MacIntel,60.0024001,,,,,,,,,,,,,,,,,,,,,,,,,,,,,,,,,,,,,,,,,,,,,,,,,,,,,,,,,,,,,,,,,,,,,,,,,,,,,,,,,,"[7,9,1,6,5,3,4,8,2]",4,0,4,0,1,,,,,,,,,,,,,,,,,,,,,,,,,,,,,,,,,,,,,,,,,,,,,,,,
,,5e0e16d70db892559eb23487,2022-09-01_13h53.34.469,CGTgamblingSpanTasks,2022.2.1,MacIntel,60.0024001,,,,,,,,,,,,,,,,,,,,,,,,,,,,,,,,,,,,,,,,,,,,,,,,,,,,,,,,,,,,,,,,,,,,,,,,,,,,,,,,,,"[7,9,1,6,5,3,4,8,2]",5,0,5,0,1,,,,,,,,,,,,,,,,,,,,,,,,,,,,,,,,,,,,,,,,,,,,,,,,
,,5e0e16d70db892559eb23487,2022-09-01_13h53.34.469,CGTgamblingSpanTasks,2022.2.1,MacIntel,60.0024001,,,,,,,,,,,,,,,,,,,,,,,,,,,,,,,,,,,,,,,,,,,,,,,,,,,,,,,,,,,,,,,,,,,,,,,,,,,,,,,,,,"[7,9,1,6,5,3,4,8,2]",6,0,6,0,1,,,,,,,,,,,,,,,,,,,,,,,,,,,,,,,,,,,,,,,,,,,,,,,,
,,5e0e16d70db892559eb23487,2022-09-01_13h53.34.469,CGTgamblingSpanTasks,2022.2.1,MacIntel,60.0024001,,,,,,,,,,,,,,,,,,,,,,,,,,,,,,,,,,,,,,,,,,,,,,,,,,,,,,,,,,,,,,,,,,,,,,,,,,,,,,,,,,"[7,9,1,6,5,3,4,8,2]",7,0,7,0,1,,,,,,,,,,,,,,,,,,,,,,,,,,,,,,,,,,,,,,,,,,,,,,,,
,,5e0e16d70db892559eb23487,2022-09-01_13h53.34.469,CGTgamblingSpanTasks,2022.2.1,MacIntel,60.0024001,,,,,,,,,,,,,,,,,,,,,,,,,,,,,,,,,,,,,,,,,,,,,,,,,,,,,,,,,,,,,,,,,,,,,,,,,,,,,,,,,,"[7,9,1,6,5,3,4,8,2]",8,0,8,0,1,,,,,,,,,,,,,,,,,,,,,,,,,,,,,,,,,,,,,,,,,,,,,,,,
,,5e0e16d70db892559eb23487,2022-09-01_13h53.34.469,CGTgamblingSpanTasks,2022.2.1,MacIntel,60.0024001,,,,,,,,,,,,,,,,,,,,,,,,,,,,,,,,,,,,,,,,,,,,,,,,,,,,,,,,,,,,,,,0,,,,,,,,,,,,,,,,,,,,,,,,,796543218,0.026557733,-0.404552351,1,0,0,cont_button,0,9,9,9,1,10,,,,,,,,,,,,,,,,,,,,,,,,,,,,,,,,,,,
,,5e0e16d70db892559eb23487,2022-09-01_13h53.34.469,CGTgamblingSpanTasks,2022.2.1,MacIntel,60.0024001,,,,,,,,,,,,,,,,,,,,,,,,,,,,,,,,,,,,,,,,,,,,,,,,,,,,,,,,,,,,,,,,,,,,,,,,,,,,,,,,,,"[2,5,7,4,1,9,6,8,3]",0,0,0,0,1,,,,,,,,,,,,,,,,,,,,,,,,,,,,,,,,,,,,,,,,,,,,,,,,
,,5e0e16d70db892559eb23487,2022-09-01_13h53.34.469,CGTgamblingSpanTasks,2022.2.1,MacIntel,60.0024001,,,,,,,,,,,,,,,,,,,,,,,,,,,,,,,,,,,,,,,,,,,,,,,,,,,,,,,,,,,,,,,,,,,,,,,,,,,,,,,,,,"[2,5,7,4,1,9,6,8,3]",1,0,1,0,1,,,,,,,,,,,,,,,,,,,,,,,,,,,,,,,,,,,,,,,,,,,,,,,,
,,5e0e16d70db892559eb23487,2022-09-01_13h53.34.469,CGTgamblingSpanTasks,2022.2.1,MacIntel,60.0024001,,,,,,,,,,,,,,,,,,,,,,,,,,,,,,,,,,,,,,,,,,,,,,,,,,,,,,,,,,,,,,,,,,,,,,,,,,,,,,,,,,"[2,5,7,4,1,9,6,8,3]",2,0,2,0,1,,,,,,,,,,,,,,,,,,,,,,,,,,,,,,,,,,,,,,,,,,,,,,,,
,,5e0e16d70db892559eb23487,2022-09-01_13h53.34.469,CGTgamblingSpanTasks,2022.2.1,MacIntel,60.0024001,,,,,,,,,,,,,,,,,,,,,,,,,,,,,,,,,,,,,,,,,,,,,,,,,,,,,,,,,,,,,,,,,,,,,,,,,,,,,,,,,,"[2,5,7,4,1,9,6,8,3]",3,0,3,0,1,,,,,,,,,,,,,,,,,,,,,,,,,,,,,,,,,,,,,,,,,,,,,,,,
,,5e0e16d70db892559eb23487,2022-09-01_13h53.34.469,CGTgamblingSpanTasks,2022.2.1,MacIntel,60.0024001,,,,,,,,,,,,,,,,,,,,,,,,,,,,,,,,,,,,,,,,,,,,,,,,,,,,,,,,,,,,,,,,,,,,,,,,,,,,,,,,,,"[2,5,7,4,1,9,6,8,3]",4,0,4,0,1,,,,,,,,,,,,,,,,,,,,,,,,,,,,,,,,,,,,,,,,,,,,,,,,
,,5e0e16d70db892559eb23487,2022-09-01_13h53.34.469,CGTgamblingSpanTasks,2022.2.1,MacIntel,60.0024001,,,,,,,,,,,,,,,,,,,,,,,,,,,,,,,,,,,,,,,,,,,,,,,,,,,,,,,,,,,,,,,,,,,,,,,,,,,,,,,,,,"[2,5,7,4,1,9,6,8,3]",5,0,5,0,1,,,,,,,,,,,,,,,,,,,,,,,,,,,,,,,,,,,,,,,,,,,,,,,,
,,5e0e16d70db892559eb23487,2022-09-01_13h53.34.469,CGTgamblingSpanTasks,2022.2.1,MacIntel,60.0024001,,,,,,,,,,,,,,,,,,,,,,,,,,,,,,,,,,,,,,,,,,,,,,,,,,,,,,,,,,,,,,,,,,,,,,,,,,,,,,,,,,"[2,5,7,4,1,9,6,8,3]",6,0,6,0,1,,,,,,,,,,,,,,,,,,,,,,,,,,,,,,,,,,,,,,,,,,,,,,,,
,,5e0e16d70db892559eb23487,2022-09-01_13h53.34.469,CGTgamblingSpanTasks,2022.2.1,MacIntel,60.0024001,,,,,,,,,,,,,,,,,,,,,,,,,,,,,,,,,,,,,,,,,,,,,,,,,,,,,,,,,,,,,,,,,,,,,,,,,,,,,,,,,,"[2,5,7,4,1,9,6,8,3]",7,0,7,0,1,,,,,,,,,,,,,,,,,,,,,,,,,,,,,,,,,,,,,,,,,,,,,,,,
,,5e0e16d70db892559eb23487,2022-09-01_13h53.34.469,CGTgamblingSpanTasks,2022.2.1,MacIntel,60.0024001,,,,,,,,,,,,,,,,,,,,,,,,,,,,,,,,,,,,,,,,,,,,,,,,,,,,,,,,,,,,,,,,,,,,,,,,,,,,,,,,,,"[2,5,7,4,1,9,6,8,3]",8,0,8,0,1,,,,,,,,,,,,,,,,,,,,,,,,,,,,,,,,,,,,,,,,,,,,,,,,
,,5e0e16d70db892559eb23487,2022-09-01_13h53.34.469,CGTgamblingSpanTasks,2022.2.1,MacIntel,60.0024001,,,,,,,,,,,,,,,,,,,,,,,,,,,,,,,,,,,,,,,,,,,,,,,,,,,,,,,,,,,,,,,0,,,,,,,,,,,,,,,,,,,,,,,,,257419687,0.020505429,-0.410563209,1,0,0,cont_button,0,10,10,10,1,11,,,,,,,,,,,,,,,,,,,,,,,,,,,,,,,,,,,
,,5e0e16d70db892559eb23487,2022-09-01_13h53.34.469,CGTgamblingSpanTasks,2022.2.1,MacIntel,60.0024001,,,,,,,,,,,,,,,,,,,,,,,,,,,,,,,,,,,,,,,,,,,,,,,,,,,,,,,,,,,,,,,,,,,,,,,,,,,,,,,,,,"[2,4,1,8,7,9,6,3]",0,0,0,0,1,,,,,,,,,,,,,,,,,,,,,,,,,,,,,,,,,,,,,,,,,,,,,,,,
,,5e0e16d70db892559eb23487,2022-09-01_13h53.34.469,CGTgamblingSpanTasks,2022.2.1,MacIntel,60.0024001,,,,,,,,,,,,,,,,,,,,,,,,,,,,,,,,,,,,,,,,,,,,,,,,,,,,,,,,,,,,,,,,,,,,,,,,,,,,,,,,,,"[2,4,1,8,7,9,6,3]",1,0,1,0,1,,,,,,,,,,,,,,,,,,,,,,,,,,,,,,,,,,,,,,,,,,,,,,,,
,,5e0e16d70db892559eb23487,2022-09-01_13h53.34.469,CGTgamblingSpanTasks,2022.2.1,MacIntel,60.0024001,,,,,,,,,,,,,,,,,,,,,,,,,,,,,,,,,,,,,,,,,,,,,,,,,,,,,,,,,,,,,,,,,,,,,,,,,,,,,,,,,,"[2,4,1,8,7,9,6,3]",2,0,2,0,1,,,,,,,,,,,,,,,,,,,,,,,,,,,,,,,,,,,,,,,,,,,,,,,,
,,5e0e16d70db892559eb23487,2022-09-01_13h53.34.469,CGTgamblingSpanTasks,2022.2.1,MacIntel,60.0024001,,,,,,,,,,,,,,,,,,,,,,,,,,,,,,,,,,,,,,,,,,,,,,,,,,,,,,,,,,,,,,,,,,,,,,,,,,,,,,,,,,"[2,4,1,8,7,9,6,3]",3,0,3,0,1,,,,,,,,,,,,,,,,,,,,,,,,,,,,,,,,,,,,,,,,,,,,,,,,
,,5e0e16d70db892559eb23487,2022-09-01_13h53.34.469,CGTgamblingSpanTasks,2022.2.1,MacIntel,60.0024001,,,,,,,,,,,,,,,,,,,,,,,,,,,,,,,,,,,,,,,,,,,,,,,,,,,,,,,,,,,,,,,,,,,,,,,,,,,,,,,,,,"[2,4,1,8,7,9,6,3]",4,0,4,0,1,,,,,,,,,,,,,,,,,,,,,,,,,,,,,,,,,,,,,,,,,,,,,,,,
,,5e0e16d70db892559eb23487,2022-09-01_13h53.34.469,CGTgamblingSpanTasks,2022.2.1,MacIntel,60.0024001,,,,,,,,,,,,,,,,,,,,,,,,,,,,,,,,,,,,,,,,,,,,,,,,,,,,,,,,,,,,,,,,,,,,,,,,,,,,,,,,,,"[2,4,1,8,7,9,6,3]",5,0,5,0,1,,,,,,,,,,,,,,,,,,,,,,,,,,,,,,,,,,,,,,,,,,,,,,,,
,,5e0e16d70db892559eb23487,2022-09-01_13h53.34.469,CGTgamblingSpanTasks,2022.2.1,MacIntel,60.0024001,,,,,,,,,,,,,,,,,,,,,,,,,,,,,,,,,,,,,,,,,,,,,,,,,,,,,,,,,,,,,,,,,,,,,,,,,,,,,,,,,,"[2,4,1,8,7,9,6,3]",6,0,6,0,1,,,,,,,,,,,,,,,,,,,,,,,,,,,,,,,,,,,,,,,,,,,,,,,,
,,5e0e16d70db892559eb23487,2022-09-01_13h53.34.469,CGTgamblingSpanTasks,2022.2.1,MacIntel,60.0024001,,,,,,,,,,,,,,,,,,,,,,,,,,,,,,,,,,,,,,,,,,,,,,,,,,,,,,,,,,,,,,,,,,,,,,,,,,,,,,,,,,"[2,4,1,8,7,9,6,3]",7,0,7,0,1,,,,,,,,,,,,,,,,,,,,,,,,,,,,,,,,,,,,,,,,,,,,,,,,
,,5e0e16d70db892559eb23487,2022-09-01_13h53.34.469,CGTgamblingSpanTasks,2022.2.1,MacIntel,60.0024001,,,,,,,,,,,,,,,,,,,,,,,,,,,,,,,,,,,,,,,,,,,,,,,,,,,,,,,,,,,,,,,0,,,,,,,,,,,,,,,,,,,,,,,,,2567431,0.060215193,-0.397573242,1,0,0,cont_button,0,11,11,11,1,12,,,,,,,,,,,,,,,,,,,,,,,,,,,,,,,,,,,
,,5e0e16d70db892559eb23487,2022-09-01_13h53.34.469,CGTgamblingSpanTasks,2022.2.1,MacIntel,60.0024001,,,,,,,,,,,,,,,,,,,,,,,,,,,,,,,,,,,,,,,,,,,,,,,,,,,,,,,,,,,,,,,,,,,,,,,,,,,,,,,,,,"[1,5,3,6,2,8,4,7]",0,0,0,0,1,,,,,,,,,,,,,,,,,,,,,,,,,,,,,,,,,,,,,,,,,,,,,,,,
,,5e0e16d70db892559eb23487,2022-09-01_13h53.34.469,CGTgamblingSpanTasks,2022.2.1,MacIntel,60.0024001,,,,,,,,,,,,,,,,,,,,,,,,,,,,,,,,,,,,,,,,,,,,,,,,,,,,,,,,,,,,,,,,,,,,,,,,,,,,,,,,,,"[1,5,3,6,2,8,4,7]",1,0,1,0,1,,,,,,,,,,,,,,,,,,,,,,,,,,,,,,,,,,,,,,,,,,,,,,,,
,,5e0e16d70db892559eb23487,2022-09-01_13h53.34.469,CGTgamblingSpanTasks,2022.2.1,MacIntel,60.0024001,,,,,,,,,,,,,,,,,,,,,,,,,,,,,,,,,,,,,,,,,,,,,,,,,,,,,,,,,,,,,,,,,,,,,,,,,,,,,,,,,,"[1,5,3,6,2,8,4,7]",2,0,2,0,1,,,,,,,,,,,,,,,,,,,,,,,,,,,,,,,,,,,,,,,,,,,,,,,,
,,5e0e16d70db892559eb23487,2022-09-01_13h53.34.469,CGTgamblingSpanTasks,2022.2.1,MacIntel,60.0024001,,,,,,,,,,,,,,,,,,,,,,,,,,,,,,,,,,,,,,,,,,,,,,,,,,,,,,,,,,,,,,,,,,,,,,,,,,,,,,,,,,"[1,5,3,6,2,8,4,7]",3,0,3,0,1,,,,,,,,,,,,,,,,,,,,,,,,,,,,,,,,,,,,,,,,,,,,,,,,
,,5e0e16d70db892559eb23487,2022-09-01_13h53.34.469,CGTgamblingSpanTasks,2022.2.1,MacIntel,60.0024001,,,,,,,,,,,,,,,,,,,,,,,,,,,,,,,,,,,,,,,,,,,,,,,,,,,,,,,,,,,,,,,,,,,,,,,,,,,,,,,,,,"[1,5,3,6,2,8,4,7]",4,0,4,0,1,,,,,,,,,,,,,,,,,,,,,,,,,,,,,,,,,,,,,,,,,,,,,,,,
,,5e0e16d70db892559eb23487,2022-09-01_13h53.34.469,CGTgamblingSpanTasks,2022.2.1,MacIntel,60.0024001,,,,,,,,,,,,,,,,,,,,,,,,,,,,,,,,,,,,,,,,,,,,,,,,,,,,,,,,,,,,,,,,,,,,,,,,,,,,,,,,,,"[1,5,3,6,2,8,4,7]",5,0,5,0,1,,,,,,,,,,,,,,,,,,,,,,,,,,,,,,,,,,,,,,,,,,,,,,,,
,,5e0e16d70db892559eb23487,2022-09-01_13h53.34.469,CGTgamblingSpanTasks,2022.2.1,MacIntel,60.0024001,,,,,,,,,,,,,,,,,,,,,,,,,,,,,,,,,,,,,,,,,,,,,,,,,,,,,,,,,,,,,,,,,,,,,,,,,,,,,,,,,,"[1,5,3,6,2,8,4,7]",6,0,6,0,1,,,,,,,,,,,,,,,,,,,,,,,,,,,,,,,,,,,,,,,,,,,,,,,,
,,5e0e16d70db892559eb23487,2022-09-01_13h53.34.469,CGTgamblingSpanTasks,2022.2.1,MacIntel,60.0024001,,,,,,,,,,,,,,,,,,,,,,,,,,,,,,,,,,,,,,,,,,,,,,,,,,,,,,,,,,,,,,,,,,,,,,,,,,,,,,,,,,"[1,5,3,6,2,8,4,7]",7,0,7,0,1,,,,,,,,,,,,,,,,,,,,,,,,,,,,,,,,,,,,,,,,,,,,,,,,
,,5e0e16d70db892559eb23487,2022-09-01_13h53.34.469,CGTgamblingSpanTasks,2022.2.1,MacIntel,60.0024001,,,,,,,,,,,,,,,,,,,,,,,,,,,,,,,,,,,,,,,,,,,,,,,,,,,,,,,,,,,,,,,0,,,,,,,,,,,,,,,,,,,,,,,,,15362857,0.052978806,-0.408597354,1,0,0,cont_button,0,12,12,12,1,13,,,,,,,,,,,,,,,,,,,,,,,,,,,,,,,,,,,
,,5e0e16d70db892559eb23487,2022-09-01_13h53.34.469,CGTgamblingSpanTasks,2022.2.1,MacIntel,60.0024001,,,,,,,,,,,,,,,,,,,,,,,,,,,,,,,,,,,,,,,,,,,,,,,,,,,,,,,,,,,,,,,,,,,,,,,,,,,,,,,,,,"[8,5,3,9,1,4,6]",0,0,0,0,1,,,,,,,,,,,,,,,,,,,,,,,,,,,,,,,,,,,,,,,,,,,,,,,,
,,5e0e16d70db892559eb23487,2022-09-01_13h53.34.469,CGTgamblingSpanTasks,2022.2.1,MacIntel,60.0024001,,,,,,,,,,,,,,,,,,,,,,,,,,,,,,,,,,,,,,,,,,,,,,,,,,,,,,,,,,,,,,,,,,,,,,,,,,,,,,,,,,"[8,5,3,9,1,4,6]",1,0,1,0,1,,,,,,,,,,,,,,,,,,,,,,,,,,,,,,,,,,,,,,,,,,,,,,,,
,,5e0e16d70db892559eb23487,2022-09-01_13h53.34.469,CGTgamblingSpanTasks,2022.2.1,MacIntel,60.0024001,,,,,,,,,,,,,,,,,,,,,,,,,,,,,,,,,,,,,,,,,,,,,,,,,,,,,,,,,,,,,,,,,,,,,,,,,,,,,,,,,,"[8,5,3,9,1,4,6]",2,0,2,0,1,,,,,,,,,,,,,,,,,,,,,,,,,,,,,,,,,,,,,,,,,,,,,,,,
,,5e0e16d70db892559eb23487,2022-09-01_13h53.34.469,CGTgamblingSpanTasks,2022.2.1,MacIntel,60.0024001,,,,,,,,,,,,,,,,,,,,,,,,,,,,,,,,,,,,,,,,,,,,,,,,,,,,,,,,,,,,,,,,,,,,,,,,,,,,,,,,,,"[8,5,3,9,1,4,6]",3,0,3,0,1,,,,,,,,,,,,,,,,,,,,,,,,,,,,,,,,,,,,,,,,,,,,,,,,
,,5e0e16d70db892559eb23487,2022-09-01_13h53.34.469,CGTgamblingSpanTasks,2022.2.1,MacIntel,60.0024001,,,,,,,,,,,,,,,,,,,,,,,,,,,,,,,,,,,,,,,,,,,,,,,,,,,,,,,,,,,,,,,,,,,,,,,,,,,,,,,,,,"[8,5,3,9,1,4,6]",4,0,4,0,1,,,,,,,,,,,,,,,,,,,,,,,,,,,,,,,,,,,,,,,,,,,,,,,,
,,5e0e16d70db892559eb23487,2022-09-01_13h53.34.469,CGTgamblingSpanTasks,2022.2.1,MacIntel,60.0024001,,,,,,,,,,,,,,,,,,,,,,,,,,,,,,,,,,,,,,,,,,,,,,,,,,,,,,,,,,,,,,,,,,,,,,,,,,,,,,,,,,"[8,5,3,9,1,4,6]",5,0,5,0,1,,,,,,,,,,,,,,,,,,,,,,,,,,,,,,,,,,,,,,,,,,,,,,,,
,,5e0e16d70db892559eb23487,2022-09-01_13h53.34.469,CGTgamblingSpanTasks,2022.2.1,MacIntel,60.0024001,,,,,,,,,,,,,,,,,,,,,,,,,,,,,,,,,,,,,,,,,,,,,,,,,,,,,,,,,,,,,,,,,,,,,,,,,,,,,,,,,,"[8,5,3,9,1,4,6]",6,0,6,0,1,,,,,,,,,,,,,,,,,,,,,,,,,,,,,,,,,,,,,,,,,,,,,,,,
,,5e0e16d70db892559eb23487,2022-09-01_13h53.34.469,CGTgamblingSpanTasks,2022.2.1,MacIntel,60.0024001,,,,,,,,,,,,,,,,,,,,,,,,,,,,,,,,,,,,,,,,,,,,,,,,,,,,,,,,,,,,,,,1,,,,,,,,,,,,,,,,,,,,,,,,,8539146,0.082816278,-0.422822207,1,0,0,cont_button,0,13,13,13,1,14,,,,,,,,,,,,,,,,,,,,,,,,,,,,,,,,,,,
,,5e0e16d70db892559eb23487,2022-09-01_13h53.34.469,CGTgamblingSpanTasks,2022.2.1,MacIntel,60.0024001,,,,,,,,,,,,,,,,,,,,,,,,,,,,,,,,,,,,,,,,,,,,,,,,,,,,,,,,,,,,,,,,,,,,,,,,,,,,,,,,,,,,,,,,,,,,,,,,,,,,,return,3.5249,,,,,,,,,,,,,,,,,,,,,,,,,,,,,,,,,
,,5e0e16d70db892559eb23487,2022-09-01_13h53.34.469,CGTgamblingSpanTasks,2022.2.1,MacIntel,60.0024001,,,,,,,,,,,,,,,,,,,,,,,,,,,,,,,,,,,,,,,,,,,,,,,,,,,,,,,,,,,,,,,,,,,,,,,,,,,,,,,,,,,,,,,,,,,,,,,,,,,,,,,return,19.6198,,,,,,,,,,,,,,,,,,,,,,,,,,,,,,,
,,5e0e16d70db892559eb23487,2022-09-01_13h53.34.469,CGTgamblingSpanTasks,2022.2.1,MacIntel,60.0024001,,,,,,,,,,,,,,,,,,,,,,,,,,,,,,,,,,,,,,,,,,,,,,,,,,,,,,,,,,,,,,,1,,,,,,,,,,,,3,342,24,2,42,,,,,,,,,,,,,,,,,,,,,,,,,,42,0.094639893,-0.407533133,1,0,0,cont_buttonPractice_2,0,0,0,0,1,,,,,,,,,,,,,,,,,,,
,,5e0e16d70db892559eb23487,2022-09-01_13h53.34.469,CGTgamblingSpanTasks,2022.2.1,MacIntel,60.0024001,,,,,,,,,,,,,,,,,,,,,,,,,,,,,,,,,,,,,,,,,,,,,,,,,,,,,,,,,,,,,,,1,,,,,,,,,,,,3,937,73,2,37,,,,,,,,,,,,,,,,,,,,,,,,,,37,0.115533738,-0.411306617,1,0,0,cont_buttonPractice_2,0,1,1,1,1,,,,,,,,,,,,,,,,,,,
,,5e0e16d70db892559eb23487,2022-09-01_13h53.34.469,CGTgamblingSpanTasks,2022.2.1,MacIntel,60.0024001,,,,,,,,,,,,,,,,,,,,,,,,,,,,,,,,,,,,,,,,,,,,,,,,,,,,,,,,,,,,,,,,,,,,,,,,,,,,,,,,,,,,,,,,,,,,,,,,,,,,,,,,,,,,,,,,,,,,,return,7.3225,,,,,,,,,,,,,,,,,
,,5e0e16d70db892559eb23487,2022-09-01_13h53.34.469,CGTgamblingSpanTasks,2022.2.1,MacIntel,60.0024001,,,,,,,,,,,,,,,,,,,,,,,,,,,,,,,,,,,,,,,,,,,,,,,,,,,,,,,,,,,,,,,,,,,,,,,,,,,,,,,,,,"[9,3]",,,,,,,,,,,,,,,,,,,,,,,,,,,,,,,,,,,,,0,0,0,0,1,,,,,,,,,,,,
,,5e0e16d70db892559eb23487,2022-09-01_13h53.34.469,CGTgamblingSpanTasks,2022.2.1,MacIntel,60.0024001,,,,,,,,,,,,,,,,,,,,,,,,,,,,,,,,,,,,,,,,,,,,,,,,,,,,,,,,,,,,,,,,,,,,,,,,,,,,,,,,,,"[9,3]",,,,,,,,,,,,,,,,,,,,,,,,,,,,,,,,,,,,,1,0,1,0,1,,,,,,,,,,,,
,,5e0e16d70db892559eb23487,2022-09-01_13h53.34.469,CGTgamblingSpanTasks,2022.2.1,MacIntel,60.0024001,,,,,,,,,,,,,,,,,,,,,,,,,,,,,,,,,,,,,,,,,,,,,,,,,,,,,,,,,,,,,,,1,,,,,,,,,,,,,,,,,,,,,,,,,,,,,,,,,,,,,1,,,,,,,,,,,,,,,,,,,,,,,,39,0.136875465,-0.419642392,1,0,0,cont_buttonBS,0,0,0,0,1
,,5e0e16d70db892559eb23487,2022-09-01_13h53.34.469,CGTgamblingSpanTasks,2022.2.1,MacIntel,60.0024001,,,,,,,,,,,,,,,,,,,,,,,,,,,,,,,,,,,,,,,,,,,,,,,,,,,,,,,,,,,,,,,,,,,,,,,,,,,,,,,,,,"[7,6,8]",,,,,,,,,,,,,,,,,,,,,,,,,,,,,,,,,,,,,0,0,0,0,1,,,,,,,,,,,,
,,5e0e16d70db892559eb23487,2022-09-01_13h53.34.469,CGTgamblingSpanTasks,2022.2.1,MacIntel,60.0024001,,,,,,,,,,,,,,,,,,,,,,,,,,,,,,,,,,,,,,,,,,,,,,,,,,,,,,,,,,,,,,,,,,,,,,,,,,,,,,,,,,"[7,6,8]",,,,,,,,,,,,,,,,,,,,,,,,,,,,,,,,,,,,,1,0,1,0,1,,,,,,,,,,,,
,,5e0e16d70db892559eb23487,2022-09-01_13h53.34.469,CGTgamblingSpanTasks,2022.2.1,MacIntel,60.0024001,,,,,,,,,,,,,,,,,,,,,,,,,,,,,,,,,,,,,,,,,,,,,,,,,,,,,,,,,,,,,,,,,,,,,,,,,,,,,,,,,,"[7,6,8]",,,,,,,,,,,,,,,,,,,,,,,,,,,,,,,,,,,,,2,0,2,0,1,,,,,,,,,,,,
,,5e0e16d70db892559eb23487,2022-09-01_13h53.34.469,CGTgamblingSpanTasks,2022.2.1,MacIntel,60.0024001,,,,,,,,,,,,,,,,,,,,,,,,,,,,,,,,,,,,,,,,,,,,,,,,,,,,,,,,,,,,,,,1,,,,,,,,,,,,,,,,,,,,,,,,,,,,,,,,,,,,,2,,,,,,,,,,,,,,,,,,,,,,,,867,0.11083095,-0.418878232,1,0,0,cont_buttonBS,0,1,1,1,1
,,5e0e16d70db892559eb23487,2022-09-01_13h53.34.469,CGTgamblingSpanTasks,2022.2.1,MacIntel,60.0024001,,,,,,,,,,,,,,,,,,,,,,,,,,,,,,,,,,,,,,,,,,,,,,,,,,,,,,,,,,,,,,,,,,,,,,,,,,,,,,,,,,"[2,6,7,1]",,,,,,,,,,,,,,,,,,,,,,,,,,,,,,,,,,,,,0,0,0,0,1,,,,,,,,,,,,
,,5e0e16d70db892559eb23487,2022-09-01_13h53.34.469,CGTgamblingSpanTasks,2022.2.1,MacIntel,60.0024001,,,,,,,,,,,,,,,,,,,,,,,,,,,,,,,,,,,,,,,,,,,,,,,,,,,,,,,,,,,,,,,,,,,,,,,,,,,,,,,,,,"[2,6,7,1]",,,,,,,,,,,,,,,,,,,,,,,,,,,,,,,,,,,,,1,0,1,0,1,,,,,,,,,,,,
,,5e0e16d70db892559eb23487,2022-09-01_13h53.34.469,CGTgamblingSpanTasks,2022.2.1,MacIntel,60.0024001,,,,,,,,,,,,,,,,,,,,,,,,,,,,,,,,,,,,,,,,,,,,,,,,,,,,,,,,,,,,,,,,,,,,,,,,,,,,,,,,,,"[2,6,7,1]",,,,,,,,,,,,,,,,,,,,,,,,,,,,,,,,,,,,,2,0,2,0,1,,,,,,,,,,,,
,,5e0e16d70db892559eb23487,2022-09-01_13h53.34.469,CGTgamblingSpanTasks,2022.2.1,MacIntel,60.0024001,,,,,,,,,,,,,,,,,,,,,,,,,,,,,,,,,,,,,,,,,,,,,,,,,,,,,,,,,,,,,,,,,,,,,,,,,,,,,,,,,,"[2,6,7,1]",,,,,,,,,,,,,,,,,,,,,,,,,,,,,,,,,,,,,3,0,3,0,1,,,,,,,,,,,,
,,5e0e16d70db892559eb23487,2022-09-01_13h53.34.469,CGTgamblingSpanTasks,2022.2.1,MacIntel,60.0024001,,,,,,,,,,,,,,,,,,,,,,,,,,,,,,,,,,,,,,,,,,,,,,,,,,,,,,,,,,,,,,,1,,,,,,,,,,,,,,,,,,,,,,,,,,,,,,,,,,,,,3,,,,,,,,,,,,,,,,,,,,,,,,1762,0.107399379,-0.427161633,1,0,0,cont_buttonBS,0,2,2,2,1
,,5e0e16d70db892559eb23487,2022-09-01_13h53.34.469,CGTgamblingSpanTasks,2022.2.1,MacIntel,60.0024001,,,,,,,,,,,,,,,,,,,,,,,,,,,,,,,,,,,,,,,,,,,,,,,,,,,,,,,,,,,,,,,,,,,,,,,,,,,,,,,,,,"[1,9,3,4,8]",,,,,,,,,,,,,,,,,,,,,,,,,,,,,,,,,,,,,0,0,0,0,1,,,,,,,,,,,,
,,5e0e16d70db892559eb23487,2022-09-01_13h53.34.469,CGTgamblingSpanTasks,2022.2.1,MacIntel,60.0024001,,,,,,,,,,,,,,,,,,,,,,,,,,,,,,,,,,,,,,,,,,,,,,,,,,,,,,,,,,,,,,,,,,,,,,,,,,,,,,,,,,"[1,9,3,4,8]",,,,,,,,,,,,,,,,,,,,,,,,,,,,,,,,,,,,,1,0,1,0,1,,,,,,,,,,,,
,,5e0e16d70db892559eb23487,2022-09-01_13h53.34.469,CGTgamblingSpanTasks,2022.2.1,MacIntel,60.0024001,,,,,,,,,,,,,,,,,,,,,,,,,,,,,,,,,,,,,,,,,,,,,,,,,,,,,,,,,,,,,,,,,,,,,,,,,,,,,,,,,,"[1,9,3,4,8]",,,,,,,,,,,,,,,,,,,,,,,,,,,,,,,,,,,,,2,0,2,0,1,,,,,,,,,,,,
,,5e0e16d70db892559eb23487,2022-09-01_13h53.34.469,CGTgamblingSpanTasks,2022.2.1,MacIntel,60.0024001,,,,,,,,,,,,,,,,,,,,,,,,,,,,,,,,,,,,,,,,,,,,,,,,,,,,,,,,,,,,,,,,,,,,,,,,,,,,,,,,,,"[1,9,3,4,8]",,,,,,,,,,,,,,,,,,,,,,,,,,,,,,,,,,,,,3,0,3,0,1,,,,,,,,,,,,
,,5e0e16d70db892559eb23487,2022-09-01_13h53.34.469,CGTgamblingSpanTasks,2022.2.1,MacIntel,60.0024001,,,,,,,,,,,,,,,,,,,,,,,,,,,,,,,,,,,,,,,,,,,,,,,,,,,,,,,,,,,,,,,,,,,,,,,,,,,,,,,,,,"[1,9,3,4,8]",,,,,,,,,,,,,,,,,,,,,,,,,,,,,,,,,,,,,4,0,4,0,1,,,,,,,,,,,,
,,5e0e16d70db892559eb23487,2022-09-01_13h53.34.469,CGTgamblingSpanTasks,2022.2.1,MacIntel,60.0024001,,,,,,,,,,,,,,,,,,,,,,,,,,,,,,,,,,,,,,,,,,,,,,,,,,,,,,,,,,,,,,,1,,,,,,,,,,,,,,,,,,,,,,,,,,,,,,,,,,,,,4,,,,,,,,,,,,,,,,,,,,,,,,84391,0.007879116,-0.394551595,1,0,0,cont_buttonBS,0,3,3,3,1
,,5e0e16d70db892559eb23487,2022-09-01_13h53.34.469,CGTgamblingSpanTasks,2022.2.1,MacIntel,60.0024001,,,,,,,,,,,,,,,,,,,,,,,,,,,,,,,,,,,,,,,,,,,,,,,,,,,,,,,,,,,,,,,,,,,,,,,,,,,,,,,,,,"[2,3,1,8,5,4]",,,,,,,,,,,,,,,,,,,,,,,,,,,,,,,,,,,,,0,0,0,0,1,,,,,,,,,,,,
,,5e0e16d70db892559eb23487,2022-09-01_13h53.34.469,CGTgamblingSpanTasks,2022.2.1,MacIntel,60.0024001,,,,,,,,,,,,,,,,,,,,,,,,,,,,,,,,,,,,,,,,,,,,,,,,,,,,,,,,,,,,,,,,,,,,,,,,,,,,,,,,,,"[2,3,1,8,5,4]",,,,,,,,,,,,,,,,,,,,,,,,,,,,,,,,,,,,,1,0,1,0,1,,,,,,,,,,,,
,,5e0e16d70db892559eb23487,2022-09-01_13h53.34.469,CGTgamblingSpanTasks,2022.2.1,MacIntel,60.0024001,,,,,,,,,,,,,,,,,,,,,,,,,,,,,,,,,,,,,,,,,,,,,,,,,,,,,,,,,,,,,,,,,,,,,,,,,,,,,,,,,,"[2,3,1,8,5,4]",,,,,,,,,,,,,,,,,,,,,,,,,,,,,,,,,,,,,2,0,2,0,1,,,,,,,,,,,,
,,5e0e16d70db892559eb23487,2022-09-01_13h53.34.469,CGTgamblingSpanTasks,2022.2.1,MacIntel,60.0024001,,,,,,,,,,,,,,,,,,,,,,,,,,,,,,,,,,,,,,,,,,,,,,,,,,,,,,,,,,,,,,,,,,,,,,,,,,,,,,,,,,"[2,3,1,8,5,4]",,,,,,,,,,,,,,,,,,,,,,,,,,,,,,,,,,,,,3,0,3,0,1,,,,,,,,,,,,
,,5e0e16d70db892559eb23487,2022-09-01_13h53.34.469,CGTgamblingSpanTasks,2022.2.1,MacIntel,60.0024001,,,,,,,,,,,,,,,,,,,,,,,,,,,,,,,,,,,,,,,,,,,,,,,,,,,,,,,,,,,,,,,,,,,,,,,,,,,,,,,,,,"[2,3,1,8,5,4]",,,,,,,,,,,,,,,,,,,,,,,,,,,,,,,,,,,,,4,0,4,0,1,,,,,,,,,,,,
,,5e0e16d70db892559eb23487,2022-09-01_13h53.34.469,CGTgamblingSpanTasks,2022.2.1,MacIntel,60.0024001,,,,,,,,,,,,,,,,,,,,,,,,,,,,,,,,,,,,,,,,,,,,,,,,,,,,,,,,,,,,,,,,,,,,,,,,,,,,,,,,,,"[2,3,1,8,5,4]",,,,,,,,,,,,,,,,,,,,,,,,,,,,,,,,,,,,,5,0,5,0,1,,,,,,,,,,,,
,,5e0e16d70db892559eb23487,2022-09-01_13h53.34.469,CGTgamblingSpanTasks,2022.2.1,MacIntel,60.0024001,,,,,,,,,,,,,,,,,,,,,,,,,,,,,,,,,,,,,,,,,,,,,,,,,,,,,,,,,,,,,,,1,,,,,,,,,,,,,,,,,,,,,,,,,,,,,,,,,,,,,5,,,,,,,,,,,,,,,,,,,,,,,,458132,-0.034972447,-0.388124535,1,0,0,cont_buttonBS,0,4,4,4,1
,,5e0e16d70db892559eb23487,2022-09-01_13h53.34.469,CGTgamblingSpanTasks,2022.2.1,MacIntel,60.0024001,,,,,,,,,,,,,,,,,,,,,,,,,,,,,,,,,,,,,,,,,,,,,,,,,,,,,,,,,,,,,,,,,,,,,,,,,,,,,,,,,,"[8,4,7,2,3,6,9]",,,,,,,,,,,,,,,,,,,,,,,,,,,,,,,,,,,,,0,0,0,0,1,,,,,,,,,,,,
,,5e0e16d70db892559eb23487,2022-09-01_13h53.34.469,CGTgamblingSpanTasks,2022.2.1,MacIntel,60.0024001,,,,,,,,,,,,,,,,,,,,,,,,,,,,,,,,,,,,,,,,,,,,,,,,,,,,,,,,,,,,,,,,,,,,,,,,,,,,,,,,,,"[8,4,7,2,3,6,9]",,,,,,,,,,,,,,,,,,,,,,,,,,,,,,,,,,,,,1,0,1,0,1,,,,,,,,,,,,
,,5e0e16d70db892559eb23487,2022-09-01_13h53.34.469,CGTgamblingSpanTasks,2022.2.1,MacIntel,60.0024001,,,,,,,,,,,,,,,,,,,,,,,,,,,,,,,,,,,,,,,,,,,,,,,,,,,,,,,,,,,,,,,,,,,,,,,,,,,,,,,,,,"[8,4,7,2,3,6,9]",,,,,,,,,,,,,,,,,,,,,,,,,,,,,,,,,,,,,2,0,2,0,1,,,,,,,,,,,,
,,5e0e16d70db892559eb23487,2022-09-01_13h53.34.469,CGTgamblingSpanTasks,2022.2.1,MacIntel,60.0024001,,,,,,,,,,,,,,,,,,,,,,,,,,,,,,,,,,,,,,,,,,,,,,,,,,,,,,,,,,,,,,,,,,,,,,,,,,,,,,,,,,"[8,4,7,2,3,6,9]",,,,,,,,,,,,,,,,,,,,,,,,,,,,,,,,,,,,,3,0,3,0,1,,,,,,,,,,,,
,,5e0e16d70db892559eb23487,2022-09-01_13h53.34.469,CGTgamblingSpanTasks,2022.2.1,MacIntel,60.0024001,,,,,,,,,,,,,,,,,,,,,,,,,,,,,,,,,,,,,,,,,,,,,,,,,,,,,,,,,,,,,,,,,,,,,,,,,,,,,,,,,,"[8,4,7,2,3,6,9]",,,,,,,,,,,,,,,,,,,,,,,,,,,,,,,,,,,,,4,0,4,0,1,,,,,,,,,,,,
,,5e0e16d70db892559eb23487,2022-09-01_13h53.34.469,CGTgamblingSpanTasks,2022.2.1,MacIntel,60.0024001,,,,,,,,,,,,,,,,,,,,,,,,,,,,,,,,,,,,,,,,,,,,,,,,,,,,,,,,,,,,,,,,,,,,,,,,,,,,,,,,,,"[8,4,7,2,3,6,9]",,,,,,,,,,,,,,,,,,,,,,,,,,,,,,,,,,,,,5,0,5,0,1,,,,,,,,,,,,
,,5e0e16d70db892559eb23487,2022-09-01_13h53.34.469,CGTgamblingSpanTasks,2022.2.1,MacIntel,60.0024001,,,,,,,,,,,,,,,,,,,,,,,,,,,,,,,,,,,,,,,,,,,,,,,,,,,,,,,,,,,,,,,,,,,,,,,,,,,,,,,,,,"[8,4,7,2,3,6,9]",,,,,,,,,,,,,,,,,,,,,,,,,,,,,,,,,,,,,6,0,6,0,1,,,,,,,,,,,,
,,5e0e16d70db892559eb23487,2022-09-01_13h53.34.469,CGTgamblingSpanTasks,2022.2.1,MacIntel,60.0024001,,,,,,,,,,,,,,,,,,,,,,,,,,,,,,,,,,,,,,,,,,,,,,,,,,,,,,,,,,,,,,,0,,,,,,,,,,,,,,,,,,,,,,,,,,,,,,,,,,,,,6,,,,,,,,,,,,,,,,,,,,,,,,72369,-0.031428862,-0.389095285,1,0,0,cont_buttonBS,0,5,5,5,1
,,5e0e16d70db892559eb23487,2022-09-01_13h53.34.469,CGTgamblingSpanTasks,2022.2.1,MacIntel,60.0024001,,,,,,,,,,,,,,,,,,,,,,,,,,,,,,,,,,,,,,,,,,,,,,,,,,,,,,,,,,,,,,,,,,,,,,,,,,,,,,,,,,"[8,7,1,2,4,9,5]",,,,,,,,,,,,,,,,,,,,,,,,,,,,,,,,,,,,,0,0,0,0,1,,,,,,,,,,,,
,,5e0e16d70db892559eb23487,2022-09-01_13h53.34.469,CGTgamblingSpanTasks,2022.2.1,MacIntel,60.0024001,,,,,,,,,,,,,,,,,,,,,,,,,,,,,,,,,,,,,,,,,,,,,,,,,,,,,,,,,,,,,,,,,,,,,,,,,,,,,,,,,,"[8,7,1,2,4,9,5]",,,,,,,,,,,,,,,,,,,,,,,,,,,,,,,,,,,,,1,0,1,0,1,,,,,,,,,,,,
,,5e0e16d70db892559eb23487,2022-09-01_13h53.34.469,CGTgamblingSpanTasks,2022.2.1,MacIntel,60.0024001,,,,,,,,,,,,,,,,,,,,,,,,,,,,,,,,,,,,,,,,,,,,,,,,,,,,,,,,,,,,,,,,,,,,,,,,,,,,,,,,,,"[8,7,1,2,4,9,5]",,,,,,,,,,,,,,,,,,,,,,,,,,,,,,,,,,,,,2,0,2,0,1,,,,,,,,,,,,
,,5e0e16d70db892559eb23487,2022-09-01_13h53.34.469,CGTgamblingSpanTasks,2022.2.1,MacIntel,60.0024001,,,,,,,,,,,,,,,,,,,,,,,,,,,,,,,,,,,,,,,,,,,,,,,,,,,,,,,,,,,,,,,,,,,,,,,,,,,,,,,,,,"[8,7,1,2,4,9,5]",,,,,,,,,,,,,,,,,,,,,,,,,,,,,,,,,,,,,3,0,3,0,1,,,,,,,,,,,,
,,5e0e16d70db892559eb23487,2022-09-01_13h53.34.469,CGTgamblingSpanTasks,2022.2.1,MacIntel,60.0024001,,,,,,,,,,,,,,,,,,,,,,,,,,,,,,,,,,,,,,,,,,,,,,,,,,,,,,,,,,,,,,,,,,,,,,,,,,,,,,,,,,"[8,7,1,2,4,9,5]",,,,,,,,,,,,,,,,,,,,,,,,,,,,,,,,,,,,,4,0,4,0,1,,,,,,,,,,,,
