initITIstatic,initITIdynamic,participant,date,expName,psychopyVersion,OS,frameRate,inst1.keys,inst1.rt,startPracResp.keys,startPracResp.rt,choice1.keys,choice1.rt,outcome,extraITI,trials.thisRepN,trials.thisTrialN,trials.thisN,trials.thisIndex,trials.ran,riskyGain,riskyLoss,alternative,isi,iti,loc,postPractResp.keys,postPractResp.rt,realloc,realChoice.keys,realChoice.rt,outcomes,choices,actualITI,init ITI,staticRDM.thisRepN,staticRDM.thisTrialN,staticRDM.thisN,staticRDM.thisIndex,staticRDM.ran,riskyoption1,riskyoption2,safeoption,ischecktrial,dynamicChoiceSetName,dynamicChoiceSetPath,bestRho,bestMu,trials_2.thisRepN,trials_2.thisTrialN,trials_2.thisN,trials_2.thisIndex,trials_2.ran,key_resp.keys,key_resp.rt,dynamicRDM.thisRepN,dynamicRDM.thisTrialN,dynamicRDM.thisN,dynamicRDM.thisIndex,dynamicRDM.ran,choiceP,easy0difficult1,stopBreak.keys,stopBreak.rt,movealong.keys,movealong.rt,startPractice.keys,startPractice.rt,textboxPractice.text,correct,mousePractice.x,mousePractice.y,mousePractice.leftButton,mousePractice.midButton,mousePractice.rightButton,mousePractice.clicked_name,trialFSPractice.thisRepN,trialFSPractice.thisTrialN,trialFSPractice.thisN,trialFSPractice.thisIndex,trialFSPractice.ran,digitSpanForward,digits,digitsReverse,digitSpanReverse,digitsReverseCorrAnswer,startFSreal.keys,startFSreal.rt,digitsForTrial,digitLoop.thisRepN,digitLoop.thisTrialN,digitLoop.thisN,digitLoop.thisIndex,digitLoop.ran,textbox.text,mouse_3.x,mouse_3.y,mouse_3.leftButton,mouse_3.midButton,mouse_3.rightButton,mouse_3.clicked_name,trialsFS.thisRepN,trialsFS.thisTrialN,trialsFS.thisN,trialsFS.thisIndex,trialsFS.ran,trialNumber,moveToBS.keys,moveToBS.rt,startBSprac.keys,startBSprac.rt,textboxPractice_2.text,mousePractice_2.x,mousePractice_2.y,mousePractice_2.leftButton,mousePractice_2.midButton,mousePractice_2.rightButton,mousePractice_2.clicked_name,trialsPracticeBS.thisRepN,trialsPracticeBS.thisTrialN,trialsPracticeBS.thisN,trialsPracticeBS.thisIndex,trialsPracticeBS.ran,startBSreal.keys,startBSreal.rt,digitLoopBS.thisRepN,digitLoopBS.thisTrialN,digitLoopBS.thisN,digitLoopBS.thisIndex,digitLoopBS.ran,textboxBS.text,mouseBS.x,mouseBS.y,mouseBS.leftButton,mouseBS.midButton,mouseBS.rightButton,mouseBS.clicked_name,trialsBS.thisRepN,trialsBS.thisTrialN,trialsBS.thisN,trialsBS.thisIndex,trialsBS.ran
"[1,1,1,1,1.5,1,1.5,1,1.5,1.5,1,1,1.5,1,1,1.5,1,1.5,1.5,1,1,1.5,1.5,1.5,1,1,1.5,1,1.5,1.5,1.5,1.5,1,1,1.5,1,1,1,1.5,1,1.5,1,1.5,1.5,1.5,1.5,1.5,1.5,1,1]","[1.5,1.5,1,1.5,1,1.5,1.5,1,1,1,1,1.5,1.5,1,1,1,1,1.5,1.5,1.5,1.5,1,1,1.5,1.5,1.5,1,1.5,1,1,1.5,1.5,1.5,1.5,1.5,1,1,1.5,1,1,1.5,1.5,1,1,1.5,1.5,1,1,1.5,1.5,1.5,1.5,1.5,1.5,1,1.5,1,1.5,1.5,1,1,1.5,1,1,1.5,1,1.5,1,1.5,1,1.5,1,1.5,1.5,1.5,1,1.5,1.5,1.5,1,1.5,1.5,1,1.5,1,1,1,1,1.5,1.5,1,1,1,1,1,1,1.5,1,1.5,1.5,1,1,1.5,1,1,1,1.5,1,1,1,1,1.5,1,1.5,1.5,1.5,1,1.5,1,1]",610309d6b51e8a9a5da8a6f4,2022-09-08_13h56.03.859,CGTgamblingSpanTasks,2022.2.1,MacIntel,60.14675809,,,,,,,,,,,,,,,,,,,,,,,,,,,,,,,,,,,,,,,,,,,,,,,,,,,,,,,,,,,,,,,,,,,,,,,,,,,,,,,,,,,,,,,,,,,,,,,,,,,,,,,,,,,,,,,,,,,,,,,,,,,,,,,,,,,,,,,
,,610309d6b51e8a9a5da8a6f4,2022-09-08_13h56.03.859,CGTgamblingSpanTasks,2022.2.1,MacIntel,60.14675809,return,9.3084,,,,,,,,,,,,,,,,,,,,,,,,,,,,,,,,,,,,,,,,,,,,,,,,,,,,,,,,,,,,,,,,,,,,,,,,,,,,,,,,,,,,,,,,,,,,,,,,,,,,,,,,,,,,,,,,,,,,,,,,,,,,,,,,,,,,,
,,610309d6b51e8a9a5da8a6f4,2022-09-08_13h56.03.859,CGTgamblingSpanTasks,2022.2.1,MacIntel,60.14675809,,,v,6.3202,,,,,,,,,,,,,,,,,,,,,,,,,,,,,,,,,,,,,,,,,,,,,,,,,,,,,,,,,,,,,,,,,,,,,,,,,,,,,,,,,,,,,,,,,,,,,,,,,,,,,,,,,,,,,,,,,,,,,,,,,,,,,,,,,,,
,,610309d6b51e8a9a5da8a6f4,2022-09-08_13h56.03.859,CGTgamblingSpanTasks,2022.2.1,MacIntel,60.14675809,,,,,n,2.6802,9.45,1.3198,0,0,0,0,1,18.23,0,9.45,2,1,1,,,,,,,,,,,,,,,,,,,,,,,,,,,,,,,,,,,,,,,,,,,,,,,,,,,,,,,,,,,,,,,,,,,,,,,,,,,,,,,,,,,,,,,,,,,,,,,,,,,,,,,,,,,,,,,,,,,,
,,610309d6b51e8a9a5da8a6f4,2022-09-08_13h56.03.859,CGTgamblingSpanTasks,2022.2.1,MacIntel,60.14675809,,,,,n,2.8086,35.16,1.1914,0,1,1,1,1,53.27,0,35.16,1,1.5,1,,,,,,,,,,,,,,,,,,,,,,,,,,,,,,,,,,,,,,,,,,,,,,,,,,,,,,,,,,,,,,,,,,,,,,,,,,,,,,,,,,,,,,,,,,,,,,,,,,,,,,,,,,,,,,,,,,,,
,,610309d6b51e8a9a5da8a6f4,2022-09-08_13h56.03.859,CGTgamblingSpanTasks,2022.2.1,MacIntel,60.14675809,,,,,n,1.9304,0,2.0696,0,2,2,2,1,8.27,0,1.15,1,1.5,2,,,,,,,,,,,,,,,,,,,,,,,,,,,,,,,,,,,,,,,,,,,,,,,,,,,,,,,,,,,,,,,,,,,,,,,,,,,,,,,,,,,,,,,,,,,,,,,,,,,,,,,,,,,,,,,,,,,,
,,610309d6b51e8a9a5da8a6f4,2022-09-08_13h56.03.859,CGTgamblingSpanTasks,2022.2.1,MacIntel,60.14675809,,,,,n,1.7452,40.41,2.2548,0,3,3,3,1,45.88,0,40.41,3,1,1,,,,,,,,,,,,,,,,,,,,,,,,,,,,,,,,,,,,,,,,,,,,,,,,,,,,,,,,,,,,,,,,,,,,,,,,,,,,,,,,,,,,,,,,,,,,,,,,,,,,,,,,,,,,,,,,,,,,
,,610309d6b51e8a9a5da8a6f4,2022-09-08_13h56.03.859,CGTgamblingSpanTasks,2022.2.1,MacIntel,60.14675809,,,,,n,2.8414,0,1.1586,0,4,4,4,1,21.56,0,11.96,1,1.5,2,,,,,,,,,,,,,,,,,,,,,,,,,,,,,,,,,,,,,,,,,,,,,,,,,,,,,,,,,,,,,,,,,,,,,,,,,,,,,,,,,,,,,,,,,,,,,,,,,,,,,,,,,,,,,,,,,,,,
,,610309d6b51e8a9a5da8a6f4,2022-09-08_13h56.03.859,CGTgamblingSpanTasks,2022.2.1,MacIntel,60.14675809,,,,,,,,,,,,,,,,,,,,n,2.7866,,,,,,,,,,,,,,,,,,,,,,,,,,,,,,,,,,,,,,,,,,,,,,,,,,,,,,,,,,,,,,,,,,,,,,,,,,,,,,,,,,,,,,,,,,,,,,,,,,,,,,,,,,,,,,,,,,
,,610309d6b51e8a9a5da8a6f4,2022-09-08_13h56.03.859,CGTgamblingSpanTasks,2022.2.1,MacIntel,60.14675809,,,,,,,,2.2854,,,,,,,,,,,,,,2,n,1.7146,13.94,1,3.2854,1,0,0,0,8,1,13.94,0,5.03,0,,,,,,,,,,,,,,,,,,,,,,,,,,,,,,,,,,,,,,,,,,,,,,,,,,,,,,,,,,,,,,,,,,,,,,,,,,,,,,,,,,,,,,,,,,,,,,,,,,
,,610309d6b51e8a9a5da8a6f4,2022-09-08_13h56.03.859,CGTgamblingSpanTasks,2022.2.1,MacIntel,60.14675809,,,,,,,,1.6032,,,,,,,,,,,,,,2,n,2.3968,0,1,2.6032,1,0,1,1,16,1,12.36,0,5.82,0,,,,,,,,,,,,,,,,,,,,,,,,,,,,,,,,,,,,,,,,,,,,,,,,,,,,,,,,,,,,,,,,,,,,,,,,,,,,,,,,,,,,,,,,,,,,,,,,,,
,,610309d6b51e8a9a5da8a6f4,2022-09-08_13h56.03.859,CGTgamblingSpanTasks,2022.2.1,MacIntel,60.14675809,,,,,,,,2.0828,,,,,,,,,,,,,,2,n,1.9172,10.73,1,3.0828,1,0,2,2,30,1,10.73,0,6.63,0,,,,,,,,,,,,,,,,,,,,,,,,,,,,,,,,,,,,,,,,,,,,,,,,,,,,,,,,,,,,,,,,,,,,,,,,,,,,,,,,,,,,,,,,,,,,,,,,,,
,,610309d6b51e8a9a5da8a6f4,2022-09-08_13h56.03.859,CGTgamblingSpanTasks,2022.2.1,MacIntel,60.14675809,,,,,,,,2.1508,,,,,,,,,,,,,,1,v,1.8492,19.28,1,3.1508,1,0,3,3,13,1,19.28,0,8.36,0,,,,,,,,,,,,,,,,,,,,,,,,,,,,,,,,,,,,,,,,,,,,,,,,,,,,,,,,,,,,,,,,,,,,,,,,,,,,,,,,,,,,,,,,,,,,,,,,,,
,,610309d6b51e8a9a5da8a6f4,2022-09-08_13h56.03.859,CGTgamblingSpanTasks,2022.2.1,MacIntel,60.14675809,,,,,,,,1.6534,,,,,,,,,,,,,,1,v,2.3466,0,1,3.1534,1.5,0,4,4,32,1,10.55,0,6.73,0,,,,,,,,,,,,,,,,,,,,,,,,,,,,,,,,,,,,,,,,,,,,,,,,,,,,,,,,,,,,,,,,,,,,,,,,,,,,,,,,,,,,,,,,,,,,,,,,,,
,,610309d6b51e8a9a5da8a6f4,2022-09-08_13h56.03.859,CGTgamblingSpanTasks,2022.2.1,MacIntel,60.14675809,,,,,,,,1.7861,,,,,,,,,,,,,,1,v,2.2139,20.53,1,2.7861,1,0,5,5,9,1,20.53,0,7.73,0,,,,,,,,,,,,,,,,,,,,,,,,,,,,,,,,,,,,,,,,,,,,,,,,,,,,,,,,,,,,,,,,,,,,,,,,,,,,,,,,,,,,,,,,,,,,,,,,,,
,,610309d6b51e8a9a5da8a6f4,2022-09-08_13h56.03.859,CGTgamblingSpanTasks,2022.2.1,MacIntel,60.14675809,,,,,,,,2.3543,,,,,,,,,,,,,,2,n,1.6457,16.11,1,3.8543,1.5,0,6,6,43,1,16.11,6.99,6.99,1,,,,,,,,,,,,,,,,,,,,,,,,,,,,,,,,,,,,,,,,,,,,,,,,,,,,,,,,,,,,,,,,,,,,,,,,,,,,,,,,,,,,,,,,,,,,,,,,,,
,,610309d6b51e8a9a5da8a6f4,2022-09-08_13h56.03.859,CGTgamblingSpanTasks,2022.2.1,MacIntel,60.14675809,,,,,,,,1.6888,,,,,,,,,,,,,,1,n,2.3112,3.13,0,2.6888,1,0,7,7,47,1,0,0,3.13,1,,,,,,,,,,,,,,,,,,,,,,,,,,,,,,,,,,,,,,,,,,,,,,,,,,,,,,,,,,,,,,,,,,,,,,,,,,,,,,,,,,,,,,,,,,,,,,,,,,
,,610309d6b51e8a9a5da8a6f4,2022-09-08_13h56.03.859,CGTgamblingSpanTasks,2022.2.1,MacIntel,60.14675809,,,,,,,,2.3545,,,,,,,,,,,,,,1,v,1.6455,0,1,3.8545,1.5,0,8,8,3,1,25.2,0,5.4,0,,,,,,,,,,,,,,,,,,,,,,,,,,,,,,,,,,,,,,,,,,,,,,,,,,,,,,,,,,,,,,,,,,,,,,,,,,,,,,,,,,,,,,,,,,,,,,,,,,
,,610309d6b51e8a9a5da8a6f4,2022-09-08_13h56.03.859,CGTgamblingSpanTasks,2022.2.1,MacIntel,60.14675809,,,,,,,,1.8998,,,,,,,,,,,,,,2,n,2.1002,0,1,3.3998,1.5,0,9,9,27,1,16.6,0,9.7,0,,,,,,,,,,,,,,,,,,,,,,,,,,,,,,,,,,,,,,,,,,,,,,,,,,,,,,,,,,,,,,,,,,,,,,,,,,,,,,,,,,,,,,,,,,,,,,,,,,
,,610309d6b51e8a9a5da8a6f4,2022-09-08_13h56.03.859,CGTgamblingSpanTasks,2022.2.1,MacIntel,60.14675809,,,,,,,,2.0471,,,,,,,,,,,,,,2,n,1.9529,0,1,3.0471,1,0,10,10,24,1,11.43,0,6.29,0,,,,,,,,,,,,,,,,,,,,,,,,,,,,,,,,,,,,,,,,,,,,,,,,,,,,,,,,,,,,,,,,,,,,,,,,,,,,,,,,,,,,,,,,,,,,,,,,,,
,,610309d6b51e8a9a5da8a6f4,2022-09-08_13h56.03.859,CGTgamblingSpanTasks,2022.2.1,MacIntel,60.14675809,,,,,,,,2.3875,,,,,,,,,,,,,,2,n,1.6125,13.1,1,3.3875,1,0,11,11,44,1,13.1,7.73,4.68,1,,,,,,,,,,,,,,,,,,,,,,,,,,,,,,,,,,,,,,,,,,,,,,,,,,,,,,,,,,,,,,,,,,,,,,,,,,,,,,,,,,,,,,,,,,,,,,,,,,
,,610309d6b51e8a9a5da8a6f4,2022-09-08_13h56.03.859,CGTgamblingSpanTasks,2022.2.1,MacIntel,60.14675809,,,,,,,,2.2718,,,,,,,,,,,,,,2,n,1.7282,0,1,3.7718,1.5,0,12,12,26,1,11.2,0,6.4,0,,,,,,,,,,,,,,,,,,,,,,,,,,,,,,,,,,,,,,,,,,,,,,,,,,,,,,,,,,,,,,,,,,,,,,,,,,,,,,,,,,,,,,,,,,,,,,,,,,
,,610309d6b51e8a9a5da8a6f4,2022-09-08_13h56.03.859,CGTgamblingSpanTasks,2022.2.1,MacIntel,60.14675809,,,,,,,,2.2862,,,,,,,,,,,,,,2,n,1.7138,14.72,1,3.2862,1,0,13,13,6,1,14.72,0,4.64,0,,,,,,,,,,,,,,,,,,,,,,,,,,,,,,,,,,,,,,,,,,,,,,,,,,,,,,,,,,,,,,,,,,,,,,,,,,,,,,,,,,,,,,,,,,,,,,,,,,
,,610309d6b51e8a9a5da8a6f4,2022-09-08_13h56.03.859,CGTgamblingSpanTasks,2022.2.1,MacIntel,60.14675809,,,,,,,,1.3925,,,,,,,,,,,,,,1,v,2.6075,0,1,2.3925,1,0,14,14,28,1,10.95,0,6.53,0,,,,,,,,,,,,,,,,,,,,,,,,,,,,,,,,,,,,,,,,,,,,,,,,,,,,,,,,,,,,,,,,,,,,,,,,,,,,,,,,,,,,,,,,,,,,,,,,,,
,,610309d6b51e8a9a5da8a6f4,2022-09-08_13h56.03.859,CGTgamblingSpanTasks,2022.2.1,MacIntel,60.14675809,,,,,,,,1.784,,,,,,,,,,,,,,2,n,2.216,13.04,1,3.284,1.5,0,15,15,12,1,13.04,0,5.48,0,,,,,,,,,,,,,,,,,,,,,,,,,,,,,,,,,,,,,,,,,,,,,,,,,,,,,,,,,,,,,,,,,,,,,,,,,,,,,,,,,,,,,,,,,,,,,,,,,,
,,610309d6b51e8a9a5da8a6f4,2022-09-08_13h56.03.859,CGTgamblingSpanTasks,2022.2.1,MacIntel,60.14675809,,,,,,,,2.1719,,,,,,,,,,,,,,1,v,1.8281,0,1,3.1719,1,0,16,16,14,1,12.68,0,5.66,0,,,,,,,,,,,,,,,,,,,,,,,,,,,,,,,,,,,,,,,,,,,,,,,,,,,,,,,,,,,,,,,,,,,,,,,,,,,,,,,,,,,,,,,,,,,,,,,,,,
,,610309d6b51e8a9a5da8a6f4,2022-09-08_13h56.03.859,CGTgamblingSpanTasks,2022.2.1,MacIntel,60.14675809,,,,,,,,2.1907,,,,,,,,,,,,,,2,n,1.8093,28.21,1,3.6907,1.5,0,17,17,1,1,28.21,0,3.89,0,,,,,,,,,,,,,,,,,,,,,,,,,,,,,,,,,,,,,,,,,,,,,,,,,,,,,,,,,,,,,,,,,,,,,,,,,,,,,,,,,,,,,,,,,,,,,,,,,,
,,610309d6b51e8a9a5da8a6f4,2022-09-08_13h56.03.859,CGTgamblingSpanTasks,2022.2.1,MacIntel,60.14675809,,,,,,,,1.9027,,,,,,,,,,,,,,2,v,2.0973,6.94,0,3.4027,1.5,0,18,18,38,1,10.12,0,6.94,0,,,,,,,,,,,,,,,,,,,,,,,,,,,,,,,,,,,,,,,,,,,,,,,,,,,,,,,,,,,,,,,,,,,,,,,,,,,,,,,,,,,,,,,,,,,,,,,,,,
,,610309d6b51e8a9a5da8a6f4,2022-09-08_13h56.03.859,CGTgamblingSpanTasks,2022.2.1,MacIntel,60.14675809,,,,,,,,2.0056,,,,,,,,,,,,,,2,v,1.9944,10.02,0,3.0056,1,0,19,19,31,1,15.96,0,10.02,0,,,,,,,,,,,,,,,,,,,,,,,,,,,,,,,,,,,,,,,,,,,,,,,,,,,,,,,,,,,,,,,,,,,,,,,,,,,,,,,,,,,,,,,,,,,,,,,,,,
,,610309d6b51e8a9a5da8a6f4,2022-09-08_13h56.03.859,CGTgamblingSpanTasks,2022.2.1,MacIntel,60.14675809,,,,,,,,1.4224,,,,,,,,,,,,,,2,n,2.5776,0,1,2.4224,1,0,20,20,29,1,16.26,0,9.87,0,,,,,,,,,,,,,,,,,,,,,,,,,,,,,,,,,,,,,,,,,,,,,,,,,,,,,,,,,,,,,,,,,,,,,,,,,,,,,,,,,,,,,,,,,,,,,,,,,,
,,610309d6b51e8a9a5da8a6f4,2022-09-08_13h56.03.859,CGTgamblingSpanTasks,2022.2.1,MacIntel,60.14675809,,,,,,,,0.4617,,,,,,,,,,,,,,1,v,3.5383,0,1,1.9617,1.5,0,21,21,41,1,14.26,0,0,1,,,,,,,,,,,,,,,,,,,,,,,,,,,,,,,,,,,,,,,,,,,,,,,,,,,,,,,,,,,,,,,,,,,,,,,,,,,,,,,,,,,,,,,,,,,,,,,,,,
,,610309d6b51e8a9a5da8a6f4,2022-09-08_13h56.03.859,CGTgamblingSpanTasks,2022.2.1,MacIntel,60.14675809,,,,,,,,1.3839,,,,,,,,,,,,,,1,v,2.6161,19.86,1,2.8839,1.5,0,22,22,42,1,19.86,0,0,1,,,,,,,,,,,,,,,,,,,,,,,,,,,,,,,,,,,,,,,,,,,,,,,,,,,,,,,,,,,,,,,,,,,,,,,,,,,,,,,,,,,,,,,,,,,,,,,,,,
,,610309d6b51e8a9a5da8a6f4,2022-09-08_13h56.03.859,CGTgamblingSpanTasks,2022.2.1,MacIntel,60.14675809,,,,,,,,2.0555,,,,,,,,,,,,,,1,v,1.9445,0,1,3.5555,1.5,0,23,23,10,1,13.45,0,5.27,0,,,,,,,,,,,,,,,,,,,,,,,,,,,,,,,,,,,,,,,,,,,,,,,,,,,,,,,,,,,,,,,,,,,,,,,,,,,,,,,,,,,,,,,,,,,,,,,,,,
,,610309d6b51e8a9a5da8a6f4,2022-09-08_13h56.03.859,CGTgamblingSpanTasks,2022.2.1,MacIntel,60.14675809,,,,,,,,2.2309,,,,,,,,,,,,,,1,v,1.7691,17,1,3.2309,1,0,24,24,25,1,17,0,9.5,0,,,,,,,,,,,,,,,,,,,,,,,,,,,,,,,,,,,,,,,,,,,,,,,,,,,,,,,,,,,,,,,,,,,,,,,,,,,,,,,,,,,,,,,,,,,,,,,,,,
,,610309d6b51e8a9a5da8a6f4,2022-09-08_13h56.03.859,CGTgamblingSpanTasks,2022.2.1,MacIntel,60.14675809,,,,,,,,2.3541,,,,,,,,,,,,,,1,v,1.6459,16,1,3.3541,1,0,25,25,4,1,16,0,4,0,,,,,,,,,,,,,,,,,,,,,,,,,,,,,,,,,,,,,,,,,,,,,,,,,,,,,,,,,,,,,,,,,,,,,,,,,,,,,,,,,,,,,,,,,,,,,,,,,,
,,610309d6b51e8a9a5da8a6f4,2022-09-08_13h56.03.859,CGTgamblingSpanTasks,2022.2.1,MacIntel,60.14675809,,,,,,,,2.3416,,,,,,,,,,,,,,2,n,1.6584,0,1,3.8416,1.5,0,26,26,0,1,20.03,0,1.99,0,,,,,,,,,,,,,,,,,,,,,,,,,,,,,,,,,,,,,,,,,,,,,,,,,,,,,,,,,,,,,,,,,,,,,,,,,,,,,,,,,,,,,,,,,,,,,,,,,,
,,610309d6b51e8a9a5da8a6f4,2022-09-08_13h56.03.859,CGTgamblingSpanTasks,2022.2.1,MacIntel,60.14675809,,,,,,,,2.2326,,,,,,,,,,,,,,1,n,1.7674,9.92,0,3.2326,1,0,27,27,49,1,6.79,0,9.92,1,,,,,,,,,,,,,,,,,,,,,,,,,,,,,,,,,,,,,,,,,,,,,,,,,,,,,,,,,,,,,,,,,,,,,,,,,,,,,,,,,,,,,,,,,,,,,,,,,,
,,610309d6b51e8a9a5da8a6f4,2022-09-08_13h56.03.859,CGTgamblingSpanTasks,2022.2.1,MacIntel,60.14675809,,,,,,,,1.9645,,,,,,,,,,,,,,1,v,2.0355,15.09,1,3.4645,1.5,0,28,28,39,1,15.09,0,10.46,0,,,,,,,,,,,,,,,,,,,,,,,,,,,,,,,,,,,,,,,,,,,,,,,,,,,,,,,,,,,,,,,,,,,,,,,,,,,,,,,,,,,,,,,,,,,,,,,,,,
,,610309d6b51e8a9a5da8a6f4,2022-09-08_13h56.03.859,CGTgamblingSpanTasks,2022.2.1,MacIntel,60.14675809,,,,,,,,2.3659,,,,,,,,,,,,,,2,n,1.6341,15.47,1,3.8659,1.5,0,29,29,35,1,15.47,0,10.27,0,,,,,,,,,,,,,,,,,,,,,,,,,,,,,,,,,,,,,,,,,,,,,,,,,,,,,,,,,,,,,,,,,,,,,,,,,,,,,,,,,,,,,,,,,,,,,,,,,,
,,610309d6b51e8a9a5da8a6f4,2022-09-08_13h56.03.859,CGTgamblingSpanTasks,2022.2.1,MacIntel,60.14675809,,,,,,,,2.5309,,,,,,,,,,,,,,1,v,1.4691,19.86,1,4.0309,1.5,0,30,30,11,1,19.86,0,8.07,0,,,,,,,,,,,,,,,,,,,,,,,,,,,,,,,,,,,,,,,,,,,,,,,,,,,,,,,,,,,,,,,,,,,,,,,,,,,,,,,,,,,,,,,,,,,,,,,,,,
,,610309d6b51e8a9a5da8a6f4,2022-09-08_13h56.03.859,CGTgamblingSpanTasks,2022.2.1,MacIntel,60.14675809,,,,,,,,2.349,,,,,,,,,,,,,,2,n,1.651,18.33,1,3.849,1.5,0,31,31,17,1,18.33,0,8.84,0,,,,,,,,,,,,,,,,,,,,,,,,,,,,,,,,,,,,,,,,,,,,,,,,,,,,,,,,,,,,,,,,,,,,,,,,,,,,,,,,,,,,,,,,,,,,,,,,,,
,,610309d6b51e8a9a5da8a6f4,2022-09-08_13h56.03.859,CGTgamblingSpanTasks,2022.2.1,MacIntel,60.14675809,,,,,,,,2.2703,,,,,,,,,,,,,,1,v,1.7297,0,1,3.2703,1,0,32,32,2,1,17.73,0,3.13,0,,,,,,,,,,,,,,,,,,,,,,,,,,,,,,,,,,,,,,,,,,,,,,,,,,,,,,,,,,,,,,,,,,,,,,,,,,,,,,,,,,,,,,,,,,,,,,,,,,
,,610309d6b51e8a9a5da8a6f4,2022-09-08_13h56.03.859,CGTgamblingSpanTasks,2022.2.1,MacIntel,60.14675809,,,,,,,,1.6387,,,,,,,,,,,,,,2,n,2.3613,11.62,1,2.6387,1,0,33,33,22,1,11.62,0,6.19,0,,,,,,,,,,,,,,,,,,,,,,,,,,,,,,,,,,,,,,,,,,,,,,,,,,,,,,,,,,,,,,,,,,,,,,,,,,,,,,,,,,,,,,,,,,,,,,,,,,
,,610309d6b51e8a9a5da8a6f4,2022-09-08_13h56.03.859,CGTgamblingSpanTasks,2022.2.1,MacIntel,60.14675809,,,,,,,,1.9569,,,,,,,,,,,,,,2,v,2.0431,10.68,0,3.4569,1.5,0,34,34,48,1,10.68,0,10.68,1,,,,,,,,,,,,,,,,,,,,,,,,,,,,,,,,,,,,,,,,,,,,,,,,,,,,,,,,,,,,,,,,,,,,,,,,,,,,,,,,,,,,,,,,,,,,,,,,,,
,,610309d6b51e8a9a5da8a6f4,2022-09-08_13h56.03.859,CGTgamblingSpanTasks,2022.2.1,MacIntel,60.14675809,,,,,,,,2.1787,,,,,,,,,,,,,,1,v,1.8213,18.77,1,3.1787,1,0,35,35,15,1,18.77,0,8.61,0,,,,,,,,,,,,,,,,,,,,,,,,,,,,,,,,,,,,,,,,,,,,,,,,,,,,,,,,,,,,,,,,,,,,,,,,,,,,,,,,,,,,,,,,,,,,,,,,,,
,,610309d6b51e8a9a5da8a6f4,2022-09-08_13h56.03.859,CGTgamblingSpanTasks,2022.2.1,MacIntel,60.14675809,,,,,,,,2.3225,,,,,,,,,,,,,,1,n,1.6775,7.55,0,3.3225,1,0,36,36,45,1,0,0,7.55,1,,,,,,,,,,,,,,,,,,,,,,,,,,,,,,,,,,,,,,,,,,,,,,,,,,,,,,,,,,,,,,,,,,,,,,,,,,,,,,,,,,,,,,,,,,,,,,,,,,
,,610309d6b51e8a9a5da8a6f4,2022-09-08_13h56.03.859,CGTgamblingSpanTasks,2022.2.1,MacIntel,60.14675809,,,,,,,,2.5042,,,,,,,,,,,,,,2,n,1.4958,15.7,1,3.5042,1,0,37,37,33,1,15.7,0,10.15,0,,,,,,,,,,,,,,,,,,,,,,,,,,,,,,,,,,,,,,,,,,,,,,,,,,,,,,,,,,,,,,,,,,,,,,,,,,,,,,,,,,,,,,,,,,,,,,,,,,
,,610309d6b51e8a9a5da8a6f4,2022-09-08_13h56.03.859,CGTgamblingSpanTasks,2022.2.1,MacIntel,60.14675809,,,,,,,,2.2493,,,,,,,,,,,,,,1,v,1.7507,17.59,1,3.7493,1.5,0,38,38,21,1,17.59,0,9.2,0,,,,,,,,,,,,,,,,,,,,,,,,,,,,,,,,,,,,,,,,,,,,,,,,,,,,,,,,,,,,,,,,,,,,,,,,,,,,,,,,,,,,,,,,,,,,,,,,,,
,,610309d6b51e8a9a5da8a6f4,2022-09-08_13h56.03.859,CGTgamblingSpanTasks,2022.2.1,MacIntel,60.14675809,,,,,,,,2.7204,,,,,,,,,,,,,,2,n,1.2796,22.97,1,3.7204,1,0,39,39,5,1,22.97,0,6.51,0,,,,,,,,,,,,,,,,,,,,,,,,,,,,,,,,,,,,,,,,,,,,,,,,,,,,,,,,,,,,,,,,,,,,,,,,,,,,,,,,,,,,,,,,,,,,,,,,,,
,,610309d6b51e8a9a5da8a6f4,2022-09-08_13h56.03.859,CGTgamblingSpanTasks,2022.2.1,MacIntel,60.14675809,,,,,,,,2.3202,,,,,,,,,,,,,,2,n,1.6798,0,1,3.8202,1.5,0,40,40,23,1,17.28,0,9.36,0,,,,,,,,,,,,,,,,,,,,,,,,,,,,,,,,,,,,,,,,,,,,,,,,,,,,,,,,,,,,,,,,,,,,,,,,,,,,,,,,,,,,,,,,,,,,,,,,,,
,,610309d6b51e8a9a5da8a6f4,2022-09-08_13h56.03.859,CGTgamblingSpanTasks,2022.2.1,MacIntel,60.14675809,,,,,,,,2.6852,,,,,,,,,,,,,,1,v,1.3148,0,1,3.6852,1,0,41,41,37,1,15.27,0,10.37,0,,,,,,,,,,,,,,,,,,,,,,,,,,,,,,,,,,,,,,,,,,,,,,,,,,,,,,,,,,,,,,,,,,,,,,,,,,,,,,,,,,,,,,,,,,,,,,,,,,
,,610309d6b51e8a9a5da8a6f4,2022-09-08_13h56.03.859,CGTgamblingSpanTasks,2022.2.1,MacIntel,60.14675809,,,,,,,,2.2703,,,,,,,,,,,,,,2,n,1.7297,0,1,3.7703,1.5,0,42,42,40,1,10.35,0,0,1,,,,,,,,,,,,,,,,,,,,,,,,,,,,,,,,,,,,,,,,,,,,,,,,,,,,,,,,,,,,,,,,,,,,,,,,,,,,,,,,,,,,,,,,,,,,,,,,,,
,,610309d6b51e8a9a5da8a6f4,2022-09-08_13h56.03.859,CGTgamblingSpanTasks,2022.2.1,MacIntel,60.14675809,,,,,,,,1.6743,,,,,,,,,,,,,,2,n,2.3257,0,1,3.1743,1.5,0,43,43,34,1,10.39,0,6.81,0,,,,,,,,,,,,,,,,,,,,,,,,,,,,,,,,,,,,,,,,,,,,,,,,,,,,,,,,,,,,,,,,,,,,,,,,,,,,,,,,,,,,,,,,,,,,,,,,,,
,,610309d6b51e8a9a5da8a6f4,2022-09-08_13h56.03.859,CGTgamblingSpanTasks,2022.2.1,MacIntel,60.14675809,,,,,,,,2.3535,,,,,,,,,,,,,,2,v,1.6465,10.25,0,3.8535,1.5,0,44,44,46,1,0,0,10.25,1,,,,,,,,,,,,,,,,,,,,,,,,,,,,,,,,,,,,,,,,,,,,,,,,,,,,,,,,,,,,,,,,,,,,,,,,,,,,,,,,,,,,,,,,,,,,,,,,,,
,,610309d6b51e8a9a5da8a6f4,2022-09-08_13h56.03.859,CGTgamblingSpanTasks,2022.2.1,MacIntel,60.14675809,,,,,,,,1.2518,,,,,,,,,,,,,,2,n,2.7482,0,1,2.7518,1.5,0,45,45,19,1,17.94,0,9.03,0,,,,,,,,,,,,,,,,,,,,,,,,,,,,,,,,,,,,,,,,,,,,,,,,,,,,,,,,,,,,,,,,,,,,,,,,,,,,,,,,,,,,,,,,,,,,,,,,,,
,,610309d6b51e8a9a5da8a6f4,2022-09-08_13h56.03.859,CGTgamblingSpanTasks,2022.2.1,MacIntel,60.14675809,,,,,,,,2.3731,,,,,,,,,,,,,,2,n,1.6269,0,1,3.8731,1.5,0,46,46,20,1,11.84,0,6.08,0,,,,,,,,,,,,,,,,,,,,,,,,,,,,,,,,,,,,,,,,,,,,,,,,,,,,,,,,,,,,,,,,,,,,,,,,,,,,,,,,,,,,,,,,,,,,,,,,,,
,,610309d6b51e8a9a5da8a6f4,2022-09-08_13h56.03.859,CGTgamblingSpanTasks,2022.2.1,MacIntel,60.14675809,,,,,,,,2.5691,,,,,,,,,,,,,,2,n,1.4309,10.24,1,4.0691,1.5,0,47,47,36,1,10.24,0,6.88,0,,,,,,,,,,,,,,,,,,,,,,,,,,,,,,,,,,,,,,,,,,,,,,,,,,,,,,,,,,,,,,,,,,,,,,,,,,,,,,,,,,,,,,,,,,,,,,,,,,
,,610309d6b51e8a9a5da8a6f4,2022-09-08_13h56.03.859,CGTgamblingSpanTasks,2022.2.1,MacIntel,60.14675809,,,,,,,,2.158,,,,,,,,,,,,,,1,v,1.842,12.08,1,3.158,1,0,48,48,18,1,12.08,0,5.96,0,,,,,,,,,,,,,,,,,,,,,,,,,,,,,,,,,,,,,,,,,,,,,,,,,,,,,,,,,,,,,,,,,,,,,,,,,,,,,,,,,,,,,,,,,,,,,,,,,,
,,610309d6b51e8a9a5da8a6f4,2022-09-08_13h56.03.859,CGTgamblingSpanTasks,2022.2.1,MacIntel,60.14675809,,,,,,,,0.7084,,,,,,,,,,,,,,2,n,3.2916,21.32,1,1.7084,1,0,49,49,7,1,21.32,0,7.34,0,,,,,,,,,,,,,,,,,,,,,,,,,,,,,,,,,,,,,,,,,,,,,,,,,,,,,,,,,,,,,,,,,,,,,,,,,,,,,,,,,,,,,,,,,,,,,,,,,,
,,610309d6b51e8a9a5da8a6f4,2022-09-08_13h56.03.859,CGTgamblingSpanTasks,2022.2.1,MacIntel,60.14675809,,,,,,,,,,,,,,,,,,,,,,,,,,,,,,,,,,,,,,bespoke_choiceset_rhoInd183_muInd201.csv,bespoke_choicesets/bespoke_choiceset_rhoInd183_muInd201.csv,183,201,0,0,0,0,1,,,,,,,,,,,,,,,,,,,,,,,,,,,,,,,,,,,,,,,,,,,,,,,,,,,,,,,,,,,,,,,,,,,,,,,,,,,,,,,,,,,,,,,,,
,,610309d6b51e8a9a5da8a6f4,2022-09-08_13h56.03.859,CGTgamblingSpanTasks,2022.2.1,MacIntel,60.14675809,,,,,,,,,,,,,,,,,,,,,,,,,,,,,,,,,,,,,,,,,,,,,,,,,,,,,,,,,,,,,,,,,,,,,,,,,,,,,,,,,,,,,,,,,,,,,,,,,,,,,,,,,,,,,,,,,,,,,,,,,,,,,,,,,,,,,,,
,,610309d6b51e8a9a5da8a6f4,2022-09-08_13h56.03.859,CGTgamblingSpanTasks,2022.2.1,MacIntel,60.14675809,,,,,,,,,,,,,,,,,,,,,,,,,,,,,,,,,,,,,,,,,,,,,,,n,3.4522,,,,,,,,,,,,,,,,,,,,,,,,,,,,,,,,,,,,,,,,,,,,,,,,,,,,,,,,,,,,,,,,,,,,,,,,,,,,,,,,,,,,,,,
,,610309d6b51e8a9a5da8a6f4,2022-09-08_13h56.03.859,CGTgamblingSpanTasks,2022.2.1,MacIntel,60.14675809,,,,,,,,2.2461,,,,,,,,,,,,,,1,n,1.7539,7.646213173,0,3.7461,1.5,,,,,,2.042350179,0,7.646213173,,,,,,,,,,,,,0,0,0,53,1,0.009522273,0,,,,,,,,,,,,,,,,,,,,,,,,,,,,,,,,,,,,,,,,,,,,,,,,,,,,,,,,,,,,,,,,,,,,,,,,,,,,,,,,
,,610309d6b51e8a9a5da8a6f4,2022-09-08_13h56.03.859,CGTgamblingSpanTasks,2022.2.1,MacIntel,60.14675809,,,,,,,,1.5917,,,,,,,,,,,,,,1,v,2.4083,0,1,3.0917,1.5,,,,,,25.0707644,0,0.067651625,,,,,,,,,,,,,0,1,1,70,1,0.909952349,0,,,,,,,,,,,,,,,,,,,,,,,,,,,,,,,,,,,,,,,,,,,,,,,,,,,,,,,,,,,,,,,,,,,,,,,,,,,,,,,,
,,610309d6b51e8a9a5da8a6f4,2022-09-08_13h56.03.859,CGTgamblingSpanTasks,2022.2.1,MacIntel,60.14675809,,,,,,,,1.2508,,,,,,,,,,,,,,2,n,2.7492,21.46599803,1,2.2508,1,,,,,,21.46599803,0,0.059789256,,,,,,,,,,,,,0,2,2,8,1,0.909019081,0,,,,,,,,,,,,,,,,,,,,,,,,,,,,,,,,,,,,,,,,,,,,,,,,,,,,,,,,,,,,,,,,,,,,,,,,,,,,,,,,
,,610309d6b51e8a9a5da8a6f4,2022-09-08_13h56.03.859,CGTgamblingSpanTasks,2022.2.1,MacIntel,60.14675809,,,,,,,,2.5561,,,,,,,,,,,,,,2,n,1.4439,7.534278541,1,4.0561,1.5,,,,,,7.534278541,0,0.747140182,,,,,,,,,,,,,0,3,3,37,1,0.50012466,1,,,,,,,,,,,,,,,,,,,,,,,,,,,,,,,,,,,,,,,,,,,,,,,,,,,,,,,,,,,,,,,,,,,,,,,,,,,,,,,,
,,610309d6b51e8a9a5da8a6f4,2022-09-08_13h56.03.859,CGTgamblingSpanTasks,2022.2.1,MacIntel,60.14675809,,,,,,,,1.9194,,,,,,,,,,,,,,1,v,2.0806,17.5608285,1,2.9194,1,,,,,,17.5608285,0,1.825111303,,,,,,,,,,,,,0,4,4,104,1,0.487721116,1,,,,,,,,,,,,,,,,,,,,,,,,,,,,,,,,,,,,,,,,,,,,,,,,,,,,,,,,,,,,,,,,,,,,,,,,,,,,,,,,
,,610309d6b51e8a9a5da8a6f4,2022-09-08_13h56.03.859,CGTgamblingSpanTasks,2022.2.1,MacIntel,60.14675809,,,,,,,,2.2195,,,,,,,,,,,,,,1,v,1.7805,26.11188619,1,3.7195,1.5,,,,,,26.11188619,0,0.081942421,,,,,,,,,,,,,0,5,5,105,1,0.905343856,0,,,,,,,,,,,,,,,,,,,,,,,,,,,,,,,,,,,,,,,,,,,,,,,,,,,,,,,,,,,,,,,,,,,,,,,,,,,,,,,,
,,610309d6b51e8a9a5da8a6f4,2022-09-08_13h56.03.859,CGTgamblingSpanTasks,2022.2.1,MacIntel,60.14675809,,,,,,,,2.3129,,,,,,,,,,,,,,1,v,1.6871,0,1,3.8129,1.5,,,,,,25.21882231,0,0.085746782,,,,,,,,,,,,,0,6,6,64,1,0.90272076,0,,,,,,,,,,,,,,,,,,,,,,,,,,,,,,,,,,,,,,,,,,,,,,,,,,,,,,,,,,,,,,,,,,,,,,,,,,,,,,,,
,,610309d6b51e8a9a5da8a6f4,2022-09-08_13h56.03.859,CGTgamblingSpanTasks,2022.2.1,MacIntel,60.14675809,,,,,,,,2.2897,,,,,,,,,,,,,,1,v,1.7103,28.14876717,1,3.2897,1,,,,,,28.14876717,0,3.117906378,,,,,,,,,,,,,0,7,7,76,1,0.470636736,1,,,,,,,,,,,,,,,,,,,,,,,,,,,,,,,,,,,,,,,,,,,,,,,,,,,,,,,,,,,,,,,,,,,,,,,,,,,,,,,,
,,610309d6b51e8a9a5da8a6f4,2022-09-08_13h56.03.859,CGTgamblingSpanTasks,2022.2.1,MacIntel,60.14675809,,,,,,,,1.7713,,,,,,,,,,,,,,2,v,2.2287,11.93550497,0,2.7713,1,,,,,,14.20587264,0,11.93550497,,,,,,,,,,,,,0,8,8,21,1,0.041340301,0,,,,,,,,,,,,,,,,,,,,,,,,,,,,,,,,,,,,,,,,,,,,,,,,,,,,,,,,,,,,,,,,,,,,,,,,,,,,,,,,
,,610309d6b51e8a9a5da8a6f4,2022-09-08_13h56.03.859,CGTgamblingSpanTasks,2022.2.1,MacIntel,60.14675809,,,,,,,,1.9697,,,,,,,,,,,,,,1,n,2.0303,11.61882862,0,2.9697,1,,,,,,4.022743614,0,11.61882862,,,,,,,,,,,,,0,9,9,38,1,0.011499376,0,,,,,,,,,,,,,,,,,,,,,,,,,,,,,,,,,,,,,,,,,,,,,,,,,,,,,,,,,,,,,,,,,,,,,,,,,,,,,,,,
,,610309d6b51e8a9a5da8a6f4,2022-09-08_13h56.03.859,CGTgamblingSpanTasks,2022.2.1,MacIntel,60.14675809,,,,,,,,2.3009,,,,,,,,,,,,,,2,n,1.6991,0,1,3.3009,1,,,,,,27.7711693,0,2.320849632,,,,,,,,,,,,,0,10,10,94,1,0.543786368,1,,,,,,,,,,,,,,,,,,,,,,,,,,,,,,,,,,,,,,,,,,,,,,,,,,,,,,,,,,,,,,,,,,,,,,,,,,,,,,,,
,,610309d6b51e8a9a5da8a6f4,2022-09-08_13h56.03.859,CGTgamblingSpanTasks,2022.2.1,MacIntel,60.14675809,,,,,,,,2.3967,,,,,,,,,,,,,,1,v,1.6033,17.4320197,1,3.8967,1.5,,,,,,17.4320197,0,1.448620949,,,,,,,,,,,,,0,11,11,30,1,0.545178213,1,,,,,,,,,,,,,,,,,,,,,,,,,,,,,,,,,,,,,,,,,,,,,,,,,,,,,,,,,,,,,,,,,,,,,,,,,,,,,,,,
,,610309d6b51e8a9a5da8a6f4,2022-09-08_13h56.03.859,CGTgamblingSpanTasks,2022.2.1,MacIntel,60.14675809,,,,,,,,2.5575,,,,,,,,,,,,,,2,n,1.4425,0,1,4.0575,1.5,,,,,,17.23907308,0,2.055848574,,,,,,,,,,,,,0,12,12,66,1,0.450504458,1,,,,,,,,,,,,,,,,,,,,,,,,,,,,,,,,,,,,,,,,,,,,,,,,,,,,,,,,,,,,,,,,,,,,,,,,,,,,,,,,
,,610309d6b51e8a9a5da8a6f4,2022-09-08_13h56.03.859,CGTgamblingSpanTasks,2022.2.1,MacIntel,60.14675809,,,,,,,,2.5833,,,,,,,,,,,,,,1,v,1.4167,0,1,3.5833,1,,,,,,17.92584289,0,1.878232496,,,,,,,,,,,,,0,13,13,5,1,0.485559263,1,,,,,,,,,,,,,,,,,,,,,,,,,,,,,,,,,,,,,,,,,,,,,,,,,,,,,,,,,,,,,,,,,,,,,,,,,,,,,,,,
,,610309d6b51e8a9a5da8a6f4,2022-09-08_13h56.03.859,CGTgamblingSpanTasks,2022.2.1,MacIntel,60.14675809,,,,,,,,2.4492,,,,,,,,,,,,,,2,n,1.5508,15.43649625,1,3.4492,1,,,,,,15.43649625,0,1.65459324,,,,,,,,,,,,,0,14,14,33,1,0.479480163,1,,,,,,,,,,,,,,,,,,,,,,,,,,,,,,,,,,,,,,,,,,,,,,,,,,,,,,,,,,,,,,,,,,,,,,,,,,,,,,,,
,,610309d6b51e8a9a5da8a6f4,2022-09-08_13h56.03.859,CGTgamblingSpanTasks,2022.2.1,MacIntel,60.14675809,,,,,,,,2.3994,,,,,,,,,,,,,,1,v,1.6006,0,1,3.3994,1,,,,,,13.84410806,0,1.535873964,,,,,,,,,,,,,0,15,15,88,1,0.470209002,1,,,,,,,,,,,,,,,,,,,,,,,,,,,,,,,,,,,,,,,,,,,,,,,,,,,,,,,,,,,,,,,,,,,,,,,,,,,,,,,,
,,610309d6b51e8a9a5da8a6f4,2022-09-08_13h56.03.859,CGTgamblingSpanTasks,2022.2.1,MacIntel,60.14675809,,,,,,,,1.9989,,,,,,,,,,,,,,2,n,2.0011,0,1,2.9989,1,,,,,,19.36415485,0,1.966229494,,,,,,,,,,,,,0,16,16,96,1,0.493893111,1,,,,,,,,,,,,,,,,,,,,,,,,,,,,,,,,,,,,,,,,,,,,,,,,,,,,,,,,,,,,,,,,,,,,,,,,,,,,,,,,
,,610309d6b51e8a9a5da8a6f4,2022-09-08_13h56.03.859,CGTgamblingSpanTasks,2022.2.1,MacIntel,60.14675809,,,,,,,,2.2932,,,,,,,,,,,,,,1,v,1.7068,0,1,3.7932,1.5,,,,,,26.36733703,0,2.201057101,,,,,,,,,,,,,0,17,17,90,1,0.544064207,1,,,,,,,,,,,,,,,,,,,,,,,,,,,,,,,,,,,,,,,,,,,,,,,,,,,,,,,,,,,,,,,,,,,,,,,,,,,,,,,,
,,610309d6b51e8a9a5da8a6f4,2022-09-08_13h56.03.859,CGTgamblingSpanTasks,2022.2.1,MacIntel,60.14675809,,,,,,,,2.6382,,,,,,,,,,,,,,1,v,1.3618,0,1,4.1382,1.5,,,,,,19.3050342,0,2.030232342,,,,,,,,,,,,,0,18,18,73,1,0.484573227,1,,,,,,,,,,,,,,,,,,,,,,,,,,,,,,,,,,,,,,,,,,,,,,,,,,,,,,,,,,,,,,,,,,,,,,,,,,,,,,,,
,,610309d6b51e8a9a5da8a6f4,2022-09-08_13h56.03.859,CGTgamblingSpanTasks,2022.2.1,MacIntel,60.14675809,,,,,,,,1.6813,,,,,,,,,,,,,,1,v,2.3187,18.16238569,1,3.1813,1.5,,,,,,18.16238569,0,1.540604093,,,,,,,,,,,,,0,19,19,34,1,0.540092491,1,,,,,,,,,,,,,,,,,,,,,,,,,,,,,,,,,,,,,,,,,,,,,,,,,,,,,,,,,,,,,,,,,,,,,,,,,,,,,,,,
,,610309d6b51e8a9a5da8a6f4,2022-09-08_13h56.03.859,CGTgamblingSpanTasks,2022.2.1,MacIntel,60.14675809,,,,,,,,1.2238,,,,,,,,,,,,,,1,v,2.7762,27.38828234,1,2.7238,1.5,,,,,,27.38828234,0,0.0639233,,,,,,,,,,,,,0,20,20,43,1,0.914010176,0,,,,,,,,,,,,,,,,,,,,,,,,,,,,,,,,,,,,,,,,,,,,,,,,,,,,,,,,,,,,,,,,,,,,,,,,,,,,,,,,
,,610309d6b51e8a9a5da8a6f4,2022-09-08_13h56.03.859,CGTgamblingSpanTasks,2022.2.1,MacIntel,60.14675809,,,,,,,,2.0782,,,,,,,,,,,,,,2,n,1.9218,21.39646914,1,3.0782,1,,,,,,21.39646914,0,0.072474078,,,,,,,,,,,,,0,21,21,3,1,0.902848133,0,,,,,,,,,,,,,,,,,,,,,,,,,,,,,,,,,,,,,,,,,,,,,,,,,,,,,,,,,,,,,,,,,,,,,,,,,,,,,,,,
,,610309d6b51e8a9a5da8a6f4,2022-09-08_13h56.03.859,CGTgamblingSpanTasks,2022.2.1,MacIntel,60.14675809,,,,,,,,2.2519,,,,,,,,,,,,,,1,v,1.7481,0,1,3.2519,1,,,,,,8.217594828,0,0.951019374,,,,,,,,,,,,,0,22,22,87,1,0.458722936,1,,,,,,,,,,,,,,,,,,,,,,,,,,,,,,,,,,,,,,,,,,,,,,,,,,,,,,,,,,,,,,,,,,,,,,,,,,,,,,,,
,,610309d6b51e8a9a5da8a6f4,2022-09-08_13h56.03.859,CGTgamblingSpanTasks,2022.2.1,MacIntel,60.14675809,,,,,,,,1.9171,,,,,,,,,,,,,,1,n,2.0829,6.833409611,0,3.4171,1.5,,,,,,6.325091157,0,6.833409611,,,,,,,,,,,,,0,23,23,58,1,0.027113638,0,,,,,,,,,,,,,,,,,,,,,,,,,,,,,,,,,,,,,,,,,,,,,,,,,,,,,,,,,,,,,,,,,,,,,,,,,,,,,,,,
,,610309d6b51e8a9a5da8a6f4,2022-09-08_13h56.03.859,CGTgamblingSpanTasks,2022.2.1,MacIntel,60.14675809,,,,,,,,2.3378,,,,,,,,,,,,,,1,v,1.6622,0,1,3.8378,1.5,,,,,,21.03408097,0,2.208275162,,,,,,,,,,,,,0,24,24,0,1,0.485031246,1,,,,,,,,,,,,,,,,,,,,,,,,,,,,,,,,,,,,,,,,,,,,,,,,,,,,,,,,,,,,,,,,,,,,,,,,,,,,,,,,
,,610309d6b51e8a9a5da8a6f4,2022-09-08_13h56.03.859,CGTgamblingSpanTasks,2022.2.1,MacIntel,60.14675809,,,,,,,,2.0342,,,,,,,,,,,,,,1,n,1.9658,11.19311486,0,3.5342,1.5,,,,,,8.17598802,0,11.19311486,,,,,,,,,,,,,0,25,25,110,1,0.021568003,0,,,,,,,,,,,,,,,,,,,,,,,,,,,,,,,,,,,,,,,,,,,,,,,,,,,,,,,,,,,,,,,,,,,,,,,,,,,,,,,,
,,610309d6b51e8a9a5da8a6f4,2022-09-08_13h56.03.859,CGTgamblingSpanTasks,2022.2.1,MacIntel,60.14675809,,,,,,,,2.0054,,,,,,,,,,,,,,1,v,1.9946,0,1,3.0054,1,,,,,,24.8002852,0,0.071848086,,,,,,,,,,,,,0,26,26,16,1,0.90783559,0,,,,,,,,,,,,,,,,,,,,,,,,,,,,,,,,,,,,,,,,,,,,,,,,,,,,,,,,,,,,,,,,,,,,,,,,,,,,,,,,
,,610309d6b51e8a9a5da8a6f4,2022-09-08_13h56.03.859,CGTgamblingSpanTasks,2022.2.1,MacIntel,60.14675809,,,,,,,,2.1863,,,,,,,,,,,,,,1,v,1.8137,0,1,3.6863,1.5,,,,,,24.66627941,0,2.765426402,,,,,,,,,,,,,0,27,27,24,1,0.467360588,1,,,,,,,,,,,,,,,,,,,,,,,,,,,,,,,,,,,,,,,,,,,,,,,,,,,,,,,,,,,,,,,,,,,,,,,,,,,,,,,,
,,610309d6b51e8a9a5da8a6f4,2022-09-08_13h56.03.859,CGTgamblingSpanTasks,2022.2.1,MacIntel,60.14675809,,,,,,,,2.7239,,,,,,,,,,,,,,1,v,1.2761,0,1,3.7239,1,,,,,,27.60724521,0,0.088432325,,,,,,,,,,,,,0,28,28,17,1,0.904684186,0,,,,,,,,,,,,,,,,,,,,,,,,,,,,,,,,,,,,,,,,,,,,,,,,,,,,,,,,,,,,,,,,,,,,,,,,,,,,,,,,
,,610309d6b51e8a9a5da8a6f4,2022-09-08_13h56.03.859,CGTgamblingSpanTasks,2022.2.1,MacIntel,60.14675809,,,,,,,,2.3988,,,,,,,,,,,,,,1,v,1.6012,0,1,3.3988,1,,,,,,22.72923833,0,0.067170781,,,,,,,,,,,,,0,29,29,86,1,0.907226703,0,,,,,,,,,,,,,,,,,,,,,,,,,,,,,,,,,,,,,,,,,,,,,,,,,,,,,,,,,,,,,,,,,,,,,,,,,,,,,,,,
,,610309d6b51e8a9a5da8a6f4,2022-09-08_13h56.03.859,CGTgamblingSpanTasks,2022.2.1,MacIntel,60.14675809,,,,,,,,2.3207,,,,,,,,,,,,,,2,n,1.6793,17.85020524,1,3.8207,1.5,,,,,,17.85020524,0,2.058701084,,,,,,,,,,,,,0,30,30,25,1,0.459662216,1,,,,,,,,,,,,,,,,,,,,,,,,,,,,,,,,,,,,,,,,,,,,,,,,,,,,,,,,,,,,,,,,,,,,,,,,,,,,,,,,
,,610309d6b51e8a9a5da8a6f4,2022-09-08_13h56.03.859,CGTgamblingSpanTasks,2022.2.1,MacIntel,60.14675809,,,,,,,,2.4183,,,,,,,,,,,,,,1,v,1.5817,28.33977875,1,3.9183,1.5,,,,,,28.33977875,0,2.768313633,,,,,,,,,,,,,0,31,31,116,1,0.50406901,1,,,,,,,,,,,,,,,,,,,,,,,,,,,,,,,,,,,,,,,,,,,,,,,,,,,,,,,,,,,,,,,,,,,,,,,,,,,,,,,,
,,610309d6b51e8a9a5da8a6f4,2022-09-08_13h56.03.859,CGTgamblingSpanTasks,2022.2.1,MacIntel,60.14675809,,,,,,,,2.4696,,,,,,,,,,,,,,2,n,1.5304,0,1,3.9696,1.5,,,,,,20.97851654,0,11.39288827,,,,,,,,,,,,,0,32,32,2,1,0.088791079,0,,,,,,,,,,,,,,,,,,,,,,,,,,,,,,,,,,,,,,,,,,,,,,,,,,,,,,,,,,,,,,,,,,,,,,,,,,,,,,,,
,,610309d6b51e8a9a5da8a6f4,2022-09-08_13h56.03.859,CGTgamblingSpanTasks,2022.2.1,MacIntel,60.14675809,,,,,,,,2.4705,,,,,,,,,,,,,,2,v,1.5295,10.41201161,0,3.9705,1.5,,,,,,6.307062696,0,10.41201161,,,,,,,,,,,,,0,33,33,23,1,0.018187109,0,,,,,,,,,,,,,,,,,,,,,,,,,,,,,,,,,,,,,,,,,,,,,,,,,,,,,,,,,,,,,,,,,,,,,,,,,,,,,,,,
,,610309d6b51e8a9a5da8a6f4,2022-09-08_13h56.03.859,CGTgamblingSpanTasks,2022.2.1,MacIntel,60.14675809,,,,,,,,2.1404,,,,,,,,,,,,,,2,n,1.8596,25.65316415,1,3.6404,1.5,,,,,,25.65316415,0,0.079652925,,,,,,,,,,,,,0,34,34,109,1,0.90568168,0,,,,,,,,,,,,,,,,,,,,,,,,,,,,,,,,,,,,,,,,,,,,,,,,,,,,,,,,,,,,,,,,,,,,,,,,,,,,,,,,
,,610309d6b51e8a9a5da8a6f4,2022-09-08_13h56.03.859,CGTgamblingSpanTasks,2022.2.1,MacIntel,60.14675809,,,,,,,,1.7501,,,,,,,,,,,,,,2,v,2.2499,3.877530383,0,2.7501,1,,,,,,3.471484939,0,3.877530383,,,,,,,,,,,,,0,35,35,40,1,0.02623078,0,,,,,,,,,,,,,,,,,,,,,,,,,,,,,,,,,,,,,,,,,,,,,,,,,,,,,,,,,,,,,,,,,,,,,,,,,,,,,,,,
,,610309d6b51e8a9a5da8a6f4,2022-09-08_13h56.03.859,CGTgamblingSpanTasks,2022.2.1,MacIntel,60.14675809,,,,,,,,1.6043,,,,,,,,,,,,,,1,v,2.3957,11.16819157,1,2.6043,1,,,,,,11.16819157,0,0.941456753,,,,,,,,,,,,,0,36,36,45,1,0.54163803,1,,,,,,,,,,,,,,,,,,,,,,,,,,,,,,,,,,,,,,,,,,,,,,,,,,,,,,,,,,,,,,,,,,,,,,,,,,,,,,,,
,,610309d6b51e8a9a5da8a6f4,2022-09-08_13h56.03.859,CGTgamblingSpanTasks,2022.2.1,MacIntel,60.14675809,,,,,,,,1.4959,,,,,,,,,,,,,,1,v,2.5041,19.5450126,1,2.9959,1.5,,,,,,19.5450126,0,2.123581464,,,,,,,,,,,,,0,37,37,65,1,0.475836144,1,,,,,,,,,,,,,,,,,,,,,,,,,,,,,,,,,,,,,,,,,,,,,,,,,,,,,,,,,,,,,,,,,,,,,,,,,,,,,,,,
,,610309d6b51e8a9a5da8a6f4,2022-09-08_13h56.03.859,CGTgamblingSpanTasks,2022.2.1,MacIntel,60.14675809,,,,,,,,0.9409,,,,,,,,,,,,,,1,v,3.0591,22.87092517,1,1.9409,1,,,,,,22.87092517,0,0.059276504,,,,,,,,,,,,,0,38,38,27,1,0.911114935,0,,,,,,,,,,,,,,,,,,,,,,,,,,,,,,,,,,,,,,,,,,,,,,,,,,,,,,,,,,,,,,,,,,,,,,,,,,,,,,,,
,,610309d6b51e8a9a5da8a6f4,2022-09-08_13h56.03.859,CGTgamblingSpanTasks,2022.2.1,MacIntel,60.14675809,,,,,,,,1.5734,,,,,,,,,,,,,,1,v,2.4266,29.76099779,1,2.5734,1,,,,,,29.76099779,0,0.095763086,,,,,,,,,,,,,0,39,39,35,1,0.904537896,0,,,,,,,,,,,,,,,,,,,,,,,,,,,,,,,,,,,,,,,,,,,,,,,,,,,,,,,,,,,,,,,,,,,,,,,,,,,,,,,,
,,610309d6b51e8a9a5da8a6f4,2022-09-08_13h56.03.859,CGTgamblingSpanTasks,2022.2.1,MacIntel,60.14675809,,,,,,,,1.8885,,,,,,,,,,,,,,2,n,2.1115,24.479109,1,3.3885,1.5,,,,,,24.479109,0,0.089582697,,,,,,,,,,,,,0,40,40,89,1,0.900200232,0,,,,,,,,,,,,,,,,,,,,,,,,,,,,,,,,,,,,,,,,,,,,,,,,,,,,,,,,,,,,,,,,,,,,,,,,,,,,,,,,
,,610309d6b51e8a9a5da8a6f4,2022-09-08_13h56.03.859,CGTgamblingSpanTasks,2022.2.1,MacIntel,60.14675809,,,,,,,,2.3168,,,,,,,,,,,,,,2,n,1.6832,27.53810185,1,3.8168,1.5,,,,,,27.53810185,0,0.097022401,,,,,,,,,,,,,0,41,41,50,1,0.901515865,0,,,,,,,,,,,,,,,,,,,,,,,,,,,,,,,,,,,,,,,,,,,,,,,,,,,,,,,,,,,,,,,,,,,,,,,,,,,,,,,,
,,610309d6b51e8a9a5da8a6f4,2022-09-08_13h56.03.859,CGTgamblingSpanTasks,2022.2.1,MacIntel,60.14675809,,,,,,,,2.7372,,,,,,,,,,,,,,1,v,1.2628,13.4287264,1,3.7372,1,,,,,,13.4287264,0,1.317368801,,,,,,,,,,,,,0,42,42,100,1,0.502953125,1,,,,,,,,,,,,,,,,,,,,,,,,,,,,,,,,,,,,,,,,,,,,,,,,,,,,,,,,,,,,,,,,,,,,,,,,,,,,,,,,
,,610309d6b51e8a9a5da8a6f4,2022-09-08_13h56.03.859,CGTgamblingSpanTasks,2022.2.1,MacIntel,60.14675809,,,,,,,,2.6472,,,,,,,,,,,,,,1,v,1.3528,0,1,3.6472,1,,,,,,11.08143071,0,1.207538756,,,,,,,,,,,,,0,43,43,84,1,0.475047453,1,,,,,,,,,,,,,,,,,,,,,,,,,,,,,,,,,,,,,,,,,,,,,,,,,,,,,,,,,,,,,,,,,,,,,,,,,,,,,,,,
,,610309d6b51e8a9a5da8a6f4,2022-09-08_13h56.03.859,CGTgamblingSpanTasks,2022.2.1,MacIntel,60.14675809,,,,,,,,1.0149,,,,,,,,,,,,,,2,n,2.9851,19.30622782,1,2.5149,1.5,,,,,,19.30622782,0,10.31611309,,,,,,,,,,,,,0,44,44,1,1,0.091105656,0,,,,,,,,,,,,,,,,,,,,,,,,,,,,,,,,,,,,,,,,,,,,,,,,,,,,,,,,,,,,,,,,,,,,,,,,,,,,,,,,
,,610309d6b51e8a9a5da8a6f4,2022-09-08_13h56.03.859,CGTgamblingSpanTasks,2022.2.1,MacIntel,60.14675809,,,,,,,,2.5221,,,,,,,,,,,,,,2,n,1.4779,24.35708027,1,4.0221,1.5,,,,,,24.35708027,0,2.738695417,,,,,,,,,,,,,0,45,45,114,1,0.466573634,1,,,,,,,,,,,,,,,,,,,,,,,,,,,,,,,,,,,,,,,,,,,,,,,,,,,,,,,,,,,,,,,,,,,,,,,,,,,,,,,,
,,610309d6b51e8a9a5da8a6f4,2022-09-08_13h56.03.859,CGTgamblingSpanTasks,2022.2.1,MacIntel,60.14675809,,,,,,,,2.5867,,,,,,,,,,,,,,2,n,1.4133,27.2532142,1,3.5867,1,,,,,,27.2532142,0,0.08089327,,,,,,,,,,,,,0,46,46,119,1,0.907091845,0,,,,,,,,,,,,,,,,,,,,,,,,,,,,,,,,,,,,,,,,,,,,,,,,,,,,,,,,,,,,,,,,,,,,,,,,,,,,,,,,
,,610309d6b51e8a9a5da8a6f4,2022-09-08_13h56.03.859,CGTgamblingSpanTasks,2022.2.1,MacIntel,60.14675809,,,,,,,,2.3045,,,,,,,,,,,,,,1,v,1.6955,0,1,3.3045,1,,,,,,18.50662664,0,0.052546026,,,,,,,,,,,,,0,47,47,112,1,0.908444837,0,,,,,,,,,,,,,,,,,,,,,,,,,,,,,,,,,,,,,,,,,,,,,,,,,,,,,,,,,,,,,,,,,,,,,,,,,,,,,,,,
,,610309d6b51e8a9a5da8a6f4,2022-09-08_13h56.03.859,CGTgamblingSpanTasks,2022.2.1,MacIntel,60.14675809,,,,,,,,1.0063,,,,,,,,,,,,,,2,v,2.9937,5.683635938,0,2.5063,1.5,,,,,,4.941039335,0,5.683635938,,,,,,,,,,,,,0,48,48,9,1,0.025481984,0,,,,,,,,,,,,,,,,,,,,,,,,,,,,,,,,,,,,,,,,,,,,,,,,,,,,,,,,,,,,,,,,,,,,,,,,,,,,,,,,
,,610309d6b51e8a9a5da8a6f4,2022-09-08_13h56.03.859,CGTgamblingSpanTasks,2022.2.1,MacIntel,60.14675809,,,,,,,,0.3065,,,,,,,,,,,,,,1,n,3.6935,4.904872644,0,1.8065,1.5,,,,,,4.698775357,0,4.904872644,,,,,,,,,,,,,0,49,49,75,1,0.028064484,0,,,,,,,,,,,,,,,,,,,,,,,,,,,,,,,,,,,,,,,,,,,,,,,,,,,,,,,,,,,,,,,,,,,,,,,,,,,,,,,,
,,610309d6b51e8a9a5da8a6f4,2022-09-08_13h56.03.859,CGTgamblingSpanTasks,2022.2.1,MacIntel,60.14675809,,,,,,,,0,,,,,,,,,,,,,,1,,,,,1.5,1.5,,,,,,2.231316635,0,7.50753835,,,,,,,,,,,,,0,50,50,29,1,0.010273427,0,,,,,,,,,,,,,,,,,,,,,,,,,,,,,,,,,,,,,,,,,,,,,,,,,,,,,,,,,,,,,,,,,,,,,,,,,,,,,,,,
,,610309d6b51e8a9a5da8a6f4,2022-09-08_13h56.03.859,CGTgamblingSpanTasks,2022.2.1,MacIntel,60.14675809,,,,,,,,2.9057,,,,,,,,,,,,,,1,n,1.0943,8.512335864,0,4.4057,1.5,,,,,,10.05300841,0,8.512335864,,,,,,,,,,,,,0,51,51,74,1,0.040729225,0,,,,,,,,,,,,,,,,,,,,,,,,,,,,,,,,,,,,,,,,,,,,,,,,,,,,,,,,,,,,,,,,,,,,,,,,,,,,,,,,
,,610309d6b51e8a9a5da8a6f4,2022-09-08_13h56.03.859,CGTgamblingSpanTasks,2022.2.1,MacIntel,60.14675809,,,,,,,,2.7638,,,,,,,,,,,,,,1,v,1.2362,0,1,4.2638,1.5,,,,,,22.0050376,0,2.257683666,,,,,,,,,,,,,0,52,52,4,1,0.491147312,1,,,,,,,,,,,,,,,,,,,,,,,,,,,,,,,,,,,,,,,,,,,,,,,,,,,,,,,,,,,,,,,,,,,,,,,,,,,,,,,,
,,610309d6b51e8a9a5da8a6f4,2022-09-08_13h56.03.859,CGTgamblingSpanTasks,2022.2.1,MacIntel,60.14675809,,,,,,,,2.5378,,,,,,,,,,,,,,2,n,1.4622,0,1,4.0378,1.5,,,,,,27.93093084,0,0.050207531,,,,,,,,,,,,,0,53,53,83,1,0.920505936,0,,,,,,,,,,,,,,,,,,,,,,,,,,,,,,,,,,,,,,,,,,,,,,,,,,,,,,,,,,,,,,,,,,,,,,,,,,,,,,,,
,,610309d6b51e8a9a5da8a6f4,2022-09-08_13h56.03.859,CGTgamblingSpanTasks,2022.2.1,MacIntel,60.14675809,,,,,,,,2.2047,,,,,,,,,,,,,,1,v,1.7953,0,1,3.2047,1,,,,,,23.4214135,0,2.485985001,,,,,,,,,,,,,0,54,54,81,1,0.482105905,1,,,,,,,,,,,,,,,,,,,,,,,,,,,,,,,,,,,,,,,,,,,,,,,,,,,,,,,,,,,,,,,,,,,,,,,,,,,,,,,,
,,610309d6b51e8a9a5da8a6f4,2022-09-08_13h56.03.859,CGTgamblingSpanTasks,2022.2.1,MacIntel,60.14675809,,,,,,,,2.625,,,,,,,,,,,,,,1,v,1.375,0,1,4.125,1.5,,,,,,26.4985979,0,0.051324376,,,,,,,,,,,,,0,55,55,106,1,0.918747215,0,,,,,,,,,,,,,,,,,,,,,,,,,,,,,,,,,,,,,,,,,,,,,,,,,,,,,,,,,,,,,,,,,,,,,,,,,,,,,,,,
,,610309d6b51e8a9a5da8a6f4,2022-09-08_13h56.03.859,CGTgamblingSpanTasks,2022.2.1,MacIntel,60.14675809,,,,,,,,2.3542,,,,,,,,,,,,,,2,n,1.6458,28.9381277,1,3.3542,1,,,,,,28.9381277,0,2.663622024,,,,,,,,,,,,,0,56,56,103,1,0.519453367,1,,,,,,,,,,,,,,,,,,,,,,,,,,,,,,,,,,,,,,,,,,,,,,,,,,,,,,,,,,,,,,,,,,,,,,,,,,,,,,,,
,,610309d6b51e8a9a5da8a6f4,2022-09-08_13h56.03.859,CGTgamblingSpanTasks,2022.2.1,MacIntel,60.14675809,,,,,,,,1.9906,,,,,,,,,,,,,,1,v,2.0094,0,1,3.4906,1.5,,,,,,20.31034258,0,1.870404296,,,,,,,,,,,,,0,57,57,85,1,0.519325853,1,,,,,,,,,,,,,,,,,,,,,,,,,,,,,,,,,,,,,,,,,,,,,,,,,,,,,,,,,,,,,,,,,,,,,,,,,,,,,,,,
,,610309d6b51e8a9a5da8a6f4,2022-09-08_13h56.03.859,CGTgamblingSpanTasks,2022.2.1,MacIntel,60.14675809,,,,,,,,1.6571,,,,,,,,,,,,,,1,v,2.3429,0,1,3.1571,1.5,,,,,,25.76582409,0,2.393193076,,,,,,,,,,,,,0,58,58,46,1,0.517129855,1,,,,,,,,,,,,,,,,,,,,,,,,,,,,,,,,,,,,,,,,,,,,,,,,,,,,,,,,,,,,,,,,,,,,,,,,,,,,,,,,
,,610309d6b51e8a9a5da8a6f4,2022-09-08_13h56.03.859,CGTgamblingSpanTasks,2022.2.1,MacIntel,60.14675809,,,,,,,,2.3186,,,,,,,,,,,,,,2,n,1.6814,0,1,3.3186,1,,,,,,25.54604005,0,0.088845411,,,,,,,,,,,,,0,59,59,79,1,0.901957831,0,,,,,,,,,,,,,,,,,,,,,,,,,,,,,,,,,,,,,,,,,,,,,,,,,,,,,,,,,,,,,,,,,,,,,,,,,,,,,,,,
,,610309d6b51e8a9a5da8a6f4,2022-09-08_13h56.03.859,CGTgamblingSpanTasks,2022.2.1,MacIntel,60.14675809,,,,,,,,2.5976,,,,,,,,,,,,,,1,v,1.4024,15.87668502,1,3.5976,1,,,,,,15.87668502,0,8.42547829,,,,,,,,,,,,,0,60,60,56,1,0.092099462,0,,,,,,,,,,,,,,,,,,,,,,,,,,,,,,,,,,,,,,,,,,,,,,,,,,,,,,,,,,,,,,,,,,,,,,,,,,,,,,,,
,,610309d6b51e8a9a5da8a6f4,2022-09-08_13h56.03.859,CGTgamblingSpanTasks,2022.2.1,MacIntel,60.14675809,,,,,,,,2.3589,,,,,,,,,,,,,,2,n,1.6411,0,1,3.8589,1.5,,,,,,14.3363647,0,1.396635362,,,,,,,,,,,,,0,61,61,78,1,0.504775474,1,,,,,,,,,,,,,,,,,,,,,,,,,,,,,,,,,,,,,,,,,,,,,,,,,,,,,,,,,,,,,,,,,,,,,,,,,,,,,,,,
,,610309d6b51e8a9a5da8a6f4,2022-09-08_13h56.03.859,CGTgamblingSpanTasks,2022.2.1,MacIntel,60.14675809,,,,,,,,2.5041,,,,,,,,,,,,,,2,n,1.4959,29.30724159,1,3.5041,1,,,,,,29.30724159,0,3.247012935,,,,,,,,,,,,,0,62,62,71,1,0.470571125,1,,,,,,,,,,,,,,,,,,,,,,,,,,,,,,,,,,,,,,,,,,,,,,,,,,,,,,,,,,,,,,,,,,,,,,,,,,,,,,,,
,,610309d6b51e8a9a5da8a6f4,2022-09-08_13h56.03.859,CGTgamblingSpanTasks,2022.2.1,MacIntel,60.14675809,,,,,,,,2.6799,,,,,,,,,,,,,,2,n,1.3201,0,1,3.6799,1,,,,,,27.4965044,0,2.461467004,,,,,,,,,,,,,0,63,63,36,1,0.526550878,1,,,,,,,,,,,,,,,,,,,,,,,,,,,,,,,,,,,,,,,,,,,,,,,,,,,,,,,,,,,,,,,,,,,,,,,,,,,,,,,,
,,610309d6b51e8a9a5da8a6f4,2022-09-08_13h56.03.859,CGTgamblingSpanTasks,2022.2.1,MacIntel,60.14675809,,,,,,,,1.8169,,,,,,,,,,,,,,2,n,2.1831,0,1,3.3169,1.5,,,,,,27.39221343,0,2.743407746,,,,,,,,,,,,,0,64,64,47,1,0.49752044,1,,,,,,,,,,,,,,,,,,,,,,,,,,,,,,,,,,,,,,,,,,,,,,,,,,,,,,,,,,,,,,,,,,,,,,,,,,,,,,,,
,,610309d6b51e8a9a5da8a6f4,2022-09-08_13h56.03.859,CGTgamblingSpanTasks,2022.2.1,MacIntel,60.14675809,,,,,,,,2.3379,,,,,,,,,,,,,,1,v,1.6621,0,1,3.3379,1,,,,,,14.11762686,0,8.579385201,,,,,,,,,,,,,0,65,65,60,1,0.073886959,0,,,,,,,,,,,,,,,,,,,,,,,,,,,,,,,,,,,,,,,,,,,,,,,,,,,,,,,,,,,,,,,,,,,,,,,,,,,,,,,,
,,610309d6b51e8a9a5da8a6f4,2022-09-08_13h56.03.859,CGTgamblingSpanTasks,2022.2.1,MacIntel,60.14675809,,,,,,,,2.786,,,,,,,,,,,,,,2,n,1.214,0,1,4.286,1.5,,,,,,21.48443242,0,2.229247341,,,,,,,,,,,,,0,66,66,63,1,0.488155912,1,,,,,,,,,,,,,,,,,,,,,,,,,,,,,,,,,,,,,,,,,,,,,,,,,,,,,,,,,,,,,,,,,,,,,,,,,,,,,,,,
,,610309d6b51e8a9a5da8a6f4,2022-09-08_13h56.03.859,CGTgamblingSpanTasks,2022.2.1,MacIntel,60.14675809,,,,,,,,1.3384,,,,,,,,,,,,,,2,v,2.6616,11.42134125,0,2.3384,1,,,,,,12.9904115,0,11.42134125,,,,,,,,,,,,,0,67,67,118,1,0.037876033,0,,,,,,,,,,,,,,,,,,,,,,,,,,,,,,,,,,,,,,,,,,,,,,,,,,,,,,,,,,,,,,,,,,,,,,,,,,,,,,,,
,,610309d6b51e8a9a5da8a6f4,2022-09-08_13h56.03.859,CGTgamblingSpanTasks,2022.2.1,MacIntel,60.14675809,,,,,,,,2.2532,,,,,,,,,,,,,,1,n,1.7468,7.850775577,0,3.7532,1.5,,,,,,4.622707531,0,7.850775577,,,,,,,,,,,,,0,68,68,6,1,0.017737407,0,,,,,,,,,,,,,,,,,,,,,,,,,,,,,,,,,,,,,,,,,,,,,,,,,,,,,,,,,,,,,,,,,,,,,,,,,,,,,,,,
,,610309d6b51e8a9a5da8a6f4,2022-09-08_13h56.03.859,CGTgamblingSpanTasks,2022.2.1,MacIntel,60.14675809,,,,,,,,2.0729,,,,,,,,,,,,,,2,n,1.9271,0,1,3.0729,1,,,,,,25.26994993,0,2.78925142,,,,,,,,,,,,,0,69,69,108,1,0.471582922,1,,,,,,,,,,,,,,,,,,,,,,,,,,,,,,,,,,,,,,,,,,,,,,,,,,,,,,,,,,,,,,,,,,,,,,,,,,,,,,,,
,,610309d6b51e8a9a5da8a6f4,2022-09-08_13h56.03.859,CGTgamblingSpanTasks,2022.2.1,MacIntel,60.14675809,,,,,,,,1.9382,,,,,,,,,,,,,,1,v,2.0618,21.16780451,1,3.4382,1.5,,,,,,21.16780451,0,2.469465385,,,,,,,,,,,,,0,70,70,32,1,0.456531699,1,,,,,,,,,,,,,,,,,,,,,,,,,,,,,,,,,,,,,,,,,,,,,,,,,,,,,,,,,,,,,,,,,,,,,,,,,,,,,,,,
,,610309d6b51e8a9a5da8a6f4,2022-09-08_13h56.03.859,CGTgamblingSpanTasks,2022.2.1,MacIntel,60.14675809,,,,,,,,1.9182,,,,,,,,,,,,,,2,n,2.0818,7.066129113,1,2.9182,1,,,,,,7.066129113,0,0.585581699,,,,,,,,,,,,,0,71,71,19,1,0.545860632,1,,,,,,,,,,,,,,,,,,,,,,,,,,,,,,,,,,,,,,,,,,,,,,,,,,,,,,,,,,,,,,,,,,,,,,,,,,,,,,,,
,,610309d6b51e8a9a5da8a6f4,2022-09-08_13h56.03.859,CGTgamblingSpanTasks,2022.2.1,MacIntel,60.14675809,,,,,,,,2.1704,,,,,,,,,,,,,,2,n,1.8296,0,1,3.6704,1.5,,,,,,6.662965216,0,6.091504705,,,,,,,,,,,,,0,72,72,102,1,0.035087099,0,,,,,,,,,,,,,,,,,,,,,,,,,,,,,,,,,,,,,,,,,,,,,,,,,,,,,,,,,,,,,,,,,,,,,,,,,,,,,,,,
,,610309d6b51e8a9a5da8a6f4,2022-09-08_13h56.03.859,CGTgamblingSpanTasks,2022.2.1,MacIntel,60.14675809,,,,,,,,2.1823,,,,,,,,,,,,,,1,v,1.8177,23.24777057,1,3.6823,1.5,,,,,,23.24777057,0,2.003482335,,,,,,,,,,,,,0,73,73,59,1,0.536135174,1,,,,,,,,,,,,,,,,,,,,,,,,,,,,,,,,,,,,,,,,,,,,,,,,,,,,,,,,,,,,,,,,,,,,,,,,,,,,,,,,
,,610309d6b51e8a9a5da8a6f4,2022-09-08_13h56.03.859,CGTgamblingSpanTasks,2022.2.1,MacIntel,60.14675809,,,,,,,,2.1006,,,,,,,,,,,,,,1,v,1.8994,0,1,3.6006,1.5,,,,,,27.37527992,0,2.860319095,,,,,,,,,,,,,0,74,74,39,1,0.486304156,1,,,,,,,,,,,,,,,,,,,,,,,,,,,,,,,,,,,,,,,,,,,,,,,,,,,,,,,,,,,,,,,,,,,,,,,,,,,,,,,,
,,610309d6b51e8a9a5da8a6f4,2022-09-08_13h56.03.859,CGTgamblingSpanTasks,2022.2.1,MacIntel,60.14675809,,,,,,,,2.0388,,,,,,,,,,,,,,1,v,1.9612,0,1,3.0388,1,,,,,,18.20422443,0,1.635040165,,,,,,,,,,,,,0,75,75,82,1,0.525708991,1,,,,,,,,,,,,,,,,,,,,,,,,,,,,,,,,,,,,,,,,,,,,,,,,,,,,,,,,,,,,,,,,,,,,,,,,,,,,,,,,
,,610309d6b51e8a9a5da8a6f4,2022-09-08_13h56.03.859,CGTgamblingSpanTasks,2022.2.1,MacIntel,60.14675809,,,,,,,,2.2051,,,,,,,,,,,,,,2,n,1.7949,21.7711579,1,3.7051,1.5,,,,,,21.7711579,0,2.502728921,,,,,,,,,,,,,0,76,76,101,1,0.460552621,1,,,,,,,,,,,,,,,,,,,,,,,,,,,,,,,,,,,,,,,,,,,,,,,,,,,,,,,,,,,,,,,,,,,,,,,,,,,,,,,,
,,610309d6b51e8a9a5da8a6f4,2022-09-08_13h56.03.859,CGTgamblingSpanTasks,2022.2.1,MacIntel,60.14675809,,,,,,,,2.2158,,,,,,,,,,,,,,2,n,1.7842,8.363821911,1,3.7158,1.5,,,,,,8.363821911,0,6.781500919,,,,,,,,,,,,,0,77,77,61,1,0.044227959,0,,,,,,,,,,,,,,,,,,,,,,,,,,,,,,,,,,,,,,,,,,,,,,,,,,,,,,,,,,,,,,,,,,,,,,,,,,,,,,,,
,,610309d6b51e8a9a5da8a6f4,2022-09-08_13h56.03.859,CGTgamblingSpanTasks,2022.2.1,MacIntel,60.14675809,,,,,,,,2.3144,,,,,,,,,,,,,,2,n,1.6856,0,1,3.8144,1.5,,,,,,21.00799273,0,0.067969053,,,,,,,,,,,,,0,78,78,92,1,0.904360262,0,,,,,,,,,,,,,,,,,,,,,,,,,,,,,,,,,,,,,,,,,,,,,,,,,,,,,,,,,,,,,,,,,,,,,,,,,,,,,,,,
,,610309d6b51e8a9a5da8a6f4,2022-09-08_13h56.03.859,CGTgamblingSpanTasks,2022.2.1,MacIntel,60.14675809,,,,,,,,1.4243,,,,,,,,,,,,,,1,v,2.5757,27.12325385,1,2.4243,1,,,,,,27.12325385,0,0.080932047,,,,,,,,,,,,,0,79,79,14,1,0.906929184,0,,,,,,,,,,,,,,,,,,,,,,,,,,,,,,,,,,,,,,,,,,,,,,,,,,,,,,,,,,,,,,,,,,,,,,,,,,,,,,,,
,,610309d6b51e8a9a5da8a6f4,2022-09-08_13h56.03.859,CGTgamblingSpanTasks,2022.2.1,MacIntel,60.14675809,,,,,,,,2.2212,,,,,,,,,,,,,,1,v,1.7788,0,1,3.7212,1.5,,,,,,19.68065872,0,1.843597162,,,,,,,,,,,,,0,80,80,80,1,0.514941058,1,,,,,,,,,,,,,,,,,,,,,,,,,,,,,,,,,,,,,,,,,,,,,,,,,,,,,,,,,,,,,,,,,,,,,,,,,,,,,,,,
,,610309d6b51e8a9a5da8a6f4,2022-09-08_13h56.03.859,CGTgamblingSpanTasks,2022.2.1,MacIntel,60.14675809,,,,,,,,2.2206,,,,,,,,,,,,,,1,v,1.7794,18.51345298,1,3.7206,1.5,,,,,,18.51345298,0,1.932334278,,,,,,,,,,,,,0,81,81,31,1,0.48658696,1,,,,,,,,,,,,,,,,,,,,,,,,,,,,,,,,,,,,,,,,,,,,,,,,,,,,,,,,,,,,,,,,,,,,,,,,,,,,,,,,
,,610309d6b51e8a9a5da8a6f4,2022-09-08_13h56.03.859,CGTgamblingSpanTasks,2022.2.1,MacIntel,60.14675809,,,,,,,,2.1535,,,,,,,,,,,,,,2,n,1.8465,8.670591867,1,3.1535,1,,,,,,8.670591867,0,1.025847652,,,,,,,,,,,,,0,82,82,18,1,0.452680459,1,,,,,,,,,,,,,,,,,,,,,,,,,,,,,,,,,,,,,,,,,,,,,,,,,,,,,,,,,,,,,,,,,,,,,,,,,,,,,,,,
,,610309d6b51e8a9a5da8a6f4,2022-09-08_13h56.03.859,CGTgamblingSpanTasks,2022.2.1,MacIntel,60.14675809,,,,,,,,2.4189,,,,,,,,,,,,,,2,n,1.5811,0,1,3.9189,1.5,,,,,,21.17800335,0,0.059830985,,,,,,,,,,,,,0,83,83,67,1,0.908594974,0,,,,,,,,,,,,,,,,,,,,,,,,,,,,,,,,,,,,,,,,,,,,,,,,,,,,,,,,,,,,,,,,,,,,,,,,,,,,,,,,
,,610309d6b51e8a9a5da8a6f4,2022-09-08_13h56.03.859,CGTgamblingSpanTasks,2022.2.1,MacIntel,60.14675809,,,,,,,,2.247,,,,,,,,,,,,,,1,v,1.753,0,1,3.247,1,,,,,,27.88092897,0,2.771762788,,,,,,,,,,,,,0,84,84,117,1,0.499466648,1,,,,,,,,,,,,,,,,,,,,,,,,,,,,,,,,,,,,,,,,,,,,,,,,,,,,,,,,,,,,,,,,,,,,,,,,,,,,,,,,
,,610309d6b51e8a9a5da8a6f4,2022-09-08_13h56.03.859,CGTgamblingSpanTasks,2022.2.1,MacIntel,60.14675809,,,,,,,,0,,,,,,,,,,,,,,1,,,,,1,1,,,,,,18.11029021,0,11.41737518,,,,,,,,,,,,,0,85,85,48,1,0.069445859,0,,,,,,,,,,,,,,,,,,,,,,,,,,,,,,,,,,,,,,,,,,,,,,,,,,,,,,,,,,,,,,,,,,,,,,,,,,,,,,,,
,,610309d6b51e8a9a5da8a6f4,2022-09-08_13h56.03.859,CGTgamblingSpanTasks,2022.2.1,MacIntel,60.14675809,,,,,,,,2.7078,,,,,,,,,,,,,,1,v,1.2922,29.77342428,1,3.7078,1,,,,,,29.77342428,0,2.838865588,,,,,,,,,,,,,0,86,86,57,1,0.510363415,1,,,,,,,,,,,,,,,,,,,,,,,,,,,,,,,,,,,,,,,,,,,,,,,,,,,,,,,,,,,,,,,,,,,,,,,,,,,,,,,,
,,610309d6b51e8a9a5da8a6f4,2022-09-08_13h56.03.859,CGTgamblingSpanTasks,2022.2.1,MacIntel,60.14675809,,,,,,,,2.5757,,,,,,,,,,,,,,1,v,1.4243,0,1,3.5757,1,,,,,,9.725876653,0,5.526483034,,,,,,,,,,,,,0,87,87,44,1,0.082550696,0,,,,,,,,,,,,,,,,,,,,,,,,,,,,,,,,,,,,,,,,,,,,,,,,,,,,,,,,,,,,,,,,,,,,,,,,,,,,,,,,
,,610309d6b51e8a9a5da8a6f4,2022-09-08_13h56.03.859,CGTgamblingSpanTasks,2022.2.1,MacIntel,60.14675809,,,,,,,,2.5538,,,,,,,,,,,,,,2,n,1.4462,29.75778644,1,4.0538,1.5,,,,,,29.75778644,0,2.810531415,,,,,,,,,,,,,0,88,88,113,1,0.512824233,1,,,,,,,,,,,,,,,,,,,,,,,,,,,,,,,,,,,,,,,,,,,,,,,,,,,,,,,,,,,,,,,,,,,,,,,,,,,,,,,,
,,610309d6b51e8a9a5da8a6f4,2022-09-08_13h56.03.859,CGTgamblingSpanTasks,2022.2.1,MacIntel,60.14675809,,,,,,,,2.1164,,,,,,,,,,,,,,2,n,1.8836,0,1,3.6164,1.5,,,,,,27.57491653,0,2.99133314,,,,,,,,,,,,,0,89,89,10,1,0.47625893,1,,,,,,,,,,,,,,,,,,,,,,,,,,,,,,,,,,,,,,,,,,,,,,,,,,,,,,,,,,,,,,,,,,,,,,,,,,,,,,,,
,,610309d6b51e8a9a5da8a6f4,2022-09-08_13h56.03.859,CGTgamblingSpanTasks,2022.2.1,MacIntel,60.14675809,,,,,,,,2.4313,,,,,,,,,,,,,,1,v,1.5687,0,1,3.4313,1,,,,,,28.18900855,0,0.05384276,,,,,,,,,,,,,0,90,90,55,1,0.919081308,0,,,,,,,,,,,,,,,,,,,,,,,,,,,,,,,,,,,,,,,,,,,,,,,,,,,,,,,,,,,,,,,,,,,,,,,,,,,,,,,,
,,610309d6b51e8a9a5da8a6f4,2022-09-08_13h56.03.859,CGTgamblingSpanTasks,2022.2.1,MacIntel,60.14675809,,,,,,,,2.5838,,,,,,,,,,,,,,2,n,1.4162,19.58698544,1,3.5838,1,,,,,,19.58698544,0,9.936178001,,,,,,,,,,,,,0,91,91,77,1,0.098812204,0,,,,,,,,,,,,,,,,,,,,,,,,,,,,,,,,,,,,,,,,,,,,,,,,,,,,,,,,,,,,,,,,,,,,,,,,,,,,,,,,
,,610309d6b51e8a9a5da8a6f4,2022-09-08_13h56.03.859,CGTgamblingSpanTasks,2022.2.1,MacIntel,60.14675809,,,,,,,,2.6038,,,,,,,,,,,,,,1,v,1.3962,0,1,3.6038,1,,,,,,28.13634754,0,2.532806323,,,,,,,,,,,,,0,92,92,28,1,0.525136524,1,,,,,,,,,,,,,,,,,,,,,,,,,,,,,,,,,,,,,,,,,,,,,,,,,,,,,,,,,,,,,,,,,,,,,,,,,,,,,,,,
,,610309d6b51e8a9a5da8a6f4,2022-09-08_13h56.03.859,CGTgamblingSpanTasks,2022.2.1,MacIntel,60.14675809,,,,,,,,2.3783,,,,,,,,,,,,,,2,n,1.6217,0,1,3.3783,1,,,,,,15.21435748,0,10.3417501,,,,,,,,,,,,,0,93,93,72,1,0.060969226,0,,,,,,,,,,,,,,,,,,,,,,,,,,,,,,,,,,,,,,,,,,,,,,,,,,,,,,,,,,,,,,,,,,,,,,,,,,,,,,,,
,,610309d6b51e8a9a5da8a6f4,2022-09-08_13h56.03.859,CGTgamblingSpanTasks,2022.2.1,MacIntel,60.14675809,,,,,,,,2.5542,,,,,,,,,,,,,,1,v,1.4458,0,1,3.5542,1,,,,,,26.16821818,0,0.093528069,,,,,,,,,,,,,0,94,94,42,1,0.901022427,0,,,,,,,,,,,,,,,,,,,,,,,,,,,,,,,,,,,,,,,,,,,,,,,,,,,,,,,,,,,,,,,,,,,,,,,,,,,,,,,,
,,610309d6b51e8a9a5da8a6f4,2022-09-08_13h56.03.859,CGTgamblingSpanTasks,2022.2.1,MacIntel,60.14675809,,,,,,,,2.6831,,,,,,,,,,,,,,1,v,1.3169,0,1,3.6831,1,,,,,,22.25959835,0,0.065383587,,,,,,,,,,,,,0,95,95,97,1,0.907413875,0,,,,,,,,,,,,,,,,,,,,,,,,,,,,,,,,,,,,,,,,,,,,,,,,,,,,,,,,,,,,,,,,,,,,,,,,,,,,,,,,
,,610309d6b51e8a9a5da8a6f4,2022-09-08_13h56.03.859,CGTgamblingSpanTasks,2022.2.1,MacIntel,60.14675809,,,,,,,,2.5547,,,,,,,,,,,,,,2,n,1.4453,0,1,4.0547,1.5,,,,,,17.67865084,0,11.35147481,,,,,,,,,,,,,0,96,96,91,1,0.067304606,0,,,,,,,,,,,,,,,,,,,,,,,,,,,,,,,,,,,,,,,,,,,,,,,,,,,,,,,,,,,,,,,,,,,,,,,,,,,,,,,,
,,610309d6b51e8a9a5da8a6f4,2022-09-08_13h56.03.859,CGTgamblingSpanTasks,2022.2.1,MacIntel,60.14675809,,,,,,,,2.5319,,,,,,,,,,,,,,2,n,1.4681,24.57684014,1,3.5319,1,,,,,,24.57684014,0,0.061756244,,,,,,,,,,,,,0,97,97,68,1,0.911988903,0,,,,,,,,,,,,,,,,,,,,,,,,,,,,,,,,,,,,,,,,,,,,,,,,,,,,,,,,,,,,,,,,,,,,,,,,,,,,,,,,
,,610309d6b51e8a9a5da8a6f4,2022-09-08_13h56.03.859,CGTgamblingSpanTasks,2022.2.1,MacIntel,60.14675809,,,,,,,,2.596,,,,,,,,,,,,,,1,v,1.404,0,1,4.096,1.5,,,,,,22.86604061,0,2.293289792,,,,,,,,,,,,,0,98,98,51,1,0.49715382,1,,,,,,,,,,,,,,,,,,,,,,,,,,,,,,,,,,,,,,,,,,,,,,,,,,,,,,,,,,,,,,,,,,,,,,,,,,,,,,,,
,,610309d6b51e8a9a5da8a6f4,2022-09-08_13h56.03.859,CGTgamblingSpanTasks,2022.2.1,MacIntel,60.14675809,,,,,,,,2.6714,,,,,,,,,,,,,,2,n,1.3286,27.94544945,1,4.1714,1.5,,,,,,27.94544945,0,2.32030209,,,,,,,,,,,,,0,99,99,115,1,0.545390564,1,,,,,,,,,,,,,,,,,,,,,,,,,,,,,,,,,,,,,,,,,,,,,,,,,,,,,,,,,,,,,,,,,,,,,,,,,,,,,,,,
,,610309d6b51e8a9a5da8a6f4,2022-09-08_13h56.03.859,CGTgamblingSpanTasks,2022.2.1,MacIntel,60.14675809,,,,,,,,2.1957,,,,,,,,,,,,,,1,v,1.8043,0,1,3.1957,1,,,,,,15.13999312,0,8.653432553,,,,,,,,,,,,,0,100,100,54,1,0.081767484,0,,,,,,,,,,,,,,,,,,,,,,,,,,,,,,,,,,,,,,,,,,,,,,,,,,,,,,,,,,,,,,,,,,,,,,,,,,,,,,,,
,,610309d6b51e8a9a5da8a6f4,2022-09-08_13h56.03.859,CGTgamblingSpanTasks,2022.2.1,MacIntel,60.14675809,,,,,,,,2.033,,,,,,,,,,,,,,2,v,1.967,8.830252162,0,3.033,1,,,,,,15.73000491,0,8.830252162,,,,,,,,,,,,,0,101,101,95,1,0.084193143,0,,,,,,,,,,,,,,,,,,,,,,,,,,,,,,,,,,,,,,,,,,,,,,,,,,,,,,,,,,,,,,,,,,,,,,,,,,,,,,,,
,,610309d6b51e8a9a5da8a6f4,2022-09-08_13h56.03.859,CGTgamblingSpanTasks,2022.2.1,MacIntel,60.14675809,,,,,,,,2.315,,,,,,,,,,,,,,2,n,1.685,27.77179191,1,3.815,1.5,,,,,,27.77179191,0,0.074524436,,,,,,,,,,,,,0,102,102,99,1,0.910114387,0,,,,,,,,,,,,,,,,,,,,,,,,,,,,,,,,,,,,,,,,,,,,,,,,,,,,,,,,,,,,,,,,,,,,,,,,,,,,,,,,
,,610309d6b51e8a9a5da8a6f4,2022-09-08_13h56.03.859,CGTgamblingSpanTasks,2022.2.1,MacIntel,60.14675809,,,,,,,,2.5666,,,,,,,,,,,,,,1,v,1.4334,0,1,3.5666,1,,,,,,27.76752685,0,0.083968035,,,,,,,,,,,,,0,103,103,13,1,0.906513967,0,,,,,,,,,,,,,,,,,,,,,,,,,,,,,,,,,,,,,,,,,,,,,,,,,,,,,,,,,,,,,,,,,,,,,,,,,,,,,,,,
,,610309d6b51e8a9a5da8a6f4,2022-09-08_13h56.03.859,CGTgamblingSpanTasks,2022.2.1,MacIntel,60.14675809,,,,,,,,2.5371,,,,,,,,,,,,,,2,n,1.4629,28.9323758,1,3.5371,1,,,,,,28.9323758,0,2.893007023,,,,,,,,,,,,,0,104,104,11,1,0.497943321,1,,,,,,,,,,,,,,,,,,,,,,,,,,,,,,,,,,,,,,,,,,,,,,,,,,,,,,,,,,,,,,,,,,,,,,,,,,,,,,,,
,,610309d6b51e8a9a5da8a6f4,2022-09-08_13h56.03.859,CGTgamblingSpanTasks,2022.2.1,MacIntel,60.14675809,,,,,,,,2.3925,,,,,,,,,,,,,,2,n,1.6075,0,1,3.3925,1,,,,,,9.012590634,0,1.002188111,,,,,,,,,,,,,0,105,105,12,1,0.46958041,1,,,,,,,,,,,,,,,,,,,,,,,,,,,,,,,,,,,,,,,,,,,,,,,,,,,,,,,,,,,,,,,,,,,,,,,,,,,,,,,,
,,610309d6b51e8a9a5da8a6f4,2022-09-08_13h56.03.859,CGTgamblingSpanTasks,2022.2.1,MacIntel,60.14675809,,,,,,,,2.5652,,,,,,,,,,,,,,1,v,1.4348,22.62475578,1,4.0652,1.5,,,,,,22.62475578,0,2.397643354,,,,,,,,,,,,,0,106,106,93,1,0.482527609,1,,,,,,,,,,,,,,,,,,,,,,,,,,,,,,,,,,,,,,,,,,,,,,,,,,,,,,,,,,,,,,,,,,,,,,,,,,,,,,,,
,,610309d6b51e8a9a5da8a6f4,2022-09-08_13h56.03.859,CGTgamblingSpanTasks,2022.2.1,MacIntel,60.14675809,,,,,,,,2.0393,,,,,,,,,,,,,,1,v,1.9607,0,1,3.0393,1,,,,,,25.56803059,0,2.543951743,,,,,,,,,,,,,0,107,107,41,1,0.499247217,1,,,,,,,,,,,,,,,,,,,,,,,,,,,,,,,,,,,,,,,,,,,,,,,,,,,,,,,,,,,,,,,,,,,,,,,,,,,,,,,,
,,610309d6b51e8a9a5da8a6f4,2022-09-08_13h56.03.859,CGTgamblingSpanTasks,2022.2.1,MacIntel,60.14675809,,,,,,,,1.7681,,,,,,,,,,,,,,1,v,2.2319,21.2188881,1,2.7681,1,,,,,,21.2188881,0,2.067660742,,,,,,,,,,,,,0,108,108,107,1,0.50470775,1,,,,,,,,,,,,,,,,,,,,,,,,,,,,,,,,,,,,,,,,,,,,,,,,,,,,,,,,,,,,,,,,,,,,,,,,,,,,,,,,
,,610309d6b51e8a9a5da8a6f4,2022-09-08_13h56.03.859,CGTgamblingSpanTasks,2022.2.1,MacIntel,60.14675809,,,,,,,,1.3689,,,,,,,,,,,,,,2,v,2.6311,4.251676631,0,2.3689,1,,,,,,3.395192929,0,4.251676631,,,,,,,,,,,,,0,109,109,7,1,0.023467153,0,,,,,,,,,,,,,,,,,,,,,,,,,,,,,,,,,,,,,,,,,,,,,,,,,,,,,,,,,,,,,,,,,,,,,,,,,,,,,,,,
,,610309d6b51e8a9a5da8a6f4,2022-09-08_13h56.03.859,CGTgamblingSpanTasks,2022.2.1,MacIntel,60.14675809,,,,,,,,1.3691,,,,,,,,,,,,,,1,n,2.6309,11.6744431,0,2.3691,1,,,,,,10.43004651,0,11.6744431,,,,,,,,,,,,,0,110,110,15,1,0.026176489,0,,,,,,,,,,,,,,,,,,,,,,,,,,,,,,,,,,,,,,,,,,,,,,,,,,,,,,,,,,,,,,,,,,,,,,,,,,,,,,,,
,,610309d6b51e8a9a5da8a6f4,2022-09-08_13h56.03.859,CGTgamblingSpanTasks,2022.2.1,MacIntel,60.14675809,,,,,,,,2.4974,,,,,,,,,,,,,,2,n,1.5026,13.96521039,1,3.9974,1.5,,,,,,13.96521039,0,1.591282699,,,,,,,,,,,,,0,111,111,49,1,0.462956344,1,,,,,,,,,,,,,,,,,,,,,,,,,,,,,,,,,,,,,,,,,,,,,,,,,,,,,,,,,,,,,,,,,,,,,,,,,,,,,,,,
,,610309d6b51e8a9a5da8a6f4,2022-09-08_13h56.03.859,CGTgamblingSpanTasks,2022.2.1,MacIntel,60.14675809,,,,,,,,2.2173,,,,,,,,,,,,,,1,v,1.7827,0,1,3.2173,1,,,,,,23.0613391,0,2.387726776,,,,,,,,,,,,,0,112,112,69,1,0.488727763,1,,,,,,,,,,,,,,,,,,,,,,,,,,,,,,,,,,,,,,,,,,,,,,,,,,,,,,,,,,,,,,,,,,,,,,,,,,,,,,,,
,,610309d6b51e8a9a5da8a6f4,2022-09-08_13h56.03.859,CGTgamblingSpanTasks,2022.2.1,MacIntel,60.14675809,,,,,,,,2.7039,,,,,,,,,,,,,,1,v,1.2961,0,1,4.2039,1.5,,,,,,23.59556381,0,2.464662219,,,,,,,,,,,,,0,113,113,22,1,0.486383205,1,,,,,,,,,,,,,,,,,,,,,,,,,,,,,,,,,,,,,,,,,,,,,,,,,,,,,,,,,,,,,,,,,,,,,,,,,,,,,,,,
,,610309d6b51e8a9a5da8a6f4,2022-09-08_13h56.03.859,CGTgamblingSpanTasks,2022.2.1,MacIntel,60.14675809,,,,,,,,2.421,,,,,,,,,,,,,,1,v,1.579,17.64114152,1,3.921,1.5,,,,,,17.64114152,0,10.68505773,,,,,,,,,,,,,0,114,114,98,1,0.074299362,0,,,,,,,,,,,,,,,,,,,,,,,,,,,,,,,,,,,,,,,,,,,,,,,,,,,,,,,,,,,,,,,,,,,,,,,,,,,,,,,,
,,610309d6b51e8a9a5da8a6f4,2022-09-08_13h56.03.859,CGTgamblingSpanTasks,2022.2.1,MacIntel,60.14675809,,,,,,,,2.5967,,,,,,,,,,,,,,2,n,1.4033,0,1,4.0967,1.5,,,,,,28.68598705,0,0.050674956,,,,,,,,,,,,,0,115,115,62,1,0.920905497,0,,,,,,,,,,,,,,,,,,,,,,,,,,,,,,,,,,,,,,,,,,,,,,,,,,,,,,,,,,,,,,,,,,,,,,,,,,,,,,,,
,,610309d6b51e8a9a5da8a6f4,2022-09-08_13h56.03.859,CGTgamblingSpanTasks,2022.2.1,MacIntel,60.14675809,,,,,,,,2.7715,,,,,,,,,,,,,,1,v,1.2285,17.30137174,1,3.7715,1,,,,,,17.30137174,0,1.716380842,,,,,,,,,,,,,0,116,116,20,1,0.500020285,1,,,,,,,,,,,,,,,,,,,,,,,,,,,,,,,,,,,,,,,,,,,,,,,,,,,,,,,,,,,,,,,,,,,,,,,,,,,,,,,,
,,610309d6b51e8a9a5da8a6f4,2022-09-08_13h56.03.859,CGTgamblingSpanTasks,2022.2.1,MacIntel,60.14675809,,,,,,,,2.5915,,,,,,,,,,,,,,2,n,1.4085,0,1,4.0915,1.5,,,,,,20.5726842,0,0.073558523,,,,,,,,,,,,,0,117,117,26,1,0.901008565,0,,,,,,,,,,,,,,,,,,,,,,,,,,,,,,,,,,,,,,,,,,,,,,,,,,,,,,,,,,,,,,,,,,,,,,,,,,,,,,,,
,,610309d6b51e8a9a5da8a6f4,2022-09-08_13h56.03.859,CGTgamblingSpanTasks,2022.2.1,MacIntel,60.14675809,,,,,,,,2.8367,,,,,,,,,,,,,,1,v,1.1633,0,1,3.8367,1,,,,,,28.94627214,0,2.701896413,,,,,,,,,,,,,0,118,118,111,1,0.515860759,1,,,,,,,,,,,,,,,,,,,,,,,,,,,,,,,,,,,,,,,,,,,,,,,,,,,,,,,,,,,,,,,,,,,,,,,,,,,,,,,,
,,610309d6b51e8a9a5da8a6f4,2022-09-08_13h56.03.859,CGTgamblingSpanTasks,2022.2.1,MacIntel,60.14675809,,,,,,,,2.3377,,,,,,,,,,,,,,1,n,1.6623,4.462262453,0,3.3377,1,,,,,,0.192759042,0,4.462262453,,,,,,,,,,,,,0,119,119,52,1,0.003553223,0,,,,,,,,,,,,,,,,,,,,,,,,,,,,,,,,,,,,,,,,,,,,,,,,,,,,,,,,,,,,,,,,,,,,,,,,,,,,,,,,
,,610309d6b51e8a9a5da8a6f4,2022-09-08_13h56.03.859,CGTgamblingSpanTasks,2022.2.1,MacIntel,60.14675809,,,,,,,,,,,,,,,,,,,,,,,,,,,,,,,,,,,,,,,,,,,,,,,,,,,,,,,,return,20.8898,,,,,,,,,,,,,,,,,,,,,,,,,,,,,,,,,,,,,,,,,,,,,,,,,,,,,,,,,,,,,,,,,,,,,,,,,,,,,,
,,610309d6b51e8a9a5da8a6f4,2022-09-08_13h56.03.859,CGTgamblingSpanTasks,2022.2.1,MacIntel,60.14675809,,,,,,,,,,,,,,,,,,,,,,,,,,,,,,,,,,,,,,,,,,,,,,,,,,,,,,,,,,return,109.8637,,,,,,,,,,,,,,,,,,,,,,,,,,,,,,,,,,,,,,,,,,,,,,,,,,,,,,,,,,,,,,,,,,,,,,,,,,,,
,,610309d6b51e8a9a5da8a6f4,2022-09-08_13h56.03.859,CGTgamblingSpanTasks,2022.2.1,MacIntel,60.14675809,,,,,,,,,,,,,,,,,,,,,,,,,,,,,,,,,,,,,,,,,,,,,,,,,,,,,,,,,,,,return,27.3953,,,,,,,,,,,,,,,,,,,,,,,,,,,,,,,,,,,,,,,,,,,,,,,,,,,,,,,,,,,,,,,,,,,,,,,,,,
,,610309d6b51e8a9a5da8a6f4,2022-09-08_13h56.03.859,CGTgamblingSpanTasks,2022.2.1,MacIntel,60.14675809,,,,,,,,,,,,,,,,,,,,,,,,,,,,,,,,,,,,,,,,,,,,,,,,,,,,,,,,,,,,,,342,1,0.058579102,-0.377744141,1,0,0,cont_buttonPractice,0,0,0,0,1,3,342,24,2,42,,,,,,,,,,,,,,,,,,,,,,,,,,,,,,,,,,,,,,,,,,,,,,,,,,,,,,,,
,,610309d6b51e8a9a5da8a6f4,2022-09-08_13h56.03.859,CGTgamblingSpanTasks,2022.2.1,MacIntel,60.14675809,,,,,,,,,,,,,,,,,,,,,,,,,,,,,,,,,,,,,,,,,,,,,,,,,,,,,,,,,,,,,,937,1,0.095141602,-0.39871582,1,0,0,cont_buttonPractice,0,1,1,1,1,3,937,73,2,37,,,,,,,,,,,,,,,,,,,,,,,,,,,,,,,,,,,,,,,,,,,,,,,,,,,,,,,,
,,610309d6b51e8a9a5da8a6f4,2022-09-08_13h56.03.859,CGTgamblingSpanTasks,2022.2.1,MacIntel,60.14675809,,,,,,,,,,,,,,,,,,,,,,,,,,,,,,,,,,,,,,,,,,,,,,,,,,,,,,,,,,,,,,,,,,,,,,,,,,,,,,,,return,3.904,,,,,,,,,,,,,,,,,,,,,,,,,,,,,,,,,,,,,,,,,,,,,,,,,,,,,,
,,610309d6b51e8a9a5da8a6f4,2022-09-08_13h56.03.859,CGTgamblingSpanTasks,2022.2.1,MacIntel,60.14675809,,,,,,,,,,,,,,,,,,,,,,,,,,,,,,,,,,,,,,,,,,,,,,,,,,,,,,,,,,,,,,,,,,,,,,,,,,,,,,,,,,"[7,5,8]",0,0,0,0,1,,,,,,,,,,,,,,,,,,,,,,,,,,,,,,,,,,,,,,,,,,,,,,,,
,,610309d6b51e8a9a5da8a6f4,2022-09-08_13h56.03.859,CGTgamblingSpanTasks,2022.2.1,MacIntel,60.14675809,,,,,,,,,,,,,,,,,,,,,,,,,,,,,,,,,,,,,,,,,,,,,,,,,,,,,,,,,,,,,,,,,,,,,,,,,,,,,,,,,,"[7,5,8]",1,0,1,0,1,,,,,,,,,,,,,,,,,,,,,,,,,,,,,,,,,,,,,,,,,,,,,,,,
,,610309d6b51e8a9a5da8a6f4,2022-09-08_13h56.03.859,CGTgamblingSpanTasks,2022.2.1,MacIntel,60.14675809,,,,,,,,,,,,,,,,,,,,,,,,,,,,,,,,,,,,,,,,,,,,,,,,,,,,,,,,,,,,,,,,,,,,,,,,,,,,,,,,,,"[7,5,8]",2,0,2,0,1,,,,,,,,,,,,,,,,,,,,,,,,,,,,,,,,,,,,,,,,,,,,,,,,
,,610309d6b51e8a9a5da8a6f4,2022-09-08_13h56.03.859,CGTgamblingSpanTasks,2022.2.1,MacIntel,60.14675809,,,,,,,,,,,,,,,,,,,,,,,,,,,,,,,,,,,,,,,,,,,,,,,,,,,,,,,,,,,,,,,1,,,,,,,,,,,,,,,,,,,,,,,,,758,0.096313477,-0.384321289,1,0,0,cont_button,0,0,0,0,1,1,,,,,,,,,,,,,,,,,,,,,,,,,,,,,,,,,,,
,,610309d6b51e8a9a5da8a6f4,2022-09-08_13h56.03.859,CGTgamblingSpanTasks,2022.2.1,MacIntel,60.14675809,,,,,,,,,,,,,,,,,,,,,,,,,,,,,,,,,,,,,,,,,,,,,,,,,,,,,,,,,,,,,,,,,,,,,,,,,,,,,,,,,,"[1,4,9,3]",0,0,0,0,1,,,,,,,,,,,,,,,,,,,,,,,,,,,,,,,,,,,,,,,,,,,,,,,,
,,610309d6b51e8a9a5da8a6f4,2022-09-08_13h56.03.859,CGTgamblingSpanTasks,2022.2.1,MacIntel,60.14675809,,,,,,,,,,,,,,,,,,,,,,,,,,,,,,,,,,,,,,,,,,,,,,,,,,,,,,,,,,,,,,,,,,,,,,,,,,,,,,,,,,"[1,4,9,3]",1,0,1,0,1,,,,,,,,,,,,,,,,,,,,,,,,,,,,,,,,,,,,,,,,,,,,,,,,
,,610309d6b51e8a9a5da8a6f4,2022-09-08_13h56.03.859,CGTgamblingSpanTasks,2022.2.1,MacIntel,60.14675809,,,,,,,,,,,,,,,,,,,,,,,,,,,,,,,,,,,,,,,,,,,,,,,,,,,,,,,,,,,,,,,,,,,,,,,,,,,,,,,,,,"[1,4,9,3]",2,0,2,0,1,,,,,,,,,,,,,,,,,,,,,,,,,,,,,,,,,,,,,,,,,,,,,,,,
,,610309d6b51e8a9a5da8a6f4,2022-09-08_13h56.03.859,CGTgamblingSpanTasks,2022.2.1,MacIntel,60.14675809,,,,,,,,,,,,,,,,,,,,,,,,,,,,,,,,,,,,,,,,,,,,,,,,,,,,,,,,,,,,,,,,,,,,,,,,,,,,,,,,,,"[1,4,9,3]",3,0,3,0,1,,,,,,,,,,,,,,,,,,,,,,,,,,,,,,,,,,,,,,,,,,,,,,,,
,,610309d6b51e8a9a5da8a6f4,2022-09-08_13h56.03.859,CGTgamblingSpanTasks,2022.2.1,MacIntel,60.14675809,,,,,,,,,,,,,,,,,,,,,,,,,,,,,,,,,,,,,,,,,,,,,,,,,,,,,,,,,,,,,,,1,,,,,,,,,,,,,,,,,,,,,,,,,1493,0.068632813,-0.414980469,1,0,0,cont_button,0,1,1,1,1,2,,,,,,,,,,,,,,,,,,,,,,,,,,,,,,,,,,,
,,610309d6b51e8a9a5da8a6f4,2022-09-08_13h56.03.859,CGTgamblingSpanTasks,2022.2.1,MacIntel,60.14675809,,,,,,,,,,,,,,,,,,,,,,,,,,,,,,,,,,,,,,,,,,,,,,,,,,,,,,,,,,,,,,,,,,,,,,,,,,,,,,,,,,"[2,1,6,5,9]",0,0,0,0,1,,,,,,,,,,,,,,,,,,,,,,,,,,,,,,,,,,,,,,,,,,,,,,,,
,,610309d6b51e8a9a5da8a6f4,2022-09-08_13h56.03.859,CGTgamblingSpanTasks,2022.2.1,MacIntel,60.14675809,,,,,,,,,,,,,,,,,,,,,,,,,,,,,,,,,,,,,,,,,,,,,,,,,,,,,,,,,,,,,,,,,,,,,,,,,,,,,,,,,,"[2,1,6,5,9]",1,0,1,0,1,,,,,,,,,,,,,,,,,,,,,,,,,,,,,,,,,,,,,,,,,,,,,,,,
,,610309d6b51e8a9a5da8a6f4,2022-09-08_13h56.03.859,CGTgamblingSpanTasks,2022.2.1,MacIntel,60.14675809,,,,,,,,,,,,,,,,,,,,,,,,,,,,,,,,,,,,,,,,,,,,,,,,,,,,,,,,,,,,,,,,,,,,,,,,,,,,,,,,,,"[2,1,6,5,9]",2,0,2,0,1,,,,,,,,,,,,,,,,,,,,,,,,,,,,,,,,,,,,,,,,,,,,,,,,
,,610309d6b51e8a9a5da8a6f4,2022-09-08_13h56.03.859,CGTgamblingSpanTasks,2022.2.1,MacIntel,60.14675809,,,,,,,,,,,,,,,,,,,,,,,,,,,,,,,,,,,,,,,,,,,,,,,,,,,,,,,,,,,,,,,,,,,,,,,,,,,,,,,,,,"[2,1,6,5,9]",3,0,3,0,1,,,,,,,,,,,,,,,,,,,,,,,,,,,,,,,,,,,,,,,,,,,,,,,,
,,610309d6b51e8a9a5da8a6f4,2022-09-08_13h56.03.859,CGTgamblingSpanTasks,2022.2.1,MacIntel,60.14675809,,,,,,,,,,,,,,,,,,,,,,,,,,,,,,,,,,,,,,,,,,,,,,,,,,,,,,,,,,,,,,,,,,,,,,,,,,,,,,,,,,"[2,1,6,5,9]",4,0,4,0,1,,,,,,,,,,,,,,,,,,,,,,,,,,,,,,,,,,,,,,,,,,,,,,,,
,,610309d6b51e8a9a5da8a6f4,2022-09-08_13h56.03.859,CGTgamblingSpanTasks,2022.2.1,MacIntel,60.14675809,,,,,,,,,,,,,,,,,,,,,,,,,,,,,,,,,,,,,,,,,,,,,,,,,,,,,,,,,,,,,,,1,,,,,,,,,,,,,,,,,,,,,,,,,21659,0.067963867,-0.419106445,1,0,0,cont_button,0,2,2,2,1,3,,,,,,,,,,,,,,,,,,,,,,,,,,,,,,,,,,,
,,610309d6b51e8a9a5da8a6f4,2022-09-08_13h56.03.859,CGTgamblingSpanTasks,2022.2.1,MacIntel,60.14675809,,,,,,,,,,,,,,,,,,,,,,,,,,,,,,,,,,,,,,,,,,,,,,,,,,,,,,,,,,,,,,,,,,,,,,,,,,,,,,,,,,"[8,4,2,6,9,5]",0,0,0,0,1,,,,,,,,,,,,,,,,,,,,,,,,,,,,,,,,,,,,,,,,,,,,,,,,
,,610309d6b51e8a9a5da8a6f4,2022-09-08_13h56.03.859,CGTgamblingSpanTasks,2022.2.1,MacIntel,60.14675809,,,,,,,,,,,,,,,,,,,,,,,,,,,,,,,,,,,,,,,,,,,,,,,,,,,,,,,,,,,,,,,,,,,,,,,,,,,,,,,,,,"[8,4,2,6,9,5]",1,0,1,0,1,,,,,,,,,,,,,,,,,,,,,,,,,,,,,,,,,,,,,,,,,,,,,,,,
,,610309d6b51e8a9a5da8a6f4,2022-09-08_13h56.03.859,CGTgamblingSpanTasks,2022.2.1,MacIntel,60.14675809,,,,,,,,,,,,,,,,,,,,,,,,,,,,,,,,,,,,,,,,,,,,,,,,,,,,,,,,,,,,,,,,,,,,,,,,,,,,,,,,,,"[8,4,2,6,9,5]",2,0,2,0,1,,,,,,,,,,,,,,,,,,,,,,,,,,,,,,,,,,,,,,,,,,,,,,,,
,,610309d6b51e8a9a5da8a6f4,2022-09-08_13h56.03.859,CGTgamblingSpanTasks,2022.2.1,MacIntel,60.14675809,,,,,,,,,,,,,,,,,,,,,,,,,,,,,,,,,,,,,,,,,,,,,,,,,,,,,,,,,,,,,,,,,,,,,,,,,,,,,,,,,,"[8,4,2,6,9,5]",3,0,3,0,1,,,,,,,,,,,,,,,,,,,,,,,,,,,,,,,,,,,,,,,,,,,,,,,,
,,610309d6b51e8a9a5da8a6f4,2022-09-08_13h56.03.859,CGTgamblingSpanTasks,2022.2.1,MacIntel,60.14675809,,,,,,,,,,,,,,,,,,,,,,,,,,,,,,,,,,,,,,,,,,,,,,,,,,,,,,,,,,,,,,,,,,,,,,,,,,,,,,,,,,"[8,4,2,6,9,5]",4,0,4,0,1,,,,,,,,,,,,,,,,,,,,,,,,,,,,,,,,,,,,,,,,,,,,,,,,
,,610309d6b51e8a9a5da8a6f4,2022-09-08_13h56.03.859,CGTgamblingSpanTasks,2022.2.1,MacIntel,60.14675809,,,,,,,,,,,,,,,,,,,,,,,,,,,,,,,,,,,,,,,,,,,,,,,,,,,,,,,,,,,,,,,,,,,,,,,,,,,,,,,,,,"[8,4,2,6,9,5]",5,0,5,0,1,,,,,,,,,,,,,,,,,,,,,,,,,,,,,,,,,,,,,,,,,,,,,,,,
,,610309d6b51e8a9a5da8a6f4,2022-09-08_13h56.03.859,CGTgamblingSpanTasks,2022.2.1,MacIntel,60.14675809,,,,,,,,,,,,,,,,,,,,,,,,,,,,,,,,,,,,,,,,,,,,,,,,,,,,,,,,,,,,,,,1,,,,,,,,,,,,,,,,,,,,,,,,,842695,0.076254883,-0.403105469,1,0,0,cont_button,0,3,3,3,1,4,,,,,,,,,,,,,,,,,,,,,,,,,,,,,,,,,,,
,,610309d6b51e8a9a5da8a6f4,2022-09-08_13h56.03.859,CGTgamblingSpanTasks,2022.2.1,MacIntel,60.14675809,,,,,,,,,,,,,,,,,,,,,,,,,,,,,,,,,,,,,,,,,,,,,,,,,,,,,,,,,,,,,,,,,,,,,,,,,,,,,,,,,,"[4,6,7,2,1,8,3]",0,0,0,0,1,,,,,,,,,,,,,,,,,,,,,,,,,,,,,,,,,,,,,,,,,,,,,,,,
,,610309d6b51e8a9a5da8a6f4,2022-09-08_13h56.03.859,CGTgamblingSpanTasks,2022.2.1,MacIntel,60.14675809,,,,,,,,,,,,,,,,,,,,,,,,,,,,,,,,,,,,,,,,,,,,,,,,,,,,,,,,,,,,,,,,,,,,,,,,,,,,,,,,,,"[4,6,7,2,1,8,3]",1,0,1,0,1,,,,,,,,,,,,,,,,,,,,,,,,,,,,,,,,,,,,,,,,,,,,,,,,
,,610309d6b51e8a9a5da8a6f4,2022-09-08_13h56.03.859,CGTgamblingSpanTasks,2022.2.1,MacIntel,60.14675809,,,,,,,,,,,,,,,,,,,,,,,,,,,,,,,,,,,,,,,,,,,,,,,,,,,,,,,,,,,,,,,,,,,,,,,,,,,,,,,,,,"[4,6,7,2,1,8,3]",2,0,2,0,1,,,,,,,,,,,,,,,,,,,,,,,,,,,,,,,,,,,,,,,,,,,,,,,,
,,610309d6b51e8a9a5da8a6f4,2022-09-08_13h56.03.859,CGTgamblingSpanTasks,2022.2.1,MacIntel,60.14675809,,,,,,,,,,,,,,,,,,,,,,,,,,,,,,,,,,,,,,,,,,,,,,,,,,,,,,,,,,,,,,,,,,,,,,,,,,,,,,,,,,"[4,6,7,2,1,8,3]",3,0,3,0,1,,,,,,,,,,,,,,,,,,,,,,,,,,,,,,,,,,,,,,,,,,,,,,,,
,,610309d6b51e8a9a5da8a6f4,2022-09-08_13h56.03.859,CGTgamblingSpanTasks,2022.2.1,MacIntel,60.14675809,,,,,,,,,,,,,,,,,,,,,,,,,,,,,,,,,,,,,,,,,,,,,,,,,,,,,,,,,,,,,,,,,,,,,,,,,,,,,,,,,,"[4,6,7,2,1,8,3]",4,0,4,0,1,,,,,,,,,,,,,,,,,,,,,,,,,,,,,,,,,,,,,,,,,,,,,,,,
,,610309d6b51e8a9a5da8a6f4,2022-09-08_13h56.03.859,CGTgamblingSpanTasks,2022.2.1,MacIntel,60.14675809,,,,,,,,,,,,,,,,,,,,,,,,,,,,,,,,,,,,,,,,,,,,,,,,,,,,,,,,,,,,,,,,,,,,,,,,,,,,,,,,,,"[4,6,7,2,1,8,3]",5,0,5,0,1,,,,,,,,,,,,,,,,,,,,,,,,,,,,,,,,,,,,,,,,,,,,,,,,
,,610309d6b51e8a9a5da8a6f4,2022-09-08_13h56.03.859,CGTgamblingSpanTasks,2022.2.1,MacIntel,60.14675809,,,,,,,,,,,,,,,,,,,,,,,,,,,,,,,,,,,,,,,,,,,,,,,,,,,,,,,,,,,,,,,,,,,,,,,,,,,,,,,,,,"[4,6,7,2,1,8,3]",6,0,6,0,1,,,,,,,,,,,,,,,,,,,,,,,,,,,,,,,,,,,,,,,,,,,,,,,,
,,610309d6b51e8a9a5da8a6f4,2022-09-08_13h56.03.859,CGTgamblingSpanTasks,2022.2.1,MacIntel,60.14675809,,,,,,,,,,,,,,,,,,,,,,,,,,,,,,,,,,,,,,,,,,,,,,,,,,,,,,,,,,,,,,,1,,,,,,,,,,,,,,,,,,,,,,,,,4672183,0.071484375,-0.410605469,1,0,0,cont_button,0,4,4,4,1,5,,,,,,,,,,,,,,,,,,,,,,,,,,,,,,,,,,,
,,610309d6b51e8a9a5da8a6f4,2022-09-08_13h56.03.859,CGTgamblingSpanTasks,2022.2.1,MacIntel,60.14675809,,,,,,,,,,,,,,,,,,,,,,,,,,,,,,,,,,,,,,,,,,,,,,,,,,,,,,,,,,,,,,,,,,,,,,,,,,,,,,,,,,"[2,6,8,4,7,9,3,1]",0,0,0,0,1,,,,,,,,,,,,,,,,,,,,,,,,,,,,,,,,,,,,,,,,,,,,,,,,
,,610309d6b51e8a9a5da8a6f4,2022-09-08_13h56.03.859,CGTgamblingSpanTasks,2022.2.1,MacIntel,60.14675809,,,,,,,,,,,,,,,,,,,,,,,,,,,,,,,,,,,,,,,,,,,,,,,,,,,,,,,,,,,,,,,,,,,,,,,,,,,,,,,,,,"[2,6,8,4,7,9,3,1]",1,0,1,0,1,,,,,,,,,,,,,,,,,,,,,,,,,,,,,,,,,,,,,,,,,,,,,,,,
,,610309d6b51e8a9a5da8a6f4,2022-09-08_13h56.03.859,CGTgamblingSpanTasks,2022.2.1,MacIntel,60.14675809,,,,,,,,,,,,,,,,,,,,,,,,,,,,,,,,,,,,,,,,,,,,,,,,,,,,,,,,,,,,,,,,,,,,,,,,,,,,,,,,,,"[2,6,8,4,7,9,3,1]",2,0,2,0,1,,,,,,,,,,,,,,,,,,,,,,,,,,,,,,,,,,,,,,,,,,,,,,,,
,,610309d6b51e8a9a5da8a6f4,2022-09-08_13h56.03.859,CGTgamblingSpanTasks,2022.2.1,MacIntel,60.14675809,,,,,,,,,,,,,,,,,,,,,,,,,,,,,,,,,,,,,,,,,,,,,,,,,,,,,,,,,,,,,,,,,,,,,,,,,,,,,,,,,,"[2,6,8,4,7,9,3,1]",3,0,3,0,1,,,,,,,,,,,,,,,,,,,,,,,,,,,,,,,,,,,,,,,,,,,,,,,,
,,610309d6b51e8a9a5da8a6f4,2022-09-08_13h56.03.859,CGTgamblingSpanTasks,2022.2.1,MacIntel,60.14675809,,,,,,,,,,,,,,,,,,,,,,,,,,,,,,,,,,,,,,,,,,,,,,,,,,,,,,,,,,,,,,,,,,,,,,,,,,,,,,,,,,"[2,6,8,4,7,9,3,1]",4,0,4,0,1,,,,,,,,,,,,,,,,,,,,,,,,,,,,,,,,,,,,,,,,,,,,,,,,
,,610309d6b51e8a9a5da8a6f4,2022-09-08_13h56.03.859,CGTgamblingSpanTasks,2022.2.1,MacIntel,60.14675809,,,,,,,,,,,,,,,,,,,,,,,,,,,,,,,,,,,,,,,,,,,,,,,,,,,,,,,,,,,,,,,,,,,,,,,,,,,,,,,,,,"[2,6,8,4,7,9,3,1]",5,0,5,0,1,,,,,,,,,,,,,,,,,,,,,,,,,,,,,,,,,,,,,,,,,,,,,,,,
,,610309d6b51e8a9a5da8a6f4,2022-09-08_13h56.03.859,CGTgamblingSpanTasks,2022.2.1,MacIntel,60.14675809,,,,,,,,,,,,,,,,,,,,,,,,,,,,,,,,,,,,,,,,,,,,,,,,,,,,,,,,,,,,,,,,,,,,,,,,,,,,,,,,,,"[2,6,8,4,7,9,3,1]",6,0,6,0,1,,,,,,,,,,,,,,,,,,,,,,,,,,,,,,,,,,,,,,,,,,,,,,,,
,,610309d6b51e8a9a5da8a6f4,2022-09-08_13h56.03.859,CGTgamblingSpanTasks,2022.2.1,MacIntel,60.14675809,,,,,,,,,,,,,,,,,,,,,,,,,,,,,,,,,,,,,,,,,,,,,,,,,,,,,,,,,,,,,,,,,,,,,,,,,,,,,,,,,,"[2,6,8,4,7,9,3,1]",7,0,7,0,1,,,,,,,,,,,,,,,,,,,,,,,,,,,,,,,,,,,,,,,,,,,,,,,,
,,610309d6b51e8a9a5da8a6f4,2022-09-08_13h56.03.859,CGTgamblingSpanTasks,2022.2.1,MacIntel,60.14675809,,,,,,,,,,,,,,,,,,,,,,,,,,,,,,,,,,,,,,,,,,,,,,,,,,,,,,,,,,,,,,,0,,,,,,,,,,,,,,,,,,,,,,,,,2684793,0.046557617,-0.408320313,1,0,0,cont_button,0,5,5,5,1,6,,,,,,,,,,,,,,,,,,,,,,,,,,,,,,,,,,,
,,610309d6b51e8a9a5da8a6f4,2022-09-08_13h56.03.859,CGTgamblingSpanTasks,2022.2.1,MacIntel,60.14675809,,,,,,,,,,,,,,,,,,,,,,,,,,,,,,,,,,,,,,,,,,,,,,,,,,,,,,,,,,,,,,,,,,,,,,,,,,,,,,,,,,"[5,2,1,3,7,9,8,6]",0,0,0,0,1,,,,,,,,,,,,,,,,,,,,,,,,,,,,,,,,,,,,,,,,,,,,,,,,
,,610309d6b51e8a9a5da8a6f4,2022-09-08_13h56.03.859,CGTgamblingSpanTasks,2022.2.1,MacIntel,60.14675809,,,,,,,,,,,,,,,,,,,,,,,,,,,,,,,,,,,,,,,,,,,,,,,,,,,,,,,,,,,,,,,,,,,,,,,,,,,,,,,,,,"[5,2,1,3,7,9,8,6]",1,0,1,0,1,,,,,,,,,,,,,,,,,,,,,,,,,,,,,,,,,,,,,,,,,,,,,,,,
,,610309d6b51e8a9a5da8a6f4,2022-09-08_13h56.03.859,CGTgamblingSpanTasks,2022.2.1,MacIntel,60.14675809,,,,,,,,,,,,,,,,,,,,,,,,,,,,,,,,,,,,,,,,,,,,,,,,,,,,,,,,,,,,,,,,,,,,,,,,,,,,,,,,,,"[5,2,1,3,7,9,8,6]",2,0,2,0,1,,,,,,,,,,,,,,,,,,,,,,,,,,,,,,,,,,,,,,,,,,,,,,,,
,,610309d6b51e8a9a5da8a6f4,2022-09-08_13h56.03.859,CGTgamblingSpanTasks,2022.2.1,MacIntel,60.14675809,,,,,,,,,,,,,,,,,,,,,,,,,,,,,,,,,,,,,,,,,,,,,,,,,,,,,,,,,,,,,,,,,,,,,,,,,,,,,,,,,,"[5,2,1,3,7,9,8,6]",3,0,3,0,1,,,,,,,,,,,,,,,,,,,,,,,,,,,,,,,,,,,,,,,,,,,,,,,,
,,610309d6b51e8a9a5da8a6f4,2022-09-08_13h56.03.859,CGTgamblingSpanTasks,2022.2.1,MacIntel,60.14675809,,,,,,,,,,,,,,,,,,,,,,,,,,,,,,,,,,,,,,,,,,,,,,,,,,,,,,,,,,,,,,,,,,,,,,,,,,,,,,,,,,"[5,2,1,3,7,9,8,6]",4,0,4,0,1,,,,,,,,,,,,,,,,,,,,,,,,,,,,,,,,,,,,,,,,,,,,,,,,
,,610309d6b51e8a9a5da8a6f4,2022-09-08_13h56.03.859,CGTgamblingSpanTasks,2022.2.1,MacIntel,60.14675809,,,,,,,,,,,,,,,,,,,,,,,,,,,,,,,,,,,,,,,,,,,,,,,,,,,,,,,,,,,,,,,,,,,,,,,,,,,,,,,,,,"[5,2,1,3,7,9,8,6]",5,0,5,0,1,,,,,,,,,,,,,,,,,,,,,,,,,,,,,,,,,,,,,,,,,,,,,,,,
,,610309d6b51e8a9a5da8a6f4,2022-09-08_13h56.03.859,CGTgamblingSpanTasks,2022.2.1,MacIntel,60.14675809,,,,,,,,,,,,,,,,,,,,,,,,,,,,,,,,,,,,,,,,,,,,,,,,,,,,,,,,,,,,,,,,,,,,,,,,,,,,,,,,,,"[5,2,1,3,7,9,8,6]",6,0,6,0,1,,,,,,,,,,,,,,,,,,,,,,,,,,,,,,,,,,,,,,,,,,,,,,,,
,,610309d6b51e8a9a5da8a6f4,2022-09-08_13h56.03.859,CGTgamblingSpanTasks,2022.2.1,MacIntel,60.14675809,,,,,,,,,,,,,,,,,,,,,,,,,,,,,,,,,,,,,,,,,,,,,,,,,,,,,,,,,,,,,,,,,,,,,,,,,,,,,,,,,,"[5,2,1,3,7,9,8,6]",7,0,7,0,1,,,,,,,,,,,,,,,,,,,,,,,,,,,,,,,,,,,,,,,,,,,,,,,,
,,610309d6b51e8a9a5da8a6f4,2022-09-08_13h56.03.859,CGTgamblingSpanTasks,2022.2.1,MacIntel,60.14675809,,,,,,,,,,,,,,,,,,,,,,,,,,,,,,,,,,,,,,,,,,,,,,,,,,,,,,,,,,,,,,,0,,,,,,,,,,,,,,,,,,,,,,,,,5296789,0.077705078,-0.421987305,1,0,0,cont_button,0,6,6,6,1,7,,,,,,,,,,,,,,,,,,,,,,,,,,,,,,,,,,,
,,610309d6b51e8a9a5da8a6f4,2022-09-08_13h56.03.859,CGTgamblingSpanTasks,2022.2.1,MacIntel,60.14675809,,,,,,,,,,,,,,,,,,,,,,,,,,,,,,,,,,,,,,,,,,,,,,,,,,,,,,,,,,,,,,,,,,,,,,,,,,,,,,,,,,"[7,5,2,4,6,8,9]",0,0,0,0,1,,,,,,,,,,,,,,,,,,,,,,,,,,,,,,,,,,,,,,,,,,,,,,,,
,,610309d6b51e8a9a5da8a6f4,2022-09-08_13h56.03.859,CGTgamblingSpanTasks,2022.2.1,MacIntel,60.14675809,,,,,,,,,,,,,,,,,,,,,,,,,,,,,,,,,,,,,,,,,,,,,,,,,,,,,,,,,,,,,,,,,,,,,,,,,,,,,,,,,,"[7,5,2,4,6,8,9]",1,0,1,0,1,,,,,,,,,,,,,,,,,,,,,,,,,,,,,,,,,,,,,,,,,,,,,,,,
,,610309d6b51e8a9a5da8a6f4,2022-09-08_13h56.03.859,CGTgamblingSpanTasks,2022.2.1,MacIntel,60.14675809,,,,,,,,,,,,,,,,,,,,,,,,,,,,,,,,,,,,,,,,,,,,,,,,,,,,,,,,,,,,,,,,,,,,,,,,,,,,,,,,,,"[7,5,2,4,6,8,9]",2,0,2,0,1,,,,,,,,,,,,,,,,,,,,,,,,,,,,,,,,,,,,,,,,,,,,,,,,
,,610309d6b51e8a9a5da8a6f4,2022-09-08_13h56.03.859,CGTgamblingSpanTasks,2022.2.1,MacIntel,60.14675809,,,,,,,,,,,,,,,,,,,,,,,,,,,,,,,,,,,,,,,,,,,,,,,,,,,,,,,,,,,,,,,,,,,,,,,,,,,,,,,,,,"[7,5,2,4,6,8,9]",3,0,3,0,1,,,,,,,,,,,,,,,,,,,,,,,,,,,,,,,,,,,,,,,,,,,,,,,,
,,610309d6b51e8a9a5da8a6f4,2022-09-08_13h56.03.859,CGTgamblingSpanTasks,2022.2.1,MacIntel,60.14675809,,,,,,,,,,,,,,,,,,,,,,,,,,,,,,,,,,,,,,,,,,,,,,,,,,,,,,,,,,,,,,,,,,,,,,,,,,,,,,,,,,"[7,5,2,4,6,8,9]",4,0,4,0,1,,,,,,,,,,,,,,,,,,,,,,,,,,,,,,,,,,,,,,,,,,,,,,,,
,,610309d6b51e8a9a5da8a6f4,2022-09-08_13h56.03.859,CGTgamblingSpanTasks,2022.2.1,MacIntel,60.14675809,,,,,,,,,,,,,,,,,,,,,,,,,,,,,,,,,,,,,,,,,,,,,,,,,,,,,,,,,,,,,,,,,,,,,,,,,,,,,,,,,,"[7,5,2,4,6,8,9]",5,0,5,0,1,,,,,,,,,,,,,,,,,,,,,,,,,,,,,,,,,,,,,,,,,,,,,,,,
,,610309d6b51e8a9a5da8a6f4,2022-09-08_13h56.03.859,CGTgamblingSpanTasks,2022.2.1,MacIntel,60.14675809,,,,,,,,,,,,,,,,,,,,,,,,,,,,,,,,,,,,,,,,,,,,,,,,,,,,,,,,,,,,,,,,,,,,,,,,,,,,,,,,,,"[7,5,2,4,6,8,9]",6,0,6,0,1,,,,,,,,,,,,,,,,,,,,,,,,,,,,,,,,,,,,,,,,,,,,,,,,
,,610309d6b51e8a9a5da8a6f4,2022-09-08_13h56.03.859,CGTgamblingSpanTasks,2022.2.1,MacIntel,60.14675809,,,,,,,,,,,,,,,,,,,,,,,,,,,,,,,,,,,,,,,,,,,,,,,,,,,,,,,,,,,,,,,1,,,,,,,,,,,,,,,,,,,,,,,,,7524689,0.040507812,-0.389243164,1,0,0,cont_button,0,7,7,7,1,8,,,,,,,,,,,,,,,,,,,,,,,,,,,,,,,,,,,
,,610309d6b51e8a9a5da8a6f4,2022-09-08_13h56.03.859,CGTgamblingSpanTasks,2022.2.1,MacIntel,60.14675809,,,,,,,,,,,,,,,,,,,,,,,,,,,,,,,,,,,,,,,,,,,,,,,,,,,,,,,,,,,,,,,,,,,,,,,,,,,,,,,,,,"[6,3,7,1,5,4,9,2]",0,0,0,0,1,,,,,,,,,,,,,,,,,,,,,,,,,,,,,,,,,,,,,,,,,,,,,,,,
,,610309d6b51e8a9a5da8a6f4,2022-09-08_13h56.03.859,CGTgamblingSpanTasks,2022.2.1,MacIntel,60.14675809,,,,,,,,,,,,,,,,,,,,,,,,,,,,,,,,,,,,,,,,,,,,,,,,,,,,,,,,,,,,,,,,,,,,,,,,,,,,,,,,,,"[6,3,7,1,5,4,9,2]",1,0,1,0,1,,,,,,,,,,,,,,,,,,,,,,,,,,,,,,,,,,,,,,,,,,,,,,,,
,,610309d6b51e8a9a5da8a6f4,2022-09-08_13h56.03.859,CGTgamblingSpanTasks,2022.2.1,MacIntel,60.14675809,,,,,,,,,,,,,,,,,,,,,,,,,,,,,,,,,,,,,,,,,,,,,,,,,,,,,,,,,,,,,,,,,,,,,,,,,,,,,,,,,,"[6,3,7,1,5,4,9,2]",2,0,2,0,1,,,,,,,,,,,,,,,,,,,,,,,,,,,,,,,,,,,,,,,,,,,,,,,,
,,610309d6b51e8a9a5da8a6f4,2022-09-08_13h56.03.859,CGTgamblingSpanTasks,2022.2.1,MacIntel,60.14675809,,,,,,,,,,,,,,,,,,,,,,,,,,,,,,,,,,,,,,,,,,,,,,,,,,,,,,,,,,,,,,,,,,,,,,,,,,,,,,,,,,"[6,3,7,1,5,4,9,2]",3,0,3,0,1,,,,,,,,,,,,,,,,,,,,,,,,,,,,,,,,,,,,,,,,,,,,,,,,
,,610309d6b51e8a9a5da8a6f4,2022-09-08_13h56.03.859,CGTgamblingSpanTasks,2022.2.1,MacIntel,60.14675809,,,,,,,,,,,,,,,,,,,,,,,,,,,,,,,,,,,,,,,,,,,,,,,,,,,,,,,,,,,,,,,,,,,,,,,,,,,,,,,,,,"[6,3,7,1,5,4,9,2]",4,0,4,0,1,,,,,,,,,,,,,,,,,,,,,,,,,,,,,,,,,,,,,,,,,,,,,,,,
,,610309d6b51e8a9a5da8a6f4,2022-09-08_13h56.03.859,CGTgamblingSpanTasks,2022.2.1,MacIntel,60.14675809,,,,,,,,,,,,,,,,,,,,,,,,,,,,,,,,,,,,,,,,,,,,,,,,,,,,,,,,,,,,,,,,,,,,,,,,,,,,,,,,,,"[6,3,7,1,5,4,9,2]",5,0,5,0,1,,,,,,,,,,,,,,,,,,,,,,,,,,,,,,,,,,,,,,,,,,,,,,,,
,,610309d6b51e8a9a5da8a6f4,2022-09-08_13h56.03.859,CGTgamblingSpanTasks,2022.2.1,MacIntel,60.14675809,,,,,,,,,,,,,,,,,,,,,,,,,,,,,,,,,,,,,,,,,,,,,,,,,,,,,,,,,,,,,,,,,,,,,,,,,,,,,,,,,,"[6,3,7,1,5,4,9,2]",6,0,6,0,1,,,,,,,,,,,,,,,,,,,,,,,,,,,,,,,,,,,,,,,,,,,,,,,,
,,610309d6b51e8a9a5da8a6f4,2022-09-08_13h56.03.859,CGTgamblingSpanTasks,2022.2.1,MacIntel,60.14675809,,,,,,,,,,,,,,,,,,,,,,,,,,,,,,,,,,,,,,,,,,,,,,,,,,,,,,,,,,,,,,,,,,,,,,,,,,,,,,,,,,"[6,3,7,1,5,4,9,2]",7,0,7,0,1,,,,,,,,,,,,,,,,,,,,,,,,,,,,,,,,,,,,,,,,,,,,,,,,
,,610309d6b51e8a9a5da8a6f4,2022-09-08_13h56.03.859,CGTgamblingSpanTasks,2022.2.1,MacIntel,60.14675809,,,,,,,,,,,,,,,,,,,,,,,,,,,,,,,,,,,,,,,,,,,,,,,,,,,,,,,,,,,,,,,1,,,,,,,,,,,,,,,,,,,,,,,,,63715492,-0.001152344,-0.406459961,1,0,0,cont_button,0,8,8,8,1,9,,,,,,,,,,,,,,,,,,,,,,,,,,,,,,,,,,,
,,610309d6b51e8a9a5da8a6f4,2022-09-08_13h56.03.859,CGTgamblingSpanTasks,2022.2.1,MacIntel,60.14675809,,,,,,,,,,,,,,,,,,,,,,,,,,,,,,,,,,,,,,,,,,,,,,,,,,,,,,,,,,,,,,,,,,,,,,,,,,,,,,,,,,"[3,9,4,5,1,8,2,7,6]",0,0,0,0,1,,,,,,,,,,,,,,,,,,,,,,,,,,,,,,,,,,,,,,,,,,,,,,,,
,,610309d6b51e8a9a5da8a6f4,2022-09-08_13h56.03.859,CGTgamblingSpanTasks,2022.2.1,MacIntel,60.14675809,,,,,,,,,,,,,,,,,,,,,,,,,,,,,,,,,,,,,,,,,,,,,,,,,,,,,,,,,,,,,,,,,,,,,,,,,,,,,,,,,,"[3,9,4,5,1,8,2,7,6]",1,0,1,0,1,,,,,,,,,,,,,,,,,,,,,,,,,,,,,,,,,,,,,,,,,,,,,,,,
,,610309d6b51e8a9a5da8a6f4,2022-09-08_13h56.03.859,CGTgamblingSpanTasks,2022.2.1,MacIntel,60.14675809,,,,,,,,,,,,,,,,,,,,,,,,,,,,,,,,,,,,,,,,,,,,,,,,,,,,,,,,,,,,,,,,,,,,,,,,,,,,,,,,,,"[3,9,4,5,1,8,2,7,6]",2,0,2,0,1,,,,,,,,,,,,,,,,,,,,,,,,,,,,,,,,,,,,,,,,,,,,,,,,
,,610309d6b51e8a9a5da8a6f4,2022-09-08_13h56.03.859,CGTgamblingSpanTasks,2022.2.1,MacIntel,60.14675809,,,,,,,,,,,,,,,,,,,,,,,,,,,,,,,,,,,,,,,,,,,,,,,,,,,,,,,,,,,,,,,,,,,,,,,,,,,,,,,,,,"[3,9,4,5,1,8,2,7,6]",3,0,3,0,1,,,,,,,,,,,,,,,,,,,,,,,,,,,,,,,,,,,,,,,,,,,,,,,,
,,610309d6b51e8a9a5da8a6f4,2022-09-08_13h56.03.859,CGTgamblingSpanTasks,2022.2.1,MacIntel,60.14675809,,,,,,,,,,,,,,,,,,,,,,,,,,,,,,,,,,,,,,,,,,,,,,,,,,,,,,,,,,,,,,,,,,,,,,,,,,,,,,,,,,"[3,9,4,5,1,8,2,7,6]",4,0,4,0,1,,,,,,,,,,,,,,,,,,,,,,,,,,,,,,,,,,,,,,,,,,,,,,,,
,,610309d6b51e8a9a5da8a6f4,2022-09-08_13h56.03.859,CGTgamblingSpanTasks,2022.2.1,MacIntel,60.14675809,,,,,,,,,,,,,,,,,,,,,,,,,,,,,,,,,,,,,,,,,,,,,,,,,,,,,,,,,,,,,,,,,,,,,,,,,,,,,,,,,,"[3,9,4,5,1,8,2,7,6]",5,0,5,0,1,,,,,,,,,,,,,,,,,,,,,,,,,,,,,,,,,,,,,,,,,,,,,,,,
,,610309d6b51e8a9a5da8a6f4,2022-09-08_13h56.03.859,CGTgamblingSpanTasks,2022.2.1,MacIntel,60.14675809,,,,,,,,,,,,,,,,,,,,,,,,,,,,,,,,,,,,,,,,,,,,,,,,,,,,,,,,,,,,,,,,,,,,,,,,,,,,,,,,,,"[3,9,4,5,1,8,2,7,6]",6,0,6,0,1,,,,,,,,,,,,,,,,,,,,,,,,,,,,,,,,,,,,,,,,,,,,,,,,
,,610309d6b51e8a9a5da8a6f4,2022-09-08_13h56.03.859,CGTgamblingSpanTasks,2022.2.1,MacIntel,60.14675809,,,,,,,,,,,,,,,,,,,,,,,,,,,,,,,,,,,,,,,,,,,,,,,,,,,,,,,,,,,,,,,,,,,,,,,,,,,,,,,,,,"[3,9,4,5,1,8,2,7,6]",7,0,7,0,1,,,,,,,,,,,,,,,,,,,,,,,,,,,,,,,,,,,,,,,,,,,,,,,,
,,610309d6b51e8a9a5da8a6f4,2022-09-08_13h56.03.859,CGTgamblingSpanTasks,2022.2.1,MacIntel,60.14675809,,,,,,,,,,,,,,,,,,,,,,,,,,,,,,,,,,,,,,,,,,,,,,,,,,,,,,,,,,,,,,,,,,,,,,,,,,,,,,,,,,"[3,9,4,5,1,8,2,7,6]",8,0,8,0,1,,,,,,,,,,,,,,,,,,,,,,,,,,,,,,,,,,,,,,,,,,,,,,,,
,,610309d6b51e8a9a5da8a6f4,2022-09-08_13h56.03.859,CGTgamblingSpanTasks,2022.2.1,MacIntel,60.14675809,,,,,,,,,,,,,,,,,,,,,,,,,,,,,,,,,,,,,,,,,,,,,,,,,,,,,,,,,,,,,,,1,,,,,,,,,,,,,,,,,,,,,,,,,394518276,0.080019531,-0.417353516,1,0,0,cont_button,0,9,9,9,1,10,,,,,,,,,,,,,,,,,,,,,,,,,,,,,,,,,,,
,,610309d6b51e8a9a5da8a6f4,2022-09-08_13h56.03.859,CGTgamblingSpanTasks,2022.2.1,MacIntel,60.14675809,,,,,,,,,,,,,,,,,,,,,,,,,,,,,,,,,,,,,,,,,,,,,,,,,,,,,,,,,,,,,,,,,,,,,,,,,,,,,,,,,,"[1,6,9,4,3,5,8,7,2,2]",0,0,0,0,1,,,,,,,,,,,,,,,,,,,,,,,,,,,,,,,,,,,,,,,,,,,,,,,,
,,610309d6b51e8a9a5da8a6f4,2022-09-08_13h56.03.859,CGTgamblingSpanTasks,2022.2.1,MacIntel,60.14675809,,,,,,,,,,,,,,,,,,,,,,,,,,,,,,,,,,,,,,,,,,,,,,,,,,,,,,,,,,,,,,,,,,,,,,,,,,,,,,,,,,"[1,6,9,4,3,5,8,7,2,2]",1,0,1,0,1,,,,,,,,,,,,,,,,,,,,,,,,,,,,,,,,,,,,,,,,,,,,,,,,
,,610309d6b51e8a9a5da8a6f4,2022-09-08_13h56.03.859,CGTgamblingSpanTasks,2022.2.1,MacIntel,60.14675809,,,,,,,,,,,,,,,,,,,,,,,,,,,,,,,,,,,,,,,,,,,,,,,,,,,,,,,,,,,,,,,,,,,,,,,,,,,,,,,,,,"[1,6,9,4,3,5,8,7,2,2]",2,0,2,0,1,,,,,,,,,,,,,,,,,,,,,,,,,,,,,,,,,,,,,,,,,,,,,,,,
,,610309d6b51e8a9a5da8a6f4,2022-09-08_13h56.03.859,CGTgamblingSpanTasks,2022.2.1,MacIntel,60.14675809,,,,,,,,,,,,,,,,,,,,,,,,,,,,,,,,,,,,,,,,,,,,,,,,,,,,,,,,,,,,,,,,,,,,,,,,,,,,,,,,,,"[1,6,9,4,3,5,8,7,2,2]",3,0,3,0,1,,,,,,,,,,,,,,,,,,,,,,,,,,,,,,,,,,,,,,,,,,,,,,,,
,,610309d6b51e8a9a5da8a6f4,2022-09-08_13h56.03.859,CGTgamblingSpanTasks,2022.2.1,MacIntel,60.14675809,,,,,,,,,,,,,,,,,,,,,,,,,,,,,,,,,,,,,,,,,,,,,,,,,,,,,,,,,,,,,,,,,,,,,,,,,,,,,,,,,,"[1,6,9,4,3,5,8,7,2,2]",4,0,4,0,1,,,,,,,,,,,,,,,,,,,,,,,,,,,,,,,,,,,,,,,,,,,,,,,,
,,610309d6b51e8a9a5da8a6f4,2022-09-08_13h56.03.859,CGTgamblingSpanTasks,2022.2.1,MacIntel,60.14675809,,,,,,,,,,,,,,,,,,,,,,,,,,,,,,,,,,,,,,,,,,,,,,,,,,,,,,,,,,,,,,,,,,,,,,,,,,,,,,,,,,"[1,6,9,4,3,5,8,7,2,2]",5,0,5,0,1,,,,,,,,,,,,,,,,,,,,,,,,,,,,,,,,,,,,,,,,,,,,,,,,
,,610309d6b51e8a9a5da8a6f4,2022-09-08_13h56.03.859,CGTgamblingSpanTasks,2022.2.1,MacIntel,60.14675809,,,,,,,,,,,,,,,,,,,,,,,,,,,,,,,,,,,,,,,,,,,,,,,,,,,,,,,,,,,,,,,,,,,,,,,,,,,,,,,,,,"[1,6,9,4,3,5,8,7,2,2]",6,0,6,0,1,,,,,,,,,,,,,,,,,,,,,,,,,,,,,,,,,,,,,,,,,,,,,,,,
,,610309d6b51e8a9a5da8a6f4,2022-09-08_13h56.03.859,CGTgamblingSpanTasks,2022.2.1,MacIntel,60.14675809,,,,,,,,,,,,,,,,,,,,,,,,,,,,,,,,,,,,,,,,,,,,,,,,,,,,,,,,,,,,,,,,,,,,,,,,,,,,,,,,,,"[1,6,9,4,3,5,8,7,2,2]",7,0,7,0,1,,,,,,,,,,,,,,,,,,,,,,,,,,,,,,,,,,,,,,,,,,,,,,,,
,,610309d6b51e8a9a5da8a6f4,2022-09-08_13h56.03.859,CGTgamblingSpanTasks,2022.2.1,MacIntel,60.14675809,,,,,,,,,,,,,,,,,,,,,,,,,,,,,,,,,,,,,,,,,,,,,,,,,,,,,,,,,,,,,,,,,,,,,,,,,,,,,,,,,,"[1,6,9,4,3,5,8,7,2,2]",8,0,8,0,1,,,,,,,,,,,,,,,,,,,,,,,,,,,,,,,,,,,,,,,,,,,,,,,,
,,610309d6b51e8a9a5da8a6f4,2022-09-08_13h56.03.859,CGTgamblingSpanTasks,2022.2.1,MacIntel,60.14675809,,,,,,,,,,,,,,,,,,,,,,,,,,,,,,,,,,,,,,,,,,,,,,,,,,,,,,,,,,,,,,,,,,,,,,,,,,,,,,,,,,"[1,6,9,4,3,5,8,7,2,2]",9,0,9,0,1,,,,,,,,,,,,,,,,,,,,,,,,,,,,,,,,,,,,,,,,,,,,,,,,
,,610309d6b51e8a9a5da8a6f4,2022-09-08_13h56.03.859,CGTgamblingSpanTasks,2022.2.1,MacIntel,60.14675809,,,,,,,,,,,,,,,,,,,,,,,,,,,,,,,,,,,,,,,,,,,,,,,,,,,,,,,,,,,,,,,0,,,,,,,,,,,,,,,,,,,,,,,,,189435872,0.037412109,-0.410742188,1,0,0,cont_button,0,10,10,10,1,11,,,,,,,,,,,,,,,,,,,,,,,,,,,,,,,,,,,
,,610309d6b51e8a9a5da8a6f4,2022-09-08_13h56.03.859,CGTgamblingSpanTasks,2022.2.1,MacIntel,60.14675809,,,,,,,,,,,,,,,,,,,,,,,,,,,,,,,,,,,,,,,,,,,,,,,,,,,,,,,,,,,,,,,,,,,,,,,,,,,,,,,,,,"[6,5,7,3,8,1,2,4,9,9]",0,0,0,0,1,,,,,,,,,,,,,,,,,,,,,,,,,,,,,,,,,,,,,,,,,,,,,,,,
,,610309d6b51e8a9a5da8a6f4,2022-09-08_13h56.03.859,CGTgamblingSpanTasks,2022.2.1,MacIntel,60.14675809,,,,,,,,,,,,,,,,,,,,,,,,,,,,,,,,,,,,,,,,,,,,,,,,,,,,,,,,,,,,,,,,,,,,,,,,,,,,,,,,,,"[6,5,7,3,8,1,2,4,9,9]",1,0,1,0,1,,,,,,,,,,,,,,,,,,,,,,,,,,,,,,,,,,,,,,,,,,,,,,,,
,,610309d6b51e8a9a5da8a6f4,2022-09-08_13h56.03.859,CGTgamblingSpanTasks,2022.2.1,MacIntel,60.14675809,,,,,,,,,,,,,,,,,,,,,,,,,,,,,,,,,,,,,,,,,,,,,,,,,,,,,,,,,,,,,,,,,,,,,,,,,,,,,,,,,,"[6,5,7,3,8,1,2,4,9,9]",2,0,2,0,1,,,,,,,,,,,,,,,,,,,,,,,,,,,,,,,,,,,,,,,,,,,,,,,,
,,610309d6b51e8a9a5da8a6f4,2022-09-08_13h56.03.859,CGTgamblingSpanTasks,2022.2.1,MacIntel,60.14675809,,,,,,,,,,,,,,,,,,,,,,,,,,,,,,,,,,,,,,,,,,,,,,,,,,,,,,,,,,,,,,,,,,,,,,,,,,,,,,,,,,"[6,5,7,3,8,1,2,4,9,9]",3,0,3,0,1,,,,,,,,,,,,,,,,,,,,,,,,,,,,,,,,,,,,,,,,,,,,,,,,
,,610309d6b51e8a9a5da8a6f4,2022-09-08_13h56.03.859,CGTgamblingSpanTasks,2022.2.1,MacIntel,60.14675809,,,,,,,,,,,,,,,,,,,,,,,,,,,,,,,,,,,,,,,,,,,,,,,,,,,,,,,,,,,,,,,,,,,,,,,,,,,,,,,,,,"[6,5,7,3,8,1,2,4,9,9]",4,0,4,0,1,,,,,,,,,,,,,,,,,,,,,,,,,,,,,,,,,,,,,,,,,,,,,,,,
,,610309d6b51e8a9a5da8a6f4,2022-09-08_13h56.03.859,CGTgamblingSpanTasks,2022.2.1,MacIntel,60.14675809,,,,,,,,,,,,,,,,,,,,,,,,,,,,,,,,,,,,,,,,,,,,,,,,,,,,,,,,,,,,,,,,,,,,,,,,,,,,,,,,,,"[6,5,7,3,8,1,2,4,9,9]",5,0,5,0,1,,,,,,,,,,,,,,,,,,,,,,,,,,,,,,,,,,,,,,,,,,,,,,,,
,,610309d6b51e8a9a5da8a6f4,2022-09-08_13h56.03.859,CGTgamblingSpanTasks,2022.2.1,MacIntel,60.14675809,,,,,,,,,,,,,,,,,,,,,,,,,,,,,,,,,,,,,,,,,,,,,,,,,,,,,,,,,,,,,,,,,,,,,,,,,,,,,,,,,,"[6,5,7,3,8,1,2,4,9,9]",6,0,6,0,1,,,,,,,,,,,,,,,,,,,,,,,,,,,,,,,,,,,,,,,,,,,,,,,,
,,610309d6b51e8a9a5da8a6f4,2022-09-08_13h56.03.859,CGTgamblingSpanTasks,2022.2.1,MacIntel,60.14675809,,,,,,,,,,,,,,,,,,,,,,,,,,,,,,,,,,,,,,,,,,,,,,,,,,,,,,,,,,,,,,,,,,,,,,,,,,,,,,,,,,"[6,5,7,3,8,1,2,4,9,9]",7,0,7,0,1,,,,,,,,,,,,,,,,,,,,,,,,,,,,,,,,,,,,,,,,,,,,,,,,
,,610309d6b51e8a9a5da8a6f4,2022-09-08_13h56.03.859,CGTgamblingSpanTasks,2022.2.1,MacIntel,60.14675809,,,,,,,,,,,,,,,,,,,,,,,,,,,,,,,,,,,,,,,,,,,,,,,,,,,,,,,,,,,,,,,,,,,,,,,,,,,,,,,,,,"[6,5,7,3,8,1,2,4,9,9]",8,0,8,0,1,,,,,,,,,,,,,,,,,,,,,,,,,,,,,,,,,,,,,,,,,,,,,,,,
,,610309d6b51e8a9a5da8a6f4,2022-09-08_13h56.03.859,CGTgamblingSpanTasks,2022.2.1,MacIntel,60.14675809,,,,,,,,,,,,,,,,,,,,,,,,,,,,,,,,,,,,,,,,,,,,,,,,,,,,,,,,,,,,,,,,,,,,,,,,,,,,,,,,,,"[6,5,7,3,8,1,2,4,9,9]",9,0,9,0,1,,,,,,,,,,,,,,,,,,,,,,,,,,,,,,,,,,,,,,,,,,,,,,,,
,,610309d6b51e8a9a5da8a6f4,2022-09-08_13h56.03.859,CGTgamblingSpanTasks,2022.2.1,MacIntel,60.14675809,,,,,,,,,,,,,,,,,,,,,,,,,,,,,,,,,,,,,,,,,,,,,,,,,,,,,,,,,,,,,,,0,,,,,,,,,,,,,,,,,,,,,,,,,657381249,-0.023149414,-0.41605957,1,0,0,cont_button,0,11,11,11,1,12,,,,,,,,,,,,,,,,,,,,,,,,,,,,,,,,,,,
,,610309d6b51e8a9a5da8a6f4,2022-09-08_13h56.03.859,CGTgamblingSpanTasks,2022.2.1,MacIntel,60.14675809,,,,,,,,,,,,,,,,,,,,,,,,,,,,,,,,,,,,,,,,,,,,,,,,,,,,,,,,,,,,,,,,,,,,,,,,,,,,,,,,,,"[8,4,2,7,1,9,3,6,5]",0,0,0,0,1,,,,,,,,,,,,,,,,,,,,,,,,,,,,,,,,,,,,,,,,,,,,,,,,
,,610309d6b51e8a9a5da8a6f4,2022-09-08_13h56.03.859,CGTgamblingSpanTasks,2022.2.1,MacIntel,60.14675809,,,,,,,,,,,,,,,,,,,,,,,,,,,,,,,,,,,,,,,,,,,,,,,,,,,,,,,,,,,,,,,,,,,,,,,,,,,,,,,,,,"[8,4,2,7,1,9,3,6,5]",1,0,1,0,1,,,,,,,,,,,,,,,,,,,,,,,,,,,,,,,,,,,,,,,,,,,,,,,,
,,610309d6b51e8a9a5da8a6f4,2022-09-08_13h56.03.859,CGTgamblingSpanTasks,2022.2.1,MacIntel,60.14675809,,,,,,,,,,,,,,,,,,,,,,,,,,,,,,,,,,,,,,,,,,,,,,,,,,,,,,,,,,,,,,,,,,,,,,,,,,,,,,,,,,"[8,4,2,7,1,9,3,6,5]",2,0,2,0,1,,,,,,,,,,,,,,,,,,,,,,,,,,,,,,,,,,,,,,,,,,,,,,,,
,,610309d6b51e8a9a5da8a6f4,2022-09-08_13h56.03.859,CGTgamblingSpanTasks,2022.2.1,MacIntel,60.14675809,,,,,,,,,,,,,,,,,,,,,,,,,,,,,,,,,,,,,,,,,,,,,,,,,,,,,,,,,,,,,,,,,,,,,,,,,,,,,,,,,,"[8,4,2,7,1,9,3,6,5]",3,0,3,0,1,,,,,,,,,,,,,,,,,,,,,,,,,,,,,,,,,,,,,,,,,,,,,,,,
,,610309d6b51e8a9a5da8a6f4,2022-09-08_13h56.03.859,CGTgamblingSpanTasks,2022.2.1,MacIntel,60.14675809,,,,,,,,,,,,,,,,,,,,,,,,,,,,,,,,,,,,,,,,,,,,,,,,,,,,,,,,,,,,,,,,,,,,,,,,,,,,,,,,,,"[8,4,2,7,1,9,3,6,5]",4,0,4,0,1,,,,,,,,,,,,,,,,,,,,,,,,,,,,,,,,,,,,,,,,,,,,,,,,
,,610309d6b51e8a9a5da8a6f4,2022-09-08_13h56.03.859,CGTgamblingSpanTasks,2022.2.1,MacIntel,60.14675809,,,,,,,,,,,,,,,,,,,,,,,,,,,,,,,,,,,,,,,,,,,,,,,,,,,,,,,,,,,,,,,,,,,,,,,,,,,,,,,,,,"[8,4,2,7,1,9,3,6,5]",5,0,5,0,1,,,,,,,,,,,,,,,,,,,,,,,,,,,,,,,,,,,,,,,,,,,,,,,,
,,610309d6b51e8a9a5da8a6f4,2022-09-08_13h56.03.859,CGTgamblingSpanTasks,2022.2.1,MacIntel,60.14675809,,,,,,,,,,,,,,,,,,,,,,,,,,,,,,,,,,,,,,,,,,,,,,,,,,,,,,,,,,,,,,,,,,,,,,,,,,,,,,,,,,"[8,4,2,7,1,9,3,6,5]",6,0,6,0,1,,,,,,,,,,,,,,,,,,,,,,,,,,,,,,,,,,,,,,,,,,,,,,,,
,,610309d6b51e8a9a5da8a6f4,2022-09-08_13h56.03.859,CGTgamblingSpanTasks,2022.2.1,MacIntel,60.14675809,,,,,,,,,,,,,,,,,,,,,,,,,,,,,,,,,,,,,,,,,,,,,,,,,,,,,,,,,,,,,,,,,,,,,,,,,,,,,,,,,,"[8,4,2,7,1,9,3,6,5]",7,0,7,0,1,,,,,,,,,,,,,,,,,,,,,,,,,,,,,,,,,,,,,,,,,,,,,,,,
,,610309d6b51e8a9a5da8a6f4,2022-09-08_13h56.03.859,CGTgamblingSpanTasks,2022.2.1,MacIntel,60.14675809,,,,,,,,,,,,,,,,,,,,,,,,,,,,,,,,,,,,,,,,,,,,,,,,,,,,,,,,,,,,,,,,,,,,,,,,,,,,,,,,,,"[8,4,2,7,1,9,3,6,5]",8,0,8,0,1,,,,,,,,,,,,,,,,,,,,,,,,,,,,,,,,,,,,,,,,,,,,,,,,
,,610309d6b51e8a9a5da8a6f4,2022-09-08_13h56.03.859,CGTgamblingSpanTasks,2022.2.1,MacIntel,60.14675809,,,,,,,,,,,,,,,,,,,,,,,,,,,,,,,,,,,,,,,,,,,,,,,,,,,,,,,,,,,,,,,0,,,,,,,,,,,,,,,,,,,,,,,,,42719365,-0.029516602,-0.422368164,1,0,0,cont_button,0,12,12,12,1,13,,,,,,,,,,,,,,,,,,,,,,,,,,,,,,,,,,,
,,610309d6b51e8a9a5da8a6f4,2022-09-08_13h56.03.859,CGTgamblingSpanTasks,2022.2.1,MacIntel,60.14675809,,,,,,,,,,,,,,,,,,,,,,,,,,,,,,,,,,,,,,,,,,,,,,,,,,,,,,,,,,,,,,,,,,,,,,,,,,,,,,,,,,"[7,8,5,3,9,1,4,2,6]",0,0,0,0,1,,,,,,,,,,,,,,,,,,,,,,,,,,,,,,,,,,,,,,,,,,,,,,,,
,,610309d6b51e8a9a5da8a6f4,2022-09-08_13h56.03.859,CGTgamblingSpanTasks,2022.2.1,MacIntel,60.14675809,,,,,,,,,,,,,,,,,,,,,,,,,,,,,,,,,,,,,,,,,,,,,,,,,,,,,,,,,,,,,,,,,,,,,,,,,,,,,,,,,,"[7,8,5,3,9,1,4,2,6]",1,0,1,0,1,,,,,,,,,,,,,,,,,,,,,,,,,,,,,,,,,,,,,,,,,,,,,,,,
,,610309d6b51e8a9a5da8a6f4,2022-09-08_13h56.03.859,CGTgamblingSpanTasks,2022.2.1,MacIntel,60.14675809,,,,,,,,,,,,,,,,,,,,,,,,,,,,,,,,,,,,,,,,,,,,,,,,,,,,,,,,,,,,,,,,,,,,,,,,,,,,,,,,,,"[7,8,5,3,9,1,4,2,6]",2,0,2,0,1,,,,,,,,,,,,,,,,,,,,,,,,,,,,,,,,,,,,,,,,,,,,,,,,
,,610309d6b51e8a9a5da8a6f4,2022-09-08_13h56.03.859,CGTgamblingSpanTasks,2022.2.1,MacIntel,60.14675809,,,,,,,,,,,,,,,,,,,,,,,,,,,,,,,,,,,,,,,,,,,,,,,,,,,,,,,,,,,,,,,,,,,,,,,,,,,,,,,,,,"[7,8,5,3,9,1,4,2,6]",3,0,3,0,1,,,,,,,,,,,,,,,,,,,,,,,,,,,,,,,,,,,,,,,,,,,,,,,,
,,610309d6b51e8a9a5da8a6f4,2022-09-08_13h56.03.859,CGTgamblingSpanTasks,2022.2.1,MacIntel,60.14675809,,,,,,,,,,,,,,,,,,,,,,,,,,,,,,,,,,,,,,,,,,,,,,,,,,,,,,,,,,,,,,,,,,,,,,,,,,,,,,,,,,"[7,8,5,3,9,1,4,2,6]",4,0,4,0,1,,,,,,,,,,,,,,,,,,,,,,,,,,,,,,,,,,,,,,,,,,,,,,,,
,,610309d6b51e8a9a5da8a6f4,2022-09-08_13h56.03.859,CGTgamblingSpanTasks,2022.2.1,MacIntel,60.14675809,,,,,,,,,,,,,,,,,,,,,,,,,,,,,,,,,,,,,,,,,,,,,,,,,,,,,,,,,,,,,,,,,,,,,,,,,,,,,,,,,,"[7,8,5,3,9,1,4,2,6]",5,0,5,0,1,,,,,,,,,,,,,,,,,,,,,,,,,,,,,,,,,,,,,,,,,,,,,,,,
,,610309d6b51e8a9a5da8a6f4,2022-09-08_13h56.03.859,CGTgamblingSpanTasks,2022.2.1,MacIntel,60.14675809,,,,,,,,,,,,,,,,,,,,,,,,,,,,,,,,,,,,,,,,,,,,,,,,,,,,,,,,,,,,,,,,,,,,,,,,,,,,,,,,,,"[7,8,5,3,9,1,4,2,6]",6,0,6,0,1,,,,,,,,,,,,,,,,,,,,,,,,,,,,,,,,,,,,,,,,,,,,,,,,
,,610309d6b51e8a9a5da8a6f4,2022-09-08_13h56.03.859,CGTgamblingSpanTasks,2022.2.1,MacIntel,60.14675809,,,,,,,,,,,,,,,,,,,,,,,,,,,,,,,,,,,,,,,,,,,,,,,,,,,,,,,,,,,,,,,,,,,,,,,,,,,,,,,,,,"[7,8,5,3,9,1,4,2,6]",7,0,7,0,1,,,,,,,,,,,,,,,,,,,,,,,,,,,,,,,,,,,,,,,,,,,,,,,,
,,610309d6b51e8a9a5da8a6f4,2022-09-08_13h56.03.859,CGTgamblingSpanTasks,2022.2.1,MacIntel,60.14675809,,,,,,,,,,,,,,,,,,,,,,,,,,,,,,,,,,,,,,,,,,,,,,,,,,,,,,,,,,,,,,,,,,,,,,,,,,,,,,,,,,"[7,8,5,3,9,1,4,2,6]",8,0,8,0,1,,,,,,,,,,,,,,,,,,,,,,,,,,,,,,,,,,,,,,,,,,,,,,,,
,,610309d6b51e8a9a5da8a6f4,2022-09-08_13h56.03.859,CGTgamblingSpanTasks,2022.2.1,MacIntel,60.14675809,,,,,,,,,,,,,,,,,,,,,,,,,,,,,,,,,,,,,,,,,,,,,,,,,,,,,,,,,,,,,,,1,,,,,,,,,,,,,,,,,,,,,,,,,785391426,0.046162109,-0.405415039,1,0,0,cont_button,0,13,13,13,1,14,,,,,,,,,,,,,,,,,,,,,,,,,,,,,,,,,,,
,,610309d6b51e8a9a5da8a6f4,2022-09-08_13h56.03.859,CGTgamblingSpanTasks,2022.2.1,MacIntel,60.14675809,,,,,,,,,,,,,,,,,,,,,,,,,,,,,,,,,,,,,,,,,,,,,,,,,,,,,,,,,,,,,,,,,,,,,,,,,,,,,,,,,,,,,,,,,,,,,,,,,,,,,return,121.2463,,,,,,,,,,,,,,,,,,,,,,,,,,,,,,,,,
,,610309d6b51e8a9a5da8a6f4,2022-09-08_13h56.03.859,CGTgamblingSpanTasks,2022.2.1,MacIntel,60.14675809,,,,,,,,,,,,,,,,,,,,,,,,,,,,,,,,,,,,,,,,,,,,,,,,,,,,,,,,,,,,,,,,,,,,,,,,,,,,,,,,,,,,,,,,,,,,,,,,,,,,,,,return,46.4024,,,,,,,,,,,,,,,,,,,,,,,,,,,,,,,
,,610309d6b51e8a9a5da8a6f4,2022-09-08_13h56.03.859,CGTgamblingSpanTasks,2022.2.1,MacIntel,60.14675809,,,,,,,,,,,,,,,,,,,,,,,,,,,,,,,,,,,,,,,,,,,,,,,,,,,,,,,,,,,,,,,1,,,,,,,,,,,,3,342,24,2,42,,,,,,,,,,,,,,,,,,,,,,,,,,42,0.024609375,-0.411875,1,0,0,cont_buttonPractice_2,0,0,0,0,1,,,,,,,,,,,,,,,,,,,
,,610309d6b51e8a9a5da8a6f4,2022-09-08_13h56.03.859,CGTgamblingSpanTasks,2022.2.1,MacIntel,60.14675809,,,,,,,,,,,,,,,,,,,,,,,,,,,,,,,,,,,,,,,,,,,,,,,,,,,,,,,,,,,,,,,1,,,,,,,,,,,,3,937,73,2,37,,,,,,,,,,,,,,,,,,,,,,,,,,37,-0.023969727,-0.394775391,1,0,0,cont_buttonPractice_2,0,1,1,1,1,,,,,,,,,,,,,,,,,,,
,,610309d6b51e8a9a5da8a6f4,2022-09-08_13h56.03.859,CGTgamblingSpanTasks,2022.2.1,MacIntel,60.14675809,,,,,,,,,,,,,,,,,,,,,,,,,,,,,,,,,,,,,,,,,,,,,,,,,,,,,,,,,,,,,,,,,,,,,,,,,,,,,,,,,,,,,,,,,,,,,,,,,,,,,,,,,,,,,,,,,,,,,return,4.4484,,,,,,,,,,,,,,,,,
,,610309d6b51e8a9a5da8a6f4,2022-09-08_13h56.03.859,CGTgamblingSpanTasks,2022.2.1,MacIntel,60.14675809,,,,,,,,,,,,,,,,,,,,,,,,,,,,,,,,,,,,,,,,,,,,,,,,,,,,,,,,,,,,,,,,,,,,,,,,,,,,,,,,,,"[2,5]",,,,,,,,,,,,,,,,,,,,,,,,,,,,,,,,,,,,,0,0,0,0,1,,,,,,,,,,,,
,,610309d6b51e8a9a5da8a6f4,2022-09-08_13h56.03.859,CGTgamblingSpanTasks,2022.2.1,MacIntel,60.14675809,,,,,,,,,,,,,,,,,,,,,,,,,,,,,,,,,,,,,,,,,,,,,,,,,,,,,,,,,,,,,,,,,,,,,,,,,,,,,,,,,,"[2,5]",,,,,,,,,,,,,,,,,,,,,,,,,,,,,,,,,,,,,1,0,1,0,1,,,,,,,,,,,,
,,610309d6b51e8a9a5da8a6f4,2022-09-08_13h56.03.859,CGTgamblingSpanTasks,2022.2.1,MacIntel,60.14675809,,,,,,,,,,,,,,,,,,,,,,,,,,,,,,,,,,,,,,,,,,,,,,,,,,,,,,,,,,,,,,,1,,,,,,,,,,,,,,,,,,,,,,,,,,,,,,,,,,,,,1,,,,,,,,,,,,,,,,,,,,,,,,52,0.018012695,-0.398442383,1,0,0,cont_buttonBS,0,0,0,0,1
,,610309d6b51e8a9a5da8a6f4,2022-09-08_13h56.03.859,CGTgamblingSpanTasks,2022.2.1,MacIntel,60.14675809,,,,,,,,,,,,,,,,,,,,,,,,,,,,,,,,,,,,,,,,,,,,,,,,,,,,,,,,,,,,,,,,,,,,,,,,,,,,,,,,,,"[7,3,5]",,,,,,,,,,,,,,,,,,,,,,,,,,,,,,,,,,,,,0,0,0,0,1,,,,,,,,,,,,
,,610309d6b51e8a9a5da8a6f4,2022-09-08_13h56.03.859,CGTgamblingSpanTasks,2022.2.1,MacIntel,60.14675809,,,,,,,,,,,,,,,,,,,,,,,,,,,,,,,,,,,,,,,,,,,,,,,,,,,,,,,,,,,,,,,,,,,,,,,,,,,,,,,,,,"[7,3,5]",,,,,,,,,,,,,,,,,,,,,,,,,,,,,,,,,,,,,1,0,1,0,1,,,,,,,,,,,,
,,610309d6b51e8a9a5da8a6f4,2022-09-08_13h56.03.859,CGTgamblingSpanTasks,2022.2.1,MacIntel,60.14675809,,,,,,,,,,,,,,,,,,,,,,,,,,,,,,,,,,,,,,,,,,,,,,,,,,,,,,,,,,,,,,,,,,,,,,,,,,,,,,,,,,"[7,3,5]",,,,,,,,,,,,,,,,,,,,,,,,,,,,,,,,,,,,,2,0,2,0,1,,,,,,,,,,,,
,,610309d6b51e8a9a5da8a6f4,2022-09-08_13h56.03.859,CGTgamblingSpanTasks,2022.2.1,MacIntel,60.14675809,,,,,,,,,,,,,,,,,,,,,,,,,,,,,,,,,,,,,,,,,,,,,,,,,,,,,,,,,,,,,,,0,,,,,,,,,,,,,,,,,,,,,,,,,,,,,,,,,,,,,2,,,,,,,,,,,,,,,,,,,,,,,,53,0.001293945,-0.392426758,1,0,0,cont_buttonBS,0,1,1,1,1
,,610309d6b51e8a9a5da8a6f4,2022-09-08_13h56.03.859,CGTgamblingSpanTasks,2022.2.1,MacIntel,60.14675809,,,,,,,,,,,,,,,,,,,,,,,,,,,,,,,,,,,,,,,,,,,,,,,,,,,,,,,,,,,,,,,,,,,,,,,,,,,,,,,,,,"[4,3,1]",,,,,,,,,,,,,,,,,,,,,,,,,,,,,,,,,,,,,0,0,0,0,1,,,,,,,,,,,,
,,610309d6b51e8a9a5da8a6f4,2022-09-08_13h56.03.859,CGTgamblingSpanTasks,2022.2.1,MacIntel,60.14675809,,,,,,,,,,,,,,,,,,,,,,,,,,,,,,,,,,,,,,,,,,,,,,,,,,,,,,,,,,,,,,,,,,,,,,,,,,,,,,,,,,"[4,3,1]",,,,,,,,,,,,,,,,,,,,,,,,,,,,,,,,,,,,,1,0,1,0,1,,,,,,,,,,,,
,,610309d6b51e8a9a5da8a6f4,2022-09-08_13h56.03.859,CGTgamblingSpanTasks,2022.2.1,MacIntel,60.14675809,,,,,,,,,,,,,,,,,,,,,,,,,,,,,,,,,,,,,,,,,,,,,,,,,,,,,,,,,,,,,,,,,,,,,,,,,,,,,,,,,,"[4,3,1]",,,,,,,,,,,,,,,,,,,,,,,,,,,,,,,,,,,,,2,0,2,0,1,,,,,,,,,,,,
,,610309d6b51e8a9a5da8a6f4,2022-09-08_13h56.03.859,CGTgamblingSpanTasks,2022.2.1,MacIntel,60.14675809,,,,,,,,,,,,,,,,,,,,,,,,,,,,,,,,,,,,,,,,,,,,,,,,,,,,,,,,,,,,,,,1,,,,,,,,,,,,,,,,,,,,,,,,,,,,,,,,,,,,,3,,,,,,,,,,,,,,,,,,,,,,,,134,0.018466797,-0.397783203,1,0,0,cont_buttonBS,0,2,2,2,1
,,610309d6b51e8a9a5da8a6f4,2022-09-08_13h56.03.859,CGTgamblingSpanTasks,2022.2.1,MacIntel,60.14675809,,,,,,,,,,,,,,,,,,,,,,,,,,,,,,,,,,,,,,,,,,,,,,,,,,,,,,,,,,,,,,,,,,,,,,,,,,,,,,,,,,"[7,9,5,8]",,,,,,,,,,,,,,,,,,,,,,,,,,,,,,,,,,,,,0,0,0,0,1,,,,,,,,,,,,
,,610309d6b51e8a9a5da8a6f4,2022-09-08_13h56.03.859,CGTgamblingSpanTasks,2022.2.1,MacIntel,60.14675809,,,,,,,,,,,,,,,,,,,,,,,,,,,,,,,,,,,,,,,,,,,,,,,,,,,,,,,,,,,,,,,,,,,,,,,,,,,,,,,,,,"[7,9,5,8]",,,,,,,,,,,,,,,,,,,,,,,,,,,,,,,,,,,,,1,0,1,0,1,,,,,,,,,,,,
,,610309d6b51e8a9a5da8a6f4,2022-09-08_13h56.03.859,CGTgamblingSpanTasks,2022.2.1,MacIntel,60.14675809,,,,,,,,,,,,,,,,,,,,,,,,,,,,,,,,,,,,,,,,,,,,,,,,,,,,,,,,,,,,,,,,,,,,,,,,,,,,,,,,,,"[7,9,5,8]",,,,,,,,,,,,,,,,,,,,,,,,,,,,,,,,,,,,,2,0,2,0,1,,,,,,,,,,,,
,,610309d6b51e8a9a5da8a6f4,2022-09-08_13h56.03.859,CGTgamblingSpanTasks,2022.2.1,MacIntel,60.14675809,,,,,,,,,,,,,,,,,,,,,,,,,,,,,,,,,,,,,,,,,,,,,,,,,,,,,,,,,,,,,,,,,,,,,,,,,,,,,,,,,,"[7,9,5,8]",,,,,,,,,,,,,,,,,,,,,,,,,,,,,,,,,,,,,3,0,3,0,1,,,,,,,,,,,,
,,610309d6b51e8a9a5da8a6f4,2022-09-08_13h56.03.859,CGTgamblingSpanTasks,2022.2.1,MacIntel,60.14675809,,,,,,,,,,,,,,,,,,,,,,,,,,,,,,,,,,,,,,,,,,,,,,,,,,,,,,,,,,,,,,,0,,,,,,,,,,,,,,,,,,,,,,,,,,,,,,,,,,,,,4,,,,,,,,,,,,,,,,,,,,,,,,8579,0.041782227,-0.425180664,1,0,0,cont_buttonBS,0,3,3,3,1
,,610309d6b51e8a9a5da8a6f4,2022-09-08_13h56.03.859,CGTgamblingSpanTasks,2022.2.1,MacIntel,60.14675809,,,,,,,,,,,,,,,,,,,,,,,,,,,,,,,,,,,,,,,,,,,,,,,,,,,,,,,,,,,,,,,,,,,,,,,,,,,,,,,,,,"[9,7,5,3]",,,,,,,,,,,,,,,,,,,,,,,,,,,,,,,,,,,,,0,0,0,0,1,,,,,,,,,,,,
,,610309d6b51e8a9a5da8a6f4,2022-09-08_13h56.03.859,CGTgamblingSpanTasks,2022.2.1,MacIntel,60.14675809,,,,,,,,,,,,,,,,,,,,,,,,,,,,,,,,,,,,,,,,,,,,,,,,,,,,,,,,,,,,,,,,,,,,,,,,,,,,,,,,,,"[9,7,5,3]",,,,,,,,,,,,,,,,,,,,,,,,,,,,,,,,,,,,,1,0,1,0,1,,,,,,,,,,,,
,,610309d6b51e8a9a5da8a6f4,2022-09-08_13h56.03.859,CGTgamblingSpanTasks,2022.2.1,MacIntel,60.14675809,,,,,,,,,,,,,,,,,,,,,,,,,,,,,,,,,,,,,,,,,,,,,,,,,,,,,,,,,,,,,,,,,,,,,,,,,,,,,,,,,,"[9,7,5,3]",,,,,,,,,,,,,,,,,,,,,,,,,,,,,,,,,,,,,2,0,2,0,1,,,,,,,,,,,,
,,610309d6b51e8a9a5da8a6f4,2022-09-08_13h56.03.859,CGTgamblingSpanTasks,2022.2.1,MacIntel,60.14675809,,,,,,,,,,,,,,,,,,,,,,,,,,,,,,,,,,,,,,,,,,,,,,,,,,,,,,,,,,,,,,,,,,,,,,,,,,,,,,,,,,"[9,7,5,3]",,,,,,,,,,,,,,,,,,,,,,,,,,,,,,,,,,,,,3,0,3,0,1,,,,,,,,,,,,
,,610309d6b51e8a9a5da8a6f4,2022-09-08_13h56.03.859,CGTgamblingSpanTasks,2022.2.1,MacIntel,60.14675809,,,,,,,,,,,,,,,,,,,,,,,,,,,,,,,,,,,,,,,,,,,,,,,,,,,,,,,,,,,,,,,1,,,,,,,,,,,,,,,,,,,,,,,,,,,,,,,,,,,,,5,,,,,,,,,,,,,,,,,,,,,,,,3579,-0.003876953,-0.407900391,1,0,0,cont_buttonBS,0,4,4,4,1
,,610309d6b51e8a9a5da8a6f4,2022-09-08_13h56.03.859,CGTgamblingSpanTasks,2022.2.1,MacIntel,60.14675809,,,,,,,,,,,,,,,,,,,,,,,,,,,,,,,,,,,,,,,,,,,,,,,,,,,,,,,,,,,,,,,,,,,,,,,,,,,,,,,,,,"[2,9,6,1,5]",,,,,,,,,,,,,,,,,,,,,,,,,,,,,,,,,,,,,0,0,0,0,1,,,,,,,,,,,,
,,610309d6b51e8a9a5da8a6f4,2022-09-08_13h56.03.859,CGTgamblingSpanTasks,2022.2.1,MacIntel,60.14675809,,,,,,,,,,,,,,,,,,,,,,,,,,,,,,,,,,,,,,,,,,,,,,,,,,,,,,,,,,,,,,,,,,,,,,,,,,,,,,,,,,"[2,9,6,1,5]",,,,,,,,,,,,,,,,,,,,,,,,,,,,,,,,,,,,,1,0,1,0,1,,,,,,,,,,,,
,,610309d6b51e8a9a5da8a6f4,2022-09-08_13h56.03.859,CGTgamblingSpanTasks,2022.2.1,MacIntel,60.14675809,,,,,,,,,,,,,,,,,,,,,,,,,,,,,,,,,,,,,,,,,,,,,,,,,,,,,,,,,,,,,,,,,,,,,,,,,,,,,,,,,,"[2,9,6,1,5]",,,,,,,,,,,,,,,,,,,,,,,,,,,,,,,,,,,,,2,0,2,0,1,,,,,,,,,,,,
,,610309d6b51e8a9a5da8a6f4,2022-09-08_13h56.03.859,CGTgamblingSpanTasks,2022.2.1,MacIntel,60.14675809,,,,,,,,,,,,,,,,,,,,,,,,,,,,,,,,,,,,,,,,,,,,,,,,,,,,,,,,,,,,,,,,,,,,,,,,,,,,,,,,,,"[2,9,6,1,5]",,,,,,,,,,,,,,,,,,,,,,,,,,,,,,,,,,,,,3,0,3,0,1,,,,,,,,,,,,
,,610309d6b51e8a9a5da8a6f4,2022-09-08_13h56.03.859,CGTgamblingSpanTasks,2022.2.1,MacIntel,60.14675809,,,,,,,,,,,,,,,,,,,,,,,,,,,,,,,,,,,,,,,,,,,,,,,,,,,,,,,,,,,,,,,,,,,,,,,,,,,,,,,,,,"[2,9,6,1,5]",,,,,,,,,,,,,,,,,,,,,,,,,,,,,,,,,,,,,4,0,4,0,1,,,,,,,,,,,,
,,610309d6b51e8a9a5da8a6f4,2022-09-08_13h56.03.859,CGTgamblingSpanTasks,2022.2.1,MacIntel,60.14675809,,,,,,,,,,,,,,,,,,,,,,,,,,,,,,,,,,,,,,,,,,,,,,,,,,,,,,,,,,,,,,,1,,,,,,,,,,,,,,,,,,,,,,,,,,,,,,,,,,,,,6,,,,,,,,,,,,,,,,,,,,,,,,51692,0.063676758,-0.394746094,1,0,0,cont_buttonBS,0,5,5,5,1
,,610309d6b51e8a9a5da8a6f4,2022-09-08_13h56.03.859,CGTgamblingSpanTasks,2022.2.1,MacIntel,60.14675809,,,,,,,,,,,,,,,,,,,,,,,,,,,,,,,,,,,,,,,,,,,,,,,,,,,,,,,,,,,,,,,,,,,,,,,,,,,,,,,,,,"[6,1,5,3,7,2]",,,,,,,,,,,,,,,,,,,,,,,,,,,,,,,,,,,,,0,0,0,0,1,,,,,,,,,,,,
,,610309d6b51e8a9a5da8a6f4,2022-09-08_13h56.03.859,CGTgamblingSpanTasks,2022.2.1,MacIntel,60.14675809,,,,,,,,,,,,,,,,,,,,,,,,,,,,,,,,,,,,,,,,,,,,,,,,,,,,,,,,,,,,,,,,,,,,,,,,,,,,,,,,,,"[6,1,5,3,7,2]",,,,,,,,,,,,,,,,,,,,,,,,,,,,,,,,,,,,,1,0,1,0,1,,,,,,,,,,,,
,,610309d6b51e8a9a5da8a6f4,2022-09-08_13h56.03.859,CGTgamblingSpanTasks,2022.2.1,MacIntel,60.14675809,,,,,,,,,,,,,,,,,,,,,,,,,,,,,,,,,,,,,,,,,,,,,,,,,,,,,,,,,,,,,,,,,,,,,,,,,,,,,,,,,,"[6,1,5,3,7,2]",,,,,,,,,,,,,,,,,,,,,,,,,,,,,,,,,,,,,2,0,2,0,1,,,,,,,,,,,,
,,610309d6b51e8a9a5da8a6f4,2022-09-08_13h56.03.859,CGTgamblingSpanTasks,2022.2.1,MacIntel,60.14675809,,,,,,,,,,,,,,,,,,,,,,,,,,,,,,,,,,,,,,,,,,,,,,,,,,,,,,,,,,,,,,,,,,,,,,,,,,,,,,,,,,"[6,1,5,3,7,2]",,,,,,,,,,,,,,,,,,,,,,,,,,,,,,,,,,,,,3,0,3,0,1,,,,,,,,,,,,
,,610309d6b51e8a9a5da8a6f4,2022-09-08_13h56.03.859,CGTgamblingSpanTasks,2022.2.1,MacIntel,60.14675809,,,,,,,,,,,,,,,,,,,,,,,,,,,,,,,,,,,,,,,,,,,,,,,,,,,,,,,,,,,,,,,,,,,,,,,,,,,,,,,,,,"[6,1,5,3,7,2]",,,,,,,,,,,,,,,,,,,,,,,,,,,,,,,,,,,,,4,0,4,0,1,,,,,,,,,,,,
,,610309d6b51e8a9a5da8a6f4,2022-09-08_13h56.03.859,CGTgamblingSpanTasks,2022.2.1,MacIntel,60.14675809,,,,,,,,,,,,,,,,,,,,,,,,,,,,,,,,,,,,,,,,,,,,,,,,,,,,,,,,,,,,,,,,,,,,,,,,,,,,,,,,,,"[6,1,5,3,7,2]",,,,,,,,,,,,,,,,,,,,,,,,,,,,,,,,,,,,,5,0,5,0,1,,,,,,,,,,,,
