initITIstatic,initITIdynamic,participant,date,expName,psychopyVersion,OS,frameRate,inst1.keys,inst1.rt,startPracResp.keys,startPracResp.rt,choice1.keys,choice1.rt,outcome,extraITI,trials.thisRepN,trials.thisTrialN,trials.thisN,trials.thisIndex,trials.ran,riskyGain,riskyLoss,alternative,isi,iti,loc,postPractResp.keys,postPractResp.rt,realloc,realChoice.keys,realChoice.rt,outcomes,choices,actualITI,init ITI,staticRDM.thisRepN,staticRDM.thisTrialN,staticRDM.thisN,staticRDM.thisIndex,staticRDM.ran,riskyoption1,riskyoption2,safeoption,ischecktrial,dynamicChoiceSetName,dynamicChoiceSetPath,bestRho,bestMu,trials_2.thisRepN,trials_2.thisTrialN,trials_2.thisN,trials_2.thisIndex,trials_2.ran,key_resp.keys,key_resp.rt,dynamicRDM.thisRepN,dynamicRDM.thisTrialN,dynamicRDM.thisN,dynamicRDM.thisIndex,dynamicRDM.ran,choiceP,easy0difficult1,stopBreak.keys,stopBreak.rt,movealong.keys,movealong.rt,startPractice.keys,startPractice.rt,textboxPractice.text,correct,mousePractice.x,mousePractice.y,mousePractice.leftButton,mousePractice.midButton,mousePractice.rightButton,mousePractice.clicked_name,trialFSPractice.thisRepN,trialFSPractice.thisTrialN,trialFSPractice.thisN,trialFSPractice.thisIndex,trialFSPractice.ran,digitSpanForward,digits,digitsReverse,digitSpanReverse,digitsReverseCorrAnswer,startFSreal.keys,startFSreal.rt,digitsForTrial,digitLoop.thisRepN,digitLoop.thisTrialN,digitLoop.thisN,digitLoop.thisIndex,digitLoop.ran,textbox.text,mouse_3.x,mouse_3.y,mouse_3.leftButton,mouse_3.midButton,mouse_3.rightButton,mouse_3.clicked_name,trialsFS.thisRepN,trialsFS.thisTrialN,trialsFS.thisN,trialsFS.thisIndex,trialsFS.ran,trialNumber,moveToBS.keys,moveToBS.rt,startBSprac.keys,startBSprac.rt,textboxPractice_2.text,mousePractice_2.x,mousePractice_2.y,mousePractice_2.leftButton,mousePractice_2.midButton,mousePractice_2.rightButton,mousePractice_2.clicked_name,trialsPracticeBS.thisRepN,trialsPracticeBS.thisTrialN,trialsPracticeBS.thisN,trialsPracticeBS.thisIndex,trialsPracticeBS.ran,startBSreal.keys,startBSreal.rt,digitLoopBS.thisRepN,digitLoopBS.thisTrialN,digitLoopBS.thisN,digitLoopBS.thisIndex,digitLoopBS.ran,textboxBS.text,mouseBS.x,mouseBS.y,mouseBS.leftButton,mouseBS.midButton,mouseBS.rightButton,mouseBS.clicked_name,trialsBS.thisRepN,trialsBS.thisTrialN,trialsBS.thisN,trialsBS.thisIndex,trialsBS.ran
"[1,1.5,1,1,1,1.5,1.5,1.5,1,1.5,1.5,1,1,1,1,1,1.5,1.5,1,1,1,1,1.5,1,1,1,1,1.5,1,1.5,1.5,1.5,1,1.5,1.5,1.5,1,1.5,1,1.5,1,1.5,1.5,1,1,1.5,1.5,1.5,1.5,1.5]","[1,1,1.5,1.5,1,1.5,1,1.5,1.5,1.5,1,1.5,1.5,1,1,1,1,1,1.5,1,1,1,1.5,1.5,1,1,1.5,1.5,1.5,1.5,1,1.5,1,1,1.5,1,1,1.5,1.5,1.5,1.5,1.5,1.5,1,1,1,1.5,1,1.5,1,1,1,1,1.5,1,1.5,1,1.5,1,1.5,1.5,1,1.5,1,1.5,1.5,1,1.5,1,1,1.5,1,1,1,1,1,1,1.5,1,1.5,1,1,1.5,1.5,1.5,1,1.5,1.5,1,1,1,1.5,1.5,1.5,1.5,1.5,1.5,1.5,1.5,1.5,1.5,1,1.5,1.5,1,1.5,1,1,1,1,1,1,1,1,1.5,1.5,1.5,1.5,1,1.5]",567b073bb7d79a0005b270bd,2022-09-08_13h22.57.778,CGTgamblingSpanTasks,2022.2.1,Win32,60.04563468,,,,,,,,,,,,,,,,,,,,,,,,,,,,,,,,,,,,,,,,,,,,,,,,,,,,,,,,,,,,,,,,,,,,,,,,,,,,,,,,,,,,,,,,,,,,,,,,,,,,,,,,,,,,,,,,,,,,,,,,,,,,,,,,,,,,,,,
,,567b073bb7d79a0005b270bd,2022-09-08_13h22.57.778,CGTgamblingSpanTasks,2022.2.1,Win32,60.04563468,return,2.0172,,,,,,,,,,,,,,,,,,,,,,,,,,,,,,,,,,,,,,,,,,,,,,,,,,,,,,,,,,,,,,,,,,,,,,,,,,,,,,,,,,,,,,,,,,,,,,,,,,,,,,,,,,,,,,,,,,,,,,,,,,,,,,,,,,,,,
,,567b073bb7d79a0005b270bd,2022-09-08_13h22.57.778,CGTgamblingSpanTasks,2022.2.1,Win32,60.04563468,,,v,1.2666,,,,,,,,,,,,,,,,,,,,,,,,,,,,,,,,,,,,,,,,,,,,,,,,,,,,,,,,,,,,,,,,,,,,,,,,,,,,,,,,,,,,,,,,,,,,,,,,,,,,,,,,,,,,,,,,,,,,,,,,,,,,,,,,,,,
,,567b073bb7d79a0005b270bd,2022-09-08_13h22.57.778,CGTgamblingSpanTasks,2022.2.1,Win32,60.04563468,,,,,n,1.6082,9.45,2.3918,0,0,0,0,1,18.23,0,9.45,2,1,1,,,,,,,,,,,,,,,,,,,,,,,,,,,,,,,,,,,,,,,,,,,,,,,,,,,,,,,,,,,,,,,,,,,,,,,,,,,,,,,,,,,,,,,,,,,,,,,,,,,,,,,,,,,,,,,,,,,,
,,567b073bb7d79a0005b270bd,2022-09-08_13h22.57.778,CGTgamblingSpanTasks,2022.2.1,Win32,60.04563468,,,,,n,1.36,35.16,2.64,0,1,1,1,1,53.27,0,35.16,1,1.5,1,,,,,,,,,,,,,,,,,,,,,,,,,,,,,,,,,,,,,,,,,,,,,,,,,,,,,,,,,,,,,,,,,,,,,,,,,,,,,,,,,,,,,,,,,,,,,,,,,,,,,,,,,,,,,,,,,,,,
,,567b073bb7d79a0005b270bd,2022-09-08_13h22.57.778,CGTgamblingSpanTasks,2022.2.1,Win32,60.04563468,,,,,n,1.4298,8.27,2.5702,0,2,2,2,1,8.27,0,1.15,1,1.5,2,,,,,,,,,,,,,,,,,,,,,,,,,,,,,,,,,,,,,,,,,,,,,,,,,,,,,,,,,,,,,,,,,,,,,,,,,,,,,,,,,,,,,,,,,,,,,,,,,,,,,,,,,,,,,,,,,,,,
,,567b073bb7d79a0005b270bd,2022-09-08_13h22.57.778,CGTgamblingSpanTasks,2022.2.1,Win32,60.04563468,,,,,n,1.1814,40.41,2.8186,0,3,3,3,1,45.88,0,40.41,3,1,1,,,,,,,,,,,,,,,,,,,,,,,,,,,,,,,,,,,,,,,,,,,,,,,,,,,,,,,,,,,,,,,,,,,,,,,,,,,,,,,,,,,,,,,,,,,,,,,,,,,,,,,,,,,,,,,,,,,,
,,567b073bb7d79a0005b270bd,2022-09-08_13h22.57.778,CGTgamblingSpanTasks,2022.2.1,Win32,60.04563468,,,,,v,1.4094,11.96,2.5906,0,4,4,4,1,21.56,0,11.96,1,1.5,2,,,,,,,,,,,,,,,,,,,,,,,,,,,,,,,,,,,,,,,,,,,,,,,,,,,,,,,,,,,,,,,,,,,,,,,,,,,,,,,,,,,,,,,,,,,,,,,,,,,,,,,,,,,,,,,,,,,,
,,567b073bb7d79a0005b270bd,2022-09-08_13h22.57.778,CGTgamblingSpanTasks,2022.2.1,Win32,60.04563468,,,,,,,,,,,,,,,,,,,,v,2.3568,,,,,,,,,,,,,,,,,,,,,,,,,,,,,,,,,,,,,,,,,,,,,,,,,,,,,,,,,,,,,,,,,,,,,,,,,,,,,,,,,,,,,,,,,,,,,,,,,,,,,,,,,,,,,,,,,,
,,567b073bb7d79a0005b270bd,2022-09-08_13h22.57.778,CGTgamblingSpanTasks,2022.2.1,Win32,60.04563468,,,,,,,,2.5096,,,,,,,,,,,,,,1,v,1.4904,0,1,3.5096,1,0,0,0,12,1,13.04,0,5.48,0,,,,,,,,,,,,,,,,,,,,,,,,,,,,,,,,,,,,,,,,,,,,,,,,,,,,,,,,,,,,,,,,,,,,,,,,,,,,,,,,,,,,,,,,,,,,,,,,,,
,,567b073bb7d79a0005b270bd,2022-09-08_13h22.57.778,CGTgamblingSpanTasks,2022.2.1,Win32,60.04563468,,,,,,,,2.8581,,,,,,,,,,,,,,2,v,1.1419,10.68,0,4.3581,1.5,0,1,1,48,1,10.68,0,10.68,1,,,,,,,,,,,,,,,,,,,,,,,,,,,,,,,,,,,,,,,,,,,,,,,,,,,,,,,,,,,,,,,,,,,,,,,,,,,,,,,,,,,,,,,,,,,,,,,,,,
,,567b073bb7d79a0005b270bd,2022-09-08_13h22.57.778,CGTgamblingSpanTasks,2022.2.1,Win32,60.04563468,,,,,,,,2.93,,,,,,,,,,,,,,2,v,1.07,6.63,0,3.93,1,0,2,2,30,1,10.73,0,6.63,0,,,,,,,,,,,,,,,,,,,,,,,,,,,,,,,,,,,,,,,,,,,,,,,,,,,,,,,,,,,,,,,,,,,,,,,,,,,,,,,,,,,,,,,,,,,,,,,,,,
,,567b073bb7d79a0005b270bd,2022-09-08_13h22.57.778,CGTgamblingSpanTasks,2022.2.1,Win32,60.04563468,,,,,,,,3.0003,,,,,,,,,,,,,,1,v,0.9997,0,1,4.0003,1,0,3,3,8,1,13.94,0,5.03,0,,,,,,,,,,,,,,,,,,,,,,,,,,,,,,,,,,,,,,,,,,,,,,,,,,,,,,,,,,,,,,,,,,,,,,,,,,,,,,,,,,,,,,,,,,,,,,,,,,
,,567b073bb7d79a0005b270bd,2022-09-08_13h22.57.778,CGTgamblingSpanTasks,2022.2.1,Win32,60.04563468,,,,,,,,2.8905,,,,,,,,,,,,,,2,v,1.1095,6.73,0,3.8905,1,0,4,4,32,1,10.55,0,6.73,0,,,,,,,,,,,,,,,,,,,,,,,,,,,,,,,,,,,,,,,,,,,,,,,,,,,,,,,,,,,,,,,,,,,,,,,,,,,,,,,,,,,,,,,,,,,,,,,,,,
,,567b073bb7d79a0005b270bd,2022-09-08_13h22.57.778,CGTgamblingSpanTasks,2022.2.1,Win32,60.04563468,,,,,,,,3.0664,,,,,,,,,,,,,,1,v,0.9336,0,1,4.5664,1.5,0,5,5,7,1,21.32,0,7.34,0,,,,,,,,,,,,,,,,,,,,,,,,,,,,,,,,,,,,,,,,,,,,,,,,,,,,,,,,,,,,,,,,,,,,,,,,,,,,,,,,,,,,,,,,,,,,,,,,,,
,,567b073bb7d79a0005b270bd,2022-09-08_13h22.57.778,CGTgamblingSpanTasks,2022.2.1,Win32,60.04563468,,,,,,,,3.0569,,,,,,,,,,,,,,2,n,0.9431,14.26,1,4.5569,1.5,0,6,6,41,1,14.26,0,0,1,,,,,,,,,,,,,,,,,,,,,,,,,,,,,,,,,,,,,,,,,,,,,,,,,,,,,,,,,,,,,,,,,,,,,,,,,,,,,,,,,,,,,,,,,,,,,,,,,,
,,567b073bb7d79a0005b270bd,2022-09-08_13h22.57.778,CGTgamblingSpanTasks,2022.2.1,Win32,60.04563468,,,,,,,,3.0872,,,,,,,,,,,,,,2,n,0.9128,25.2,1,4.5872,1.5,0,7,7,3,1,25.2,0,5.4,0,,,,,,,,,,,,,,,,,,,,,,,,,,,,,,,,,,,,,,,,,,,,,,,,,,,,,,,,,,,,,,,,,,,,,,,,,,,,,,,,,,,,,,,,,,,,,,,,,,
,,567b073bb7d79a0005b270bd,2022-09-08_13h22.57.778,CGTgamblingSpanTasks,2022.2.1,Win32,60.04563468,,,,,,,,2.771,,,,,,,,,,,,,,1,n,1.229,9.5,0,3.771,1,0,8,8,25,1,17,0,9.5,0,,,,,,,,,,,,,,,,,,,,,,,,,,,,,,,,,,,,,,,,,,,,,,,,,,,,,,,,,,,,,,,,,,,,,,,,,,,,,,,,,,,,,,,,,,,,,,,,,,
,,567b073bb7d79a0005b270bd,2022-09-08_13h22.57.778,CGTgamblingSpanTasks,2022.2.1,Win32,60.04563468,,,,,,,,2.9428,,,,,,,,,,,,,,1,v,1.0572,6.99,1,4.4428,1.5,0,9,9,43,1,16.11,6.99,6.99,1,,,,,,,,,,,,,,,,,,,,,,,,,,,,,,,,,,,,,,,,,,,,,,,,,,,,,,,,,,,,,,,,,,,,,,,,,,,,,,,,,,,,,,,,,,,,,,,,,,
,,567b073bb7d79a0005b270bd,2022-09-08_13h22.57.778,CGTgamblingSpanTasks,2022.2.1,Win32,60.04563468,,,,,,,,2.9573,,,,,,,,,,,,,,2,v,1.0427,10.25,0,4.4573,1.5,0,10,10,46,1,0,0,10.25,1,,,,,,,,,,,,,,,,,,,,,,,,,,,,,,,,,,,,,,,,,,,,,,,,,,,,,,,,,,,,,,,,,,,,,,,,,,,,,,,,,,,,,,,,,,,,,,,,,,
,,567b073bb7d79a0005b270bd,2022-09-08_13h22.57.778,CGTgamblingSpanTasks,2022.2.1,Win32,60.04563468,,,,,,,,2.8218,,,,,,,,,,,,,,1,n,1.1782,6.4,0,3.8218,1,0,11,11,26,1,11.2,0,6.4,0,,,,,,,,,,,,,,,,,,,,,,,,,,,,,,,,,,,,,,,,,,,,,,,,,,,,,,,,,,,,,,,,,,,,,,,,,,,,,,,,,,,,,,,,,,,,,,,,,,
,,567b073bb7d79a0005b270bd,2022-09-08_13h22.57.778,CGTgamblingSpanTasks,2022.2.1,Win32,60.04563468,,,,,,,,2.9013,,,,,,,,,,,,,,1,v,1.0987,0,1,3.9013,1,0,12,12,27,1,16.6,0,9.7,0,,,,,,,,,,,,,,,,,,,,,,,,,,,,,,,,,,,,,,,,,,,,,,,,,,,,,,,,,,,,,,,,,,,,,,,,,,,,,,,,,,,,,,,,,,,,,,,,,,
,,567b073bb7d79a0005b270bd,2022-09-08_13h22.57.778,CGTgamblingSpanTasks,2022.2.1,Win32,60.04563468,,,,,,,,2.9045,,,,,,,,,,,,,,1,n,1.0955,9.92,0,3.9045,1,0,13,13,49,1,6.79,0,9.92,1,,,,,,,,,,,,,,,,,,,,,,,,,,,,,,,,,,,,,,,,,,,,,,,,,,,,,,,,,,,,,,,,,,,,,,,,,,,,,,,,,,,,,,,,,,,,,,,,,,
,,567b073bb7d79a0005b270bd,2022-09-08_13h22.57.778,CGTgamblingSpanTasks,2022.2.1,Win32,60.04563468,,,,,,,,2.7817,,,,,,,,,,,,,,2,n,1.2183,19.28,1,3.7817,1,0,14,14,13,1,19.28,0,8.36,0,,,,,,,,,,,,,,,,,,,,,,,,,,,,,,,,,,,,,,,,,,,,,,,,,,,,,,,,,,,,,,,,,,,,,,,,,,,,,,,,,,,,,,,,,,,,,,,,,,
,,567b073bb7d79a0005b270bd,2022-09-08_13h22.57.778,CGTgamblingSpanTasks,2022.2.1,Win32,60.04563468,,,,,,,,3.0212,,,,,,,,,,,,,,2,v,0.9788,6.94,0,4.0212,1,0,15,15,38,1,10.12,0,6.94,0,,,,,,,,,,,,,,,,,,,,,,,,,,,,,,,,,,,,,,,,,,,,,,,,,,,,,,,,,,,,,,,,,,,,,,,,,,,,,,,,,,,,,,,,,,,,,,,,,,
,,567b073bb7d79a0005b270bd,2022-09-08_13h22.57.778,CGTgamblingSpanTasks,2022.2.1,Win32,60.04563468,,,,,,,,2.9555,,,,,,,,,,,,,,1,n,1.0445,9.03,0,4.4555,1.5,0,16,16,19,1,17.94,0,9.03,0,,,,,,,,,,,,,,,,,,,,,,,,,,,,,,,,,,,,,,,,,,,,,,,,,,,,,,,,,,,,,,,,,,,,,,,,,,,,,,,,,,,,,,,,,,,,,,,,,,
,,567b073bb7d79a0005b270bd,2022-09-08_13h22.57.778,CGTgamblingSpanTasks,2022.2.1,Win32,60.04563468,,,,,,,,3.0169,,,,,,,,,,,,,,2,n,0.9831,18.77,1,4.5169,1.5,0,17,17,15,1,18.77,0,8.61,0,,,,,,,,,,,,,,,,,,,,,,,,,,,,,,,,,,,,,,,,,,,,,,,,,,,,,,,,,,,,,,,,,,,,,,,,,,,,,,,,,,,,,,,,,,,,,,,,,,
,,567b073bb7d79a0005b270bd,2022-09-08_13h22.57.778,CGTgamblingSpanTasks,2022.2.1,Win32,60.04563468,,,,,,,,3.0329,,,,,,,,,,,,,,1,n,0.9671,10.02,0,4.0329,1,0,18,18,31,1,15.96,0,10.02,0,,,,,,,,,,,,,,,,,,,,,,,,,,,,,,,,,,,,,,,,,,,,,,,,,,,,,,,,,,,,,,,,,,,,,,,,,,,,,,,,,,,,,,,,,,,,,,,,,,
,,567b073bb7d79a0005b270bd,2022-09-08_13h22.57.778,CGTgamblingSpanTasks,2022.2.1,Win32,60.04563468,,,,,,,,3.1998,,,,,,,,,,,,,,1,n,0.8002,3.13,0,4.1998,1,0,19,19,47,1,0,0,3.13,1,,,,,,,,,,,,,,,,,,,,,,,,,,,,,,,,,,,,,,,,,,,,,,,,,,,,,,,,,,,,,,,,,,,,,,,,,,,,,,,,,,,,,,,,,,,,,,,,,,
,,567b073bb7d79a0005b270bd,2022-09-08_13h22.57.778,CGTgamblingSpanTasks,2022.2.1,Win32,60.04563468,,,,,,,,3.0567,,,,,,,,,,,,,,1,v,0.9433,0,1,4.0567,1,0,20,20,10,1,13.45,0,5.27,0,,,,,,,,,,,,,,,,,,,,,,,,,,,,,,,,,,,,,,,,,,,,,,,,,,,,,,,,,,,,,,,,,,,,,,,,,,,,,,,,,,,,,,,,,,,,,,,,,,
,,567b073bb7d79a0005b270bd,2022-09-08_13h22.57.778,CGTgamblingSpanTasks,2022.2.1,Win32,60.04563468,,,,,,,,3.1545,,,,,,,,,,,,,,2,v,0.8455,6.81,0,4.1545,1,0,21,21,34,1,10.39,0,6.81,0,,,,,,,,,,,,,,,,,,,,,,,,,,,,,,,,,,,,,,,,,,,,,,,,,,,,,,,,,,,,,,,,,,,,,,,,,,,,,,,,,,,,,,,,,,,,,,,,,,
,,567b073bb7d79a0005b270bd,2022-09-08_13h22.57.778,CGTgamblingSpanTasks,2022.2.1,Win32,60.04563468,,,,,,,,3.1547,,,,,,,,,,,,,,2,v,0.8453,6.88,0,4.6547,1.5,0,22,22,36,1,10.24,0,6.88,0,,,,,,,,,,,,,,,,,,,,,,,,,,,,,,,,,,,,,,,,,,,,,,,,,,,,,,,,,,,,,,,,,,,,,,,,,,,,,,,,,,,,,,,,,,,,,,,,,,
,,567b073bb7d79a0005b270bd,2022-09-08_13h22.57.778,CGTgamblingSpanTasks,2022.2.1,Win32,60.04563468,,,,,,,,3.2448,,,,,,,,,,,,,,1,n,0.7552,7.55,0,4.2448,1,0,23,23,45,1,0,0,7.55,1,,,,,,,,,,,,,,,,,,,,,,,,,,,,,,,,,,,,,,,,,,,,,,,,,,,,,,,,,,,,,,,,,,,,,,,,,,,,,,,,,,,,,,,,,,,,,,,,,,
,,567b073bb7d79a0005b270bd,2022-09-08_13h22.57.778,CGTgamblingSpanTasks,2022.2.1,Win32,60.04563468,,,,,,,,3.2767,,,,,,,,,,,,,,2,n,0.7233,0,1,4.2767,1,0,24,24,42,1,19.86,0,0,1,,,,,,,,,,,,,,,,,,,,,,,,,,,,,,,,,,,,,,,,,,,,,,,,,,,,,,,,,,,,,,,,,,,,,,,,,,,,,,,,,,,,,,,,,,,,,,,,,,
,,567b073bb7d79a0005b270bd,2022-09-08_13h22.57.778,CGTgamblingSpanTasks,2022.2.1,Win32,60.04563468,,,,,,,,3.1747,,,,,,,,,,,,,,2,n,0.8253,0,1,4.1747,1,0,25,25,6,1,14.72,0,4.64,0,,,,,,,,,,,,,,,,,,,,,,,,,,,,,,,,,,,,,,,,,,,,,,,,,,,,,,,,,,,,,,,,,,,,,,,,,,,,,,,,,,,,,,,,,,,,,,,,,,
,,567b073bb7d79a0005b270bd,2022-09-08_13h22.57.778,CGTgamblingSpanTasks,2022.2.1,Win32,60.04563468,,,,,,,,3.1526,,,,,,,,,,,,,,2,v,0.8474,6.53,0,4.1526,1,0,26,26,28,1,10.95,0,6.53,0,,,,,,,,,,,,,,,,,,,,,,,,,,,,,,,,,,,,,,,,,,,,,,,,,,,,,,,,,,,,,,,,,,,,,,,,,,,,,,,,,,,,,,,,,,,,,,,,,,
,,567b073bb7d79a0005b270bd,2022-09-08_13h22.57.778,CGTgamblingSpanTasks,2022.2.1,Win32,60.04563468,,,,,,,,3.0783,,,,,,,,,,,,,,2,n,0.9217,0,1,4.5783,1.5,0,27,27,14,1,12.68,0,5.66,0,,,,,,,,,,,,,,,,,,,,,,,,,,,,,,,,,,,,,,,,,,,,,,,,,,,,,,,,,,,,,,,,,,,,,,,,,,,,,,,,,,,,,,,,,,,,,,,,,,
,,567b073bb7d79a0005b270bd,2022-09-08_13h22.57.778,CGTgamblingSpanTasks,2022.2.1,Win32,60.04563468,,,,,,,,2.9436,,,,,,,,,,,,,,1,v,1.0564,18.33,1,3.9436,1,0,28,28,17,1,18.33,0,8.84,0,,,,,,,,,,,,,,,,,,,,,,,,,,,,,,,,,,,,,,,,,,,,,,,,,,,,,,,,,,,,,,,,,,,,,,,,,,,,,,,,,,,,,,,,,,,,,,,,,,
,,567b073bb7d79a0005b270bd,2022-09-08_13h22.57.778,CGTgamblingSpanTasks,2022.2.1,Win32,60.04563468,,,,,,,,3.1392,,,,,,,,,,,,,,2,n,0.8608,0,1,4.6392,1.5,0,29,29,0,1,20.03,0,1.99,0,,,,,,,,,,,,,,,,,,,,,,,,,,,,,,,,,,,,,,,,,,,,,,,,,,,,,,,,,,,,,,,,,,,,,,,,,,,,,,,,,,,,,,,,,,,,,,,,,,
,,567b073bb7d79a0005b270bd,2022-09-08_13h22.57.778,CGTgamblingSpanTasks,2022.2.1,Win32,60.04563468,,,,,,,,3.1253,,,,,,,,,,,,,,2,n,0.8747,0,1,4.6253,1.5,0,30,30,11,1,19.86,0,8.07,0,,,,,,,,,,,,,,,,,,,,,,,,,,,,,,,,,,,,,,,,,,,,,,,,,,,,,,,,,,,,,,,,,,,,,,,,,,,,,,,,,,,,,,,,,,,,,,,,,,
,,567b073bb7d79a0005b270bd,2022-09-08_13h22.57.778,CGTgamblingSpanTasks,2022.2.1,Win32,60.04563468,,,,,,,,3.0354,,,,,,,,,,,,,,1,v,0.9646,0,1,4.5354,1.5,0,31,31,18,1,12.08,0,5.96,0,,,,,,,,,,,,,,,,,,,,,,,,,,,,,,,,,,,,,,,,,,,,,,,,,,,,,,,,,,,,,,,,,,,,,,,,,,,,,,,,,,,,,,,,,,,,,,,,,,
,,567b073bb7d79a0005b270bd,2022-09-08_13h22.57.778,CGTgamblingSpanTasks,2022.2.1,Win32,60.04563468,,,,,,,,3.0988,,,,,,,,,,,,,,1,v,0.9012,7.73,1,4.0988,1,0,32,32,44,1,13.1,7.73,4.68,1,,,,,,,,,,,,,,,,,,,,,,,,,,,,,,,,,,,,,,,,,,,,,,,,,,,,,,,,,,,,,,,,,,,,,,,,,,,,,,,,,,,,,,,,,,,,,,,,,,
,,567b073bb7d79a0005b270bd,2022-09-08_13h22.57.778,CGTgamblingSpanTasks,2022.2.1,Win32,60.04563468,,,,,,,,2.9576,,,,,,,,,,,,,,2,n,1.0424,0,1,4.4576,1.5,0,33,33,35,1,15.47,0,10.27,0,,,,,,,,,,,,,,,,,,,,,,,,,,,,,,,,,,,,,,,,,,,,,,,,,,,,,,,,,,,,,,,,,,,,,,,,,,,,,,,,,,,,,,,,,,,,,,,,,,
,,567b073bb7d79a0005b270bd,2022-09-08_13h22.57.778,CGTgamblingSpanTasks,2022.2.1,Win32,60.04563468,,,,,,,,3.0417,,,,,,,,,,,,,,2,v,0.9583,6.19,0,4.5417,1.5,0,34,34,22,1,11.62,0,6.19,0,,,,,,,,,,,,,,,,,,,,,,,,,,,,,,,,,,,,,,,,,,,,,,,,,,,,,,,,,,,,,,,,,,,,,,,,,,,,,,,,,,,,,,,,,,,,,,,,,,
,,567b073bb7d79a0005b270bd,2022-09-08_13h22.57.778,CGTgamblingSpanTasks,2022.2.1,Win32,60.04563468,,,,,,,,2.9267,,,,,,,,,,,,,,2,n,1.0733,15.27,1,4.4267,1.5,0,35,35,37,1,15.27,0,10.37,0,,,,,,,,,,,,,,,,,,,,,,,,,,,,,,,,,,,,,,,,,,,,,,,,,,,,,,,,,,,,,,,,,,,,,,,,,,,,,,,,,,,,,,,,,,,,,,,,,,
,,567b073bb7d79a0005b270bd,2022-09-08_13h22.57.778,CGTgamblingSpanTasks,2022.2.1,Win32,60.04563468,,,,,,,,2.8766,,,,,,,,,,,,,,2,v,1.1234,6.08,0,3.8766,1,0,36,36,20,1,11.84,0,6.08,0,,,,,,,,,,,,,,,,,,,,,,,,,,,,,,,,,,,,,,,,,,,,,,,,,,,,,,,,,,,,,,,,,,,,,,,,,,,,,,,,,,,,,,,,,,,,,,,,,,
,,567b073bb7d79a0005b270bd,2022-09-08_13h22.57.778,CGTgamblingSpanTasks,2022.2.1,Win32,60.04563468,,,,,,,,3.1914,,,,,,,,,,,,,,2,v,0.8086,6.29,0,4.6914,1.5,0,37,37,24,1,11.43,0,6.29,0,,,,,,,,,,,,,,,,,,,,,,,,,,,,,,,,,,,,,,,,,,,,,,,,,,,,,,,,,,,,,,,,,,,,,,,,,,,,,,,,,,,,,,,,,,,,,,,,,,
,,567b073bb7d79a0005b270bd,2022-09-08_13h22.57.778,CGTgamblingSpanTasks,2022.2.1,Win32,60.04563468,,,,,,,,3.1375,,,,,,,,,,,,,,1,v,0.8625,28.21,1,4.1375,1,0,38,38,1,1,28.21,0,3.89,0,,,,,,,,,,,,,,,,,,,,,,,,,,,,,,,,,,,,,,,,,,,,,,,,,,,,,,,,,,,,,,,,,,,,,,,,,,,,,,,,,,,,,,,,,,,,,,,,,,
,,567b073bb7d79a0005b270bd,2022-09-08_13h22.57.778,CGTgamblingSpanTasks,2022.2.1,Win32,60.04563468,,,,,,,,3.0909,,,,,,,,,,,,,,2,v,0.9091,9.2,0,4.5909,1.5,0,39,39,21,1,17.59,0,9.2,0,,,,,,,,,,,,,,,,,,,,,,,,,,,,,,,,,,,,,,,,,,,,,,,,,,,,,,,,,,,,,,,,,,,,,,,,,,,,,,,,,,,,,,,,,,,,,,,,,,
,,567b073bb7d79a0005b270bd,2022-09-08_13h22.57.778,CGTgamblingSpanTasks,2022.2.1,Win32,60.04563468,,,,,,,,2.8858,,,,,,,,,,,,,,2,n,1.1142,0,1,3.8858,1,0,40,40,2,1,17.73,0,3.13,0,,,,,,,,,,,,,,,,,,,,,,,,,,,,,,,,,,,,,,,,,,,,,,,,,,,,,,,,,,,,,,,,,,,,,,,,,,,,,,,,,,,,,,,,,,,,,,,,,,
,,567b073bb7d79a0005b270bd,2022-09-08_13h22.57.778,CGTgamblingSpanTasks,2022.2.1,Win32,60.04563468,,,,,,,,2.9574,,,,,,,,,,,,,,1,v,1.0426,22.97,1,4.4574,1.5,0,41,41,5,1,22.97,0,6.51,0,,,,,,,,,,,,,,,,,,,,,,,,,,,,,,,,,,,,,,,,,,,,,,,,,,,,,,,,,,,,,,,,,,,,,,,,,,,,,,,,,,,,,,,,,,,,,,,,,,
,,567b073bb7d79a0005b270bd,2022-09-08_13h22.57.778,CGTgamblingSpanTasks,2022.2.1,Win32,60.04563468,,,,,,,,3.1392,,,,,,,,,,,,,,1,n,0.8608,10.46,0,4.6392,1.5,0,42,42,39,1,15.09,0,10.46,0,,,,,,,,,,,,,,,,,,,,,,,,,,,,,,,,,,,,,,,,,,,,,,,,,,,,,,,,,,,,,,,,,,,,,,,,,,,,,,,,,,,,,,,,,,,,,,,,,,
,,567b073bb7d79a0005b270bd,2022-09-08_13h22.57.778,CGTgamblingSpanTasks,2022.2.1,Win32,60.04563468,,,,,,,,2.9376,,,,,,,,,,,,,,1,n,1.0624,9.36,0,3.9376,1,0,43,43,23,1,17.28,0,9.36,0,,,,,,,,,,,,,,,,,,,,,,,,,,,,,,,,,,,,,,,,,,,,,,,,,,,,,,,,,,,,,,,,,,,,,,,,,,,,,,,,,,,,,,,,,,,,,,,,,,
,,567b073bb7d79a0005b270bd,2022-09-08_13h22.57.778,CGTgamblingSpanTasks,2022.2.1,Win32,60.04563468,,,,,,,,3.121,,,,,,,,,,,,,,1,v,0.879,0,1,4.121,1,0,44,44,9,1,20.53,0,7.73,0,,,,,,,,,,,,,,,,,,,,,,,,,,,,,,,,,,,,,,,,,,,,,,,,,,,,,,,,,,,,,,,,,,,,,,,,,,,,,,,,,,,,,,,,,,,,,,,,,,
,,567b073bb7d79a0005b270bd,2022-09-08_13h22.57.778,CGTgamblingSpanTasks,2022.2.1,Win32,60.04563468,,,,,,,,3.103,,,,,,,,,,,,,,1,v,0.897,0,1,4.603,1.5,0,45,45,4,1,16,0,4,0,,,,,,,,,,,,,,,,,,,,,,,,,,,,,,,,,,,,,,,,,,,,,,,,,,,,,,,,,,,,,,,,,,,,,,,,,,,,,,,,,,,,,,,,,,,,,,,,,,
,,567b073bb7d79a0005b270bd,2022-09-08_13h22.57.778,CGTgamblingSpanTasks,2022.2.1,Win32,60.04563468,,,,,,,,3.1044,,,,,,,,,,,,,,1,n,0.8956,10.15,0,4.6044,1.5,0,46,46,33,1,15.7,0,10.15,0,,,,,,,,,,,,,,,,,,,,,,,,,,,,,,,,,,,,,,,,,,,,,,,,,,,,,,,,,,,,,,,,,,,,,,,,,,,,,,,,,,,,,,,,,,,,,,,,,,
,,567b073bb7d79a0005b270bd,2022-09-08_13h22.57.778,CGTgamblingSpanTasks,2022.2.1,Win32,60.04563468,,,,,,,,3.1343,,,,,,,,,,,,,,1,n,0.8657,5.82,0,4.6343,1.5,0,47,47,16,1,12.36,0,5.82,0,,,,,,,,,,,,,,,,,,,,,,,,,,,,,,,,,,,,,,,,,,,,,,,,,,,,,,,,,,,,,,,,,,,,,,,,,,,,,,,,,,,,,,,,,,,,,,,,,,
,,567b073bb7d79a0005b270bd,2022-09-08_13h22.57.778,CGTgamblingSpanTasks,2022.2.1,Win32,60.04563468,,,,,,,,2.9678,,,,,,,,,,,,,,1,v,1.0322,0,1,4.4678,1.5,0,48,48,40,1,10.35,0,0,1,,,,,,,,,,,,,,,,,,,,,,,,,,,,,,,,,,,,,,,,,,,,,,,,,,,,,,,,,,,,,,,,,,,,,,,,,,,,,,,,,,,,,,,,,,,,,,,,,,
,,567b073bb7d79a0005b270bd,2022-09-08_13h22.57.778,CGTgamblingSpanTasks,2022.2.1,Win32,60.04563468,,,,,,,,2.9214,,,,,,,,,,,,,,1,n,1.0786,9.87,0,4.4214,1.5,0,49,49,29,1,16.26,0,9.87,0,,,,,,,,,,,,,,,,,,,,,,,,,,,,,,,,,,,,,,,,,,,,,,,,,,,,,,,,,,,,,,,,,,,,,,,,,,,,,,,,,,,,,,,,,,,,,,,,,,
,,567b073bb7d79a0005b270bd,2022-09-08_13h22.57.778,CGTgamblingSpanTasks,2022.2.1,Win32,60.04563468,,,,,,,,,,,,,,,,,,,,,,,,,,,,,,,,,,,,,,bespoke_choiceset_rhoInd077_muInd064.csv,bespoke_choicesets/bespoke_choiceset_rhoInd077_muInd064.csv,77,64,0,0,0,0,1,,,,,,,,,,,,,,,,,,,,,,,,,,,,,,,,,,,,,,,,,,,,,,,,,,,,,,,,,,,,,,,,,,,,,,,,,,,,,,,,,,,,,,,,,
,,567b073bb7d79a0005b270bd,2022-09-08_13h22.57.778,CGTgamblingSpanTasks,2022.2.1,Win32,60.04563468,,,,,,,,,,,,,,,,,,,,,,,,,,,,,,,,,,,,,,,,,,,,,,,,,,,,,,,,,,,,,,,,,,,,,,,,,,,,,,,,,,,,,,,,,,,,,,,,,,,,,,,,,,,,,,,,,,,,,,,,,,,,,,,,,,,,,,,
,,567b073bb7d79a0005b270bd,2022-09-08_13h22.57.778,CGTgamblingSpanTasks,2022.2.1,Win32,60.04563468,,,,,,,,,,,,,,,,,,,,,,,,,,,,,,,,,,,,,,,,,,,,,,,v,1.9625,,,,,,,,,,,,,,,,,,,,,,,,,,,,,,,,,,,,,,,,,,,,,,,,,,,,,,,,,,,,,,,,,,,,,,,,,,,,,,,,,,,,,,,
,,567b073bb7d79a0005b270bd,2022-09-08_13h22.57.778,CGTgamblingSpanTasks,2022.2.1,Win32,60.04563468,,,,,,,,3.0337,,,,,,,,,,,,,,1,n,0.9663,3.877530383,0,4.0337,1,,,,,,3.471484939,0,3.877530383,,,,,,,,,,,,,0,0,0,40,1,0.02623078,0,,,,,,,,,,,,,,,,,,,,,,,,,,,,,,,,,,,,,,,,,,,,,,,,,,,,,,,,,,,,,,,,,,,,,,,,,,,,,,,,
,,567b073bb7d79a0005b270bd,2022-09-08_13h22.57.778,CGTgamblingSpanTasks,2022.2.1,Win32,60.04563468,,,,,,,,3.0006,,,,,,,,,,,,,,2,n,0.9994,0,1,4.0006,1,,,,,,21.2188881,0,2.067660742,,,,,,,,,,,,,0,1,1,107,1,0.50470775,1,,,,,,,,,,,,,,,,,,,,,,,,,,,,,,,,,,,,,,,,,,,,,,,,,,,,,,,,,,,,,,,,,,,,,,,,,,,,,,,,
,,567b073bb7d79a0005b270bd,2022-09-08_13h22.57.778,CGTgamblingSpanTasks,2022.2.1,Win32,60.04563468,,,,,,,,3.1863,,,,,,,,,,,,,,1,v,0.8137,0,1,4.6863,1.5,,,,,,13.4287264,0,1.317368801,,,,,,,,,,,,,0,2,2,100,1,0.502953125,1,,,,,,,,,,,,,,,,,,,,,,,,,,,,,,,,,,,,,,,,,,,,,,,,,,,,,,,,,,,,,,,,,,,,,,,,,,,,,,,,
,,567b073bb7d79a0005b270bd,2022-09-08_13h22.57.778,CGTgamblingSpanTasks,2022.2.1,Win32,60.04563468,,,,,,,,3.2003,,,,,,,,,,,,,,2,n,0.7997,0,1,4.7003,1.5,,,,,,19.5450126,0,2.123581464,,,,,,,,,,,,,0,3,3,65,1,0.475836144,1,,,,,,,,,,,,,,,,,,,,,,,,,,,,,,,,,,,,,,,,,,,,,,,,,,,,,,,,,,,,,,,,,,,,,,,,,,,,,,,,
,,567b073bb7d79a0005b270bd,2022-09-08_13h22.57.778,CGTgamblingSpanTasks,2022.2.1,Win32,60.04563468,,,,,,,,3.2036,,,,,,,,,,,,,,1,v,0.7964,22.72923833,1,4.2036,1,,,,,,22.72923833,0,0.067170781,,,,,,,,,,,,,0,4,4,86,1,0.907226703,0,,,,,,,,,,,,,,,,,,,,,,,,,,,,,,,,,,,,,,,,,,,,,,,,,,,,,,,,,,,,,,,,,,,,,,,,,,,,,,,,
,,567b073bb7d79a0005b270bd,2022-09-08_13h22.57.778,CGTgamblingSpanTasks,2022.2.1,Win32,60.04563468,,,,,,,,2.8997,,,,,,,,,,,,,,2,n,1.1003,0,1,4.3997,1.5,,,,,,15.87668502,0,8.42547829,,,,,,,,,,,,,0,5,5,56,1,0.092099462,0,,,,,,,,,,,,,,,,,,,,,,,,,,,,,,,,,,,,,,,,,,,,,,,,,,,,,,,,,,,,,,,,,,,,,,,,,,,,,,,,
,,567b073bb7d79a0005b270bd,2022-09-08_13h22.57.778,CGTgamblingSpanTasks,2022.2.1,Win32,60.04563468,,,,,,,,3.1144,,,,,,,,,,,,,,1,v,0.8856,0,1,4.1144,1,,,,,,19.3050342,0,2.030232342,,,,,,,,,,,,,0,6,6,73,1,0.484573227,1,,,,,,,,,,,,,,,,,,,,,,,,,,,,,,,,,,,,,,,,,,,,,,,,,,,,,,,,,,,,,,,,,,,,,,,,,,,,,,,,
,,567b073bb7d79a0005b270bd,2022-09-08_13h22.57.778,CGTgamblingSpanTasks,2022.2.1,Win32,60.04563468,,,,,,,,3.1241,,,,,,,,,,,,,,2,n,0.8759,25.26994993,1,4.6241,1.5,,,,,,25.26994993,0,2.78925142,,,,,,,,,,,,,0,7,7,108,1,0.471582922,1,,,,,,,,,,,,,,,,,,,,,,,,,,,,,,,,,,,,,,,,,,,,,,,,,,,,,,,,,,,,,,,,,,,,,,,,,,,,,,,,
,,567b073bb7d79a0005b270bd,2022-09-08_13h22.57.778,CGTgamblingSpanTasks,2022.2.1,Win32,60.04563468,,,,,,,,3.2381,,,,,,,,,,,,,,1,v,0.7619,0,1,4.7381,1.5,,,,,,21.46599803,0,0.059789256,,,,,,,,,,,,,0,8,8,8,1,0.909019081,0,,,,,,,,,,,,,,,,,,,,,,,,,,,,,,,,,,,,,,,,,,,,,,,,,,,,,,,,,,,,,,,,,,,,,,,,,,,,,,,,
,,567b073bb7d79a0005b270bd,2022-09-08_13h22.57.778,CGTgamblingSpanTasks,2022.2.1,Win32,60.04563468,,,,,,,,2.9302,,,,,,,,,,,,,,2,v,1.0698,6.781500919,0,4.4302,1.5,,,,,,8.363821911,0,6.781500919,,,,,,,,,,,,,0,9,9,61,1,0.044227959,0,,,,,,,,,,,,,,,,,,,,,,,,,,,,,,,,,,,,,,,,,,,,,,,,,,,,,,,,,,,,,,,,,,,,,,,,,,,,,,,,
,,567b073bb7d79a0005b270bd,2022-09-08_13h22.57.778,CGTgamblingSpanTasks,2022.2.1,Win32,60.04563468,,,,,,,,3.1709,,,,,,,,,,,,,,1,v,0.8291,24.8002852,1,4.1709,1,,,,,,24.8002852,0,0.071848086,,,,,,,,,,,,,0,10,10,16,1,0.90783559,0,,,,,,,,,,,,,,,,,,,,,,,,,,,,,,,,,,,,,,,,,,,,,,,,,,,,,,,,,,,,,,,,,,,,,,,,,,,,,,,,
,,567b073bb7d79a0005b270bd,2022-09-08_13h22.57.778,CGTgamblingSpanTasks,2022.2.1,Win32,60.04563468,,,,,,,,3.2259,,,,,,,,,,,,,,1,v,0.7741,0,1,4.7259,1.5,,,,,,20.31034258,0,1.870404296,,,,,,,,,,,,,0,11,11,85,1,0.519325853,1,,,,,,,,,,,,,,,,,,,,,,,,,,,,,,,,,,,,,,,,,,,,,,,,,,,,,,,,,,,,,,,,,,,,,,,,,,,,,,,,
,,567b073bb7d79a0005b270bd,2022-09-08_13h22.57.778,CGTgamblingSpanTasks,2022.2.1,Win32,60.04563468,,,,,,,,3.1041,,,,,,,,,,,,,,2,v,0.8959,11.35147481,0,4.6041,1.5,,,,,,17.67865084,0,11.35147481,,,,,,,,,,,,,0,12,12,91,1,0.067304606,0,,,,,,,,,,,,,,,,,,,,,,,,,,,,,,,,,,,,,,,,,,,,,,,,,,,,,,,,,,,,,,,,,,,,,,,,,,,,,,,,
,,567b073bb7d79a0005b270bd,2022-09-08_13h22.57.778,CGTgamblingSpanTasks,2022.2.1,Win32,60.04563468,,,,,,,,3.2551,,,,,,,,,,,,,,2,n,0.7449,0,1,4.2551,1,,,,,,27.7711693,0,2.320849632,,,,,,,,,,,,,0,13,13,94,1,0.543786368,1,,,,,,,,,,,,,,,,,,,,,,,,,,,,,,,,,,,,,,,,,,,,,,,,,,,,,,,,,,,,,,,,,,,,,,,,,,,,,,,,
,,567b073bb7d79a0005b270bd,2022-09-08_13h22.57.778,CGTgamblingSpanTasks,2022.2.1,Win32,60.04563468,,,,,,,,3.2112,,,,,,,,,,,,,,2,n,0.7888,0,1,4.2112,1,,,,,,26.36733703,0,2.201057101,,,,,,,,,,,,,0,14,14,90,1,0.544064207,1,,,,,,,,,,,,,,,,,,,,,,,,,,,,,,,,,,,,,,,,,,,,,,,,,,,,,,,,,,,,,,,,,,,,,,,,,,,,,,,,
,,567b073bb7d79a0005b270bd,2022-09-08_13h22.57.778,CGTgamblingSpanTasks,2022.2.1,Win32,60.04563468,,,,,,,,3.0722,,,,,,,,,,,,,,1,v,0.9278,0,1,4.0722,1,,,,,,23.59556381,0,2.464662219,,,,,,,,,,,,,0,15,15,22,1,0.486383205,1,,,,,,,,,,,,,,,,,,,,,,,,,,,,,,,,,,,,,,,,,,,,,,,,,,,,,,,,,,,,,,,,,,,,,,,,,,,,,,,,
,,567b073bb7d79a0005b270bd,2022-09-08_13h22.57.778,CGTgamblingSpanTasks,2022.2.1,Win32,60.04563468,,,,,,,,3.1579,,,,,,,,,,,,,,1,n,0.8421,7.50753835,0,4.1579,1,,,,,,2.231316635,0,7.50753835,,,,,,,,,,,,,0,16,16,29,1,0.010273427,0,,,,,,,,,,,,,,,,,,,,,,,,,,,,,,,,,,,,,,,,,,,,,,,,,,,,,,,,,,,,,,,,,,,,,,,,,,,,,,,,
,,567b073bb7d79a0005b270bd,2022-09-08_13h22.57.778,CGTgamblingSpanTasks,2022.2.1,Win32,60.04563468,,,,,,,,3.1434,,,,,,,,,,,,,,2,n,0.8566,0,1,4.1434,1,,,,,,22.0050376,0,2.257683666,,,,,,,,,,,,,0,17,17,4,1,0.491147312,1,,,,,,,,,,,,,,,,,,,,,,,,,,,,,,,,,,,,,,,,,,,,,,,,,,,,,,,,,,,,,,,,,,,,,,,,,,,,,,,,
,,567b073bb7d79a0005b270bd,2022-09-08_13h22.57.778,CGTgamblingSpanTasks,2022.2.1,Win32,60.04563468,,,,,,,,3.1393,,,,,,,,,,,,,,1,v,0.8607,0,1,4.6393,1.5,,,,,,17.92584289,0,1.878232496,,,,,,,,,,,,,0,18,18,5,1,0.485559263,1,,,,,,,,,,,,,,,,,,,,,,,,,,,,,,,,,,,,,,,,,,,,,,,,,,,,,,,,,,,,,,,,,,,,,,,,,,,,,,,,
,,567b073bb7d79a0005b270bd,2022-09-08_13h22.57.778,CGTgamblingSpanTasks,2022.2.1,Win32,60.04563468,,,,,,,,3.3419,,,,,,,,,,,,,,1,v,0.6581,29.75778644,1,4.3419,1,,,,,,29.75778644,0,2.810531415,,,,,,,,,,,,,0,19,19,113,1,0.512824233,1,,,,,,,,,,,,,,,,,,,,,,,,,,,,,,,,,,,,,,,,,,,,,,,,,,,,,,,,,,,,,,,,,,,,,,,,,,,,,,,,
,,567b073bb7d79a0005b270bd,2022-09-08_13h22.57.778,CGTgamblingSpanTasks,2022.2.1,Win32,60.04563468,,,,,,,,3.2112,,,,,,,,,,,,,,1,n,0.7888,5.683635938,0,4.2112,1,,,,,,4.941039335,0,5.683635938,,,,,,,,,,,,,0,20,20,9,1,0.025481984,0,,,,,,,,,,,,,,,,,,,,,,,,,,,,,,,,,,,,,,,,,,,,,,,,,,,,,,,,,,,,,,,,,,,,,,,,,,,,,,,,
,,567b073bb7d79a0005b270bd,2022-09-08_13h22.57.778,CGTgamblingSpanTasks,2022.2.1,Win32,60.04563468,,,,,,,,3.1576,,,,,,,,,,,,,,2,v,0.8424,11.19311486,0,4.1576,1,,,,,,8.17598802,0,11.19311486,,,,,,,,,,,,,0,21,21,110,1,0.021568003,0,,,,,,,,,,,,,,,,,,,,,,,,,,,,,,,,,,,,,,,,,,,,,,,,,,,,,,,,,,,,,,,,,,,,,,,,,,,,,,,,
,,567b073bb7d79a0005b270bd,2022-09-08_13h22.57.778,CGTgamblingSpanTasks,2022.2.1,Win32,60.04563468,,,,,,,,3.0887,,,,,,,,,,,,,,2,v,0.9113,8.579385201,0,4.5887,1.5,,,,,,14.11762686,0,8.579385201,,,,,,,,,,,,,0,22,22,60,1,0.073886959,0,,,,,,,,,,,,,,,,,,,,,,,,,,,,,,,,,,,,,,,,,,,,,,,,,,,,,,,,,,,,,,,,,,,,,,,,,,,,,,,,
,,567b073bb7d79a0005b270bd,2022-09-08_13h22.57.778,CGTgamblingSpanTasks,2022.2.1,Win32,60.04563468,,,,,,,,3.1918,,,,,,,,,,,,,,1,v,0.8082,0,1,4.6918,1.5,,,,,,21.39646914,0,0.072474078,,,,,,,,,,,,,0,23,23,3,1,0.902848133,0,,,,,,,,,,,,,,,,,,,,,,,,,,,,,,,,,,,,,,,,,,,,,,,,,,,,,,,,,,,,,,,,,,,,,,,,,,,,,,,,
,,567b073bb7d79a0005b270bd,2022-09-08_13h22.57.778,CGTgamblingSpanTasks,2022.2.1,Win32,60.04563468,,,,,,,,3.2055,,,,,,,,,,,,,,2,n,0.7945,0,1,4.2055,1,,,,,,25.56803059,0,2.543951743,,,,,,,,,,,,,0,24,24,41,1,0.499247217,1,,,,,,,,,,,,,,,,,,,,,,,,,,,,,,,,,,,,,,,,,,,,,,,,,,,,,,,,,,,,,,,,,,,,,,,,,,,,,,,,
,,567b073bb7d79a0005b270bd,2022-09-08_13h22.57.778,CGTgamblingSpanTasks,2022.2.1,Win32,60.04563468,,,,,,,,3.1278,,,,,,,,,,,,,,1,n,0.8722,11.61882862,0,4.1278,1,,,,,,4.022743614,0,11.61882862,,,,,,,,,,,,,0,25,25,38,1,0.011499376,0,,,,,,,,,,,,,,,,,,,,,,,,,,,,,,,,,,,,,,,,,,,,,,,,,,,,,,,,,,,,,,,,,,,,,,,,,,,,,,,,
,,567b073bb7d79a0005b270bd,2022-09-08_13h22.57.778,CGTgamblingSpanTasks,2022.2.1,Win32,60.04563468,,,,,,,,2.7573,,,,,,,,,,,,,,1,n,1.2427,5.526483034,0,4.2573,1.5,,,,,,9.725876653,0,5.526483034,,,,,,,,,,,,,0,26,26,44,1,0.082550696,0,,,,,,,,,,,,,,,,,,,,,,,,,,,,,,,,,,,,,,,,,,,,,,,,,,,,,,,,,,,,,,,,,,,,,,,,,,,,,,,,
,,567b073bb7d79a0005b270bd,2022-09-08_13h22.57.778,CGTgamblingSpanTasks,2022.2.1,Win32,60.04563468,,,,,,,,3.1367,,,,,,,,,,,,,,1,v,0.8633,19.36415485,1,4.6367,1.5,,,,,,19.36415485,0,1.966229494,,,,,,,,,,,,,0,27,27,96,1,0.493893111,1,,,,,,,,,,,,,,,,,,,,,,,,,,,,,,,,,,,,,,,,,,,,,,,,,,,,,,,,,,,,,,,,,,,,,,,,,,,,,,,,
,,567b073bb7d79a0005b270bd,2022-09-08_13h22.57.778,CGTgamblingSpanTasks,2022.2.1,Win32,60.04563468,,,,,,,,3.2564,,,,,,,,,,,,,,2,n,0.7436,22.86604061,1,4.7564,1.5,,,,,,22.86604061,0,2.293289792,,,,,,,,,,,,,0,28,28,51,1,0.49715382,1,,,,,,,,,,,,,,,,,,,,,,,,,,,,,,,,,,,,,,,,,,,,,,,,,,,,,,,,,,,,,,,,,,,,,,,,,,,,,,,,
,,567b073bb7d79a0005b270bd,2022-09-08_13h22.57.778,CGTgamblingSpanTasks,2022.2.1,Win32,60.04563468,,,,,,,,3.2036,,,,,,,,,,,,,,1,v,0.7964,0,1,4.7036,1.5,,,,,,23.0613391,0,2.387726776,,,,,,,,,,,,,0,29,29,69,1,0.488727763,1,,,,,,,,,,,,,,,,,,,,,,,,,,,,,,,,,,,,,,,,,,,,,,,,,,,,,,,,,,,,,,,,,,,,,,,,,,,,,,,,
,,567b073bb7d79a0005b270bd,2022-09-08_13h22.57.778,CGTgamblingSpanTasks,2022.2.1,Win32,60.04563468,,,,,,,,3.3417,,,,,,,,,,,,,,2,n,0.6583,21.16780451,1,4.3417,1,,,,,,21.16780451,0,2.469465385,,,,,,,,,,,,,0,30,30,32,1,0.456531699,1,,,,,,,,,,,,,,,,,,,,,,,,,,,,,,,,,,,,,,,,,,,,,,,,,,,,,,,,,,,,,,,,,,,,,,,,,,,,,,,,
,,567b073bb7d79a0005b270bd,2022-09-08_13h22.57.778,CGTgamblingSpanTasks,2022.2.1,Win32,60.04563468,,,,,,,,3.1497,,,,,,,,,,,,,,1,v,0.8503,14.3363647,1,4.6497,1.5,,,,,,14.3363647,0,1.396635362,,,,,,,,,,,,,0,31,31,78,1,0.504775474,1,,,,,,,,,,,,,,,,,,,,,,,,,,,,,,,,,,,,,,,,,,,,,,,,,,,,,,,,,,,,,,,,,,,,,,,,,,,,,,,,
,,567b073bb7d79a0005b270bd,2022-09-08_13h22.57.778,CGTgamblingSpanTasks,2022.2.1,Win32,60.04563468,,,,,,,,3.305,,,,,,,,,,,,,,1,v,0.695,28.9323758,1,4.305,1,,,,,,28.9323758,0,2.893007023,,,,,,,,,,,,,0,32,32,11,1,0.497943321,1,,,,,,,,,,,,,,,,,,,,,,,,,,,,,,,,,,,,,,,,,,,,,,,,,,,,,,,,,,,,,,,,,,,,,,,,,,,,,,,,
,,567b073bb7d79a0005b270bd,2022-09-08_13h22.57.778,CGTgamblingSpanTasks,2022.2.1,Win32,60.04563468,,,,,,,,3.2803,,,,,,,,,,,,,,1,v,0.7197,26.4985979,1,4.2803,1,,,,,,26.4985979,0,0.051324376,,,,,,,,,,,,,0,33,33,106,1,0.918747215,0,,,,,,,,,,,,,,,,,,,,,,,,,,,,,,,,,,,,,,,,,,,,,,,,,,,,,,,,,,,,,,,,,,,,,,,,,,,,,,,,
,,567b073bb7d79a0005b270bd,2022-09-08_13h22.57.778,CGTgamblingSpanTasks,2022.2.1,Win32,60.04563468,,,,,,,,3.3633,,,,,,,,,,,,,,2,n,0.6367,13.84410806,1,4.8633,1.5,,,,,,13.84410806,0,1.535873964,,,,,,,,,,,,,0,34,34,88,1,0.470209002,1,,,,,,,,,,,,,,,,,,,,,,,,,,,,,,,,,,,,,,,,,,,,,,,,,,,,,,,,,,,,,,,,,,,,,,,,,,,,,,,,
,,567b073bb7d79a0005b270bd,2022-09-08_13h22.57.778,CGTgamblingSpanTasks,2022.2.1,Win32,60.04563468,,,,,,,,3.3316,,,,,,,,,,,,,,1,v,0.6684,0,1,4.3316,1,,,,,,23.4214135,0,2.485985001,,,,,,,,,,,,,0,35,35,81,1,0.482105905,1,,,,,,,,,,,,,,,,,,,,,,,,,,,,,,,,,,,,,,,,,,,,,,,,,,,,,,,,,,,,,,,,,,,,,,,,,,,,,,,,
,,567b073bb7d79a0005b270bd,2022-09-08_13h22.57.778,CGTgamblingSpanTasks,2022.2.1,Win32,60.04563468,,,,,,,,3.0839,,,,,,,,,,,,,,1,n,0.9161,10.41201161,0,4.0839,1,,,,,,6.307062696,0,10.41201161,,,,,,,,,,,,,0,36,36,23,1,0.018187109,0,,,,,,,,,,,,,,,,,,,,,,,,,,,,,,,,,,,,,,,,,,,,,,,,,,,,,,,,,,,,,,,,,,,,,,,,,,,,,,,,
,,567b073bb7d79a0005b270bd,2022-09-08_13h22.57.778,CGTgamblingSpanTasks,2022.2.1,Win32,60.04563468,,,,,,,,2.9521,,,,,,,,,,,,,,2,n,1.0479,0,1,4.4521,1.5,,,,,,18.16238569,0,1.540604093,,,,,,,,,,,,,0,37,37,34,1,0.540092491,1,,,,,,,,,,,,,,,,,,,,,,,,,,,,,,,,,,,,,,,,,,,,,,,,,,,,,,,,,,,,,,,,,,,,,,,,,,,,,,,,
,,567b073bb7d79a0005b270bd,2022-09-08_13h22.57.778,CGTgamblingSpanTasks,2022.2.1,Win32,60.04563468,,,,,,,,3.2727,,,,,,,,,,,,,,1,v,0.7273,21.03408097,1,4.7727,1.5,,,,,,21.03408097,0,2.208275162,,,,,,,,,,,,,0,38,38,0,1,0.485031246,1,,,,,,,,,,,,,,,,,,,,,,,,,,,,,,,,,,,,,,,,,,,,,,,,,,,,,,,,,,,,,,,,,,,,,,,,,,,,,,,,
,,567b073bb7d79a0005b270bd,2022-09-08_13h22.57.778,CGTgamblingSpanTasks,2022.2.1,Win32,60.04563468,,,,,,,,3.1055,,,,,,,,,,,,,,1,n,0.8945,6.091504705,0,4.6055,1.5,,,,,,6.662965216,0,6.091504705,,,,,,,,,,,,,0,39,39,102,1,0.035087099,0,,,,,,,,,,,,,,,,,,,,,,,,,,,,,,,,,,,,,,,,,,,,,,,,,,,,,,,,,,,,,,,,,,,,,,,,,,,,,,,,
,,567b073bb7d79a0005b270bd,2022-09-08_13h22.57.778,CGTgamblingSpanTasks,2022.2.1,Win32,60.04563468,,,,,,,,3.238,,,,,,,,,,,,,,2,n,0.762,26.11188619,1,4.738,1.5,,,,,,26.11188619,0,0.081942421,,,,,,,,,,,,,0,40,40,105,1,0.905343856,0,,,,,,,,,,,,,,,,,,,,,,,,,,,,,,,,,,,,,,,,,,,,,,,,,,,,,,,,,,,,,,,,,,,,,,,,,,,,,,,,
,,567b073bb7d79a0005b270bd,2022-09-08_13h22.57.778,CGTgamblingSpanTasks,2022.2.1,Win32,60.04563468,,,,,,,,3.1717,,,,,,,,,,,,,,2,n,0.8283,0,1,4.6717,1.5,,,,,,29.30724159,0,3.247012935,,,,,,,,,,,,,0,41,41,71,1,0.470571125,1,,,,,,,,,,,,,,,,,,,,,,,,,,,,,,,,,,,,,,,,,,,,,,,,,,,,,,,,,,,,,,,,,,,,,,,,,,,,,,,,
,,567b073bb7d79a0005b270bd,2022-09-08_13h22.57.778,CGTgamblingSpanTasks,2022.2.1,Win32,60.04563468,,,,,,,,3.2391,,,,,,,,,,,,,,2,n,0.7609,22.62475578,1,4.7391,1.5,,,,,,22.62475578,0,2.397643354,,,,,,,,,,,,,0,42,42,93,1,0.482527609,1,,,,,,,,,,,,,,,,,,,,,,,,,,,,,,,,,,,,,,,,,,,,,,,,,,,,,,,,,,,,,,,,,,,,,,,,,,,,,,,,
,,567b073bb7d79a0005b270bd,2022-09-08_13h22.57.778,CGTgamblingSpanTasks,2022.2.1,Win32,60.04563468,,,,,,,,3.2886,,,,,,,,,,,,,,1,v,0.7114,28.9381277,1,4.2886,1,,,,,,28.9381277,0,2.663622024,,,,,,,,,,,,,0,43,43,103,1,0.519453367,1,,,,,,,,,,,,,,,,,,,,,,,,,,,,,,,,,,,,,,,,,,,,,,,,,,,,,,,,,,,,,,,,,,,,,,,,,,,,,,,,
,,567b073bb7d79a0005b270bd,2022-09-08_13h22.57.778,CGTgamblingSpanTasks,2022.2.1,Win32,60.04563468,,,,,,,,3.2633,,,,,,,,,,,,,,2,n,0.7367,0,1,4.2633,1,,,,,,15.43649625,0,1.65459324,,,,,,,,,,,,,0,44,44,33,1,0.479480163,1,,,,,,,,,,,,,,,,,,,,,,,,,,,,,,,,,,,,,,,,,,,,,,,,,,,,,,,,,,,,,,,,,,,,,,,,,,,,,,,,
,,567b073bb7d79a0005b270bd,2022-09-08_13h22.57.778,CGTgamblingSpanTasks,2022.2.1,Win32,60.04563468,,,,,,,,2.9553,,,,,,,,,,,,,,1,v,1.0447,0,1,3.9553,1,,,,,,10.05300841,0,8.512335864,,,,,,,,,,,,,0,45,45,74,1,0.040729225,0,,,,,,,,,,,,,,,,,,,,,,,,,,,,,,,,,,,,,,,,,,,,,,,,,,,,,,,,,,,,,,,,,,,,,,,,,,,,,,,,
,,567b073bb7d79a0005b270bd,2022-09-08_13h22.57.778,CGTgamblingSpanTasks,2022.2.1,Win32,60.04563468,,,,,,,,3.34,,,,,,,,,,,,,,2,v,0.66,7.850775577,0,4.84,1.5,,,,,,4.622707531,0,7.850775577,,,,,,,,,,,,,0,46,46,6,1,0.017737407,0,,,,,,,,,,,,,,,,,,,,,,,,,,,,,,,,,,,,,,,,,,,,,,,,,,,,,,,,,,,,,,,,,,,,,,,,,,,,,,,,
,,567b073bb7d79a0005b270bd,2022-09-08_13h22.57.778,CGTgamblingSpanTasks,2022.2.1,Win32,60.04563468,,,,,,,,3.1608,,,,,,,,,,,,,,2,v,0.8392,10.3417501,0,4.1608,1,,,,,,15.21435748,0,10.3417501,,,,,,,,,,,,,0,47,47,72,1,0.060969226,0,,,,,,,,,,,,,,,,,,,,,,,,,,,,,,,,,,,,,,,,,,,,,,,,,,,,,,,,,,,,,,,,,,,,,,,,,,,,,,,,
,,567b073bb7d79a0005b270bd,2022-09-08_13h22.57.778,CGTgamblingSpanTasks,2022.2.1,Win32,60.04563468,,,,,,,,3.1563,,,,,,,,,,,,,,2,n,0.8437,28.68598705,1,4.6563,1.5,,,,,,28.68598705,0,0.050674956,,,,,,,,,,,,,0,48,48,62,1,0.920905497,0,,,,,,,,,,,,,,,,,,,,,,,,,,,,,,,,,,,,,,,,,,,,,,,,,,,,,,,,,,,,,,,,,,,,,,,,,,,,,,,,
,,567b073bb7d79a0005b270bd,2022-09-08_13h22.57.778,CGTgamblingSpanTasks,2022.2.1,Win32,60.04563468,,,,,,,,3.0063,,,,,,,,,,,,,,2,n,0.9937,17.85020524,1,4.0063,1,,,,,,17.85020524,0,2.058701084,,,,,,,,,,,,,0,49,49,25,1,0.459662216,1,,,,,,,,,,,,,,,,,,,,,,,,,,,,,,,,,,,,,,,,,,,,,,,,,,,,,,,,,,,,,,,,,,,,,,,,,,,,,,,,
,,567b073bb7d79a0005b270bd,2022-09-08_13h22.57.778,CGTgamblingSpanTasks,2022.2.1,Win32,60.04563468,,,,,,,,2.8203,,,,,,,,,,,,,,1,v,1.1797,0,1,3.8203,1,,,,,,29.77342428,0,2.838865588,,,,,,,,,,,,,0,50,50,57,1,0.510363415,1,,,,,,,,,,,,,,,,,,,,,,,,,,,,,,,,,,,,,,,,,,,,,,,,,,,,,,,,,,,,,,,,,,,,,,,,,,,,,,,,
,,567b073bb7d79a0005b270bd,2022-09-08_13h22.57.778,CGTgamblingSpanTasks,2022.2.1,Win32,60.04563468,,,,,,,,3.1854,,,,,,,,,,,,,,1,n,0.8146,4.904872644,0,4.1854,1,,,,,,4.698775357,0,4.904872644,,,,,,,,,,,,,0,51,51,75,1,0.028064484,0,,,,,,,,,,,,,,,,,,,,,,,,,,,,,,,,,,,,,,,,,,,,,,,,,,,,,,,,,,,,,,,,,,,,,,,,,,,,,,,,
,,567b073bb7d79a0005b270bd,2022-09-08_13h22.57.778,CGTgamblingSpanTasks,2022.2.1,Win32,60.04563468,,,,,,,,3.129,,,,,,,,,,,,,,1,v,0.871,25.65316415,1,4.129,1,,,,,,25.65316415,0,0.079652925,,,,,,,,,,,,,0,52,52,109,1,0.90568168,0,,,,,,,,,,,,,,,,,,,,,,,,,,,,,,,,,,,,,,,,,,,,,,,,,,,,,,,,,,,,,,,,,,,,,,,,,,,,,,,,
,,567b073bb7d79a0005b270bd,2022-09-08_13h22.57.778,CGTgamblingSpanTasks,2022.2.1,Win32,60.04563468,,,,,,,,3.1035,,,,,,,,,,,,,,2,v,0.8965,4.462262453,0,4.6035,1.5,,,,,,0.192759042,0,4.462262453,,,,,,,,,,,,,0,53,53,52,1,0.003553223,0,,,,,,,,,,,,,,,,,,,,,,,,,,,,,,,,,,,,,,,,,,,,,,,,,,,,,,,,,,,,,,,,,,,,,,,,,,,,,,,,
,,567b073bb7d79a0005b270bd,2022-09-08_13h22.57.778,CGTgamblingSpanTasks,2022.2.1,Win32,60.04563468,,,,,,,,3.1934,,,,,,,,,,,,,,2,n,0.8066,27.37527992,1,4.1934,1,,,,,,27.37527992,0,2.860319095,,,,,,,,,,,,,0,54,54,39,1,0.486304156,1,,,,,,,,,,,,,,,,,,,,,,,,,,,,,,,,,,,,,,,,,,,,,,,,,,,,,,,,,,,,,,,,,,,,,,,,,,,,,,,,
,,567b073bb7d79a0005b270bd,2022-09-08_13h22.57.778,CGTgamblingSpanTasks,2022.2.1,Win32,60.04563468,,,,,,,,3.1965,,,,,,,,,,,,,,1,v,0.8035,0,1,4.6965,1.5,,,,,,24.66627941,0,2.765426402,,,,,,,,,,,,,0,55,55,24,1,0.467360588,1,,,,,,,,,,,,,,,,,,,,,,,,,,,,,,,,,,,,,,,,,,,,,,,,,,,,,,,,,,,,,,,,,,,,,,,,,,,,,,,,
,,567b073bb7d79a0005b270bd,2022-09-08_13h22.57.778,CGTgamblingSpanTasks,2022.2.1,Win32,60.04563468,,,,,,,,3.241,,,,,,,,,,,,,,1,v,0.759,0,1,4.241,1,,,,,,27.77179191,0,0.074524436,,,,,,,,,,,,,0,56,56,99,1,0.910114387,0,,,,,,,,,,,,,,,,,,,,,,,,,,,,,,,,,,,,,,,,,,,,,,,,,,,,,,,,,,,,,,,,,,,,,,,,,,,,,,,,
,,567b073bb7d79a0005b270bd,2022-09-08_13h22.57.778,CGTgamblingSpanTasks,2022.2.1,Win32,60.04563468,,,,,,,,3.3978,,,,,,,,,,,,,,1,v,0.6022,21.7711579,1,4.8978,1.5,,,,,,21.7711579,0,2.502728921,,,,,,,,,,,,,0,57,57,101,1,0.460552621,1,,,,,,,,,,,,,,,,,,,,,,,,,,,,,,,,,,,,,,,,,,,,,,,,,,,,,,,,,,,,,,,,,,,,,,,,,,,,,,,,
,,567b073bb7d79a0005b270bd,2022-09-08_13h22.57.778,CGTgamblingSpanTasks,2022.2.1,Win32,60.04563468,,,,,,,,3.2739,,,,,,,,,,,,,,1,v,0.7261,0,1,4.2739,1,,,,,,27.38828234,0,0.0639233,,,,,,,,,,,,,0,58,58,43,1,0.914010176,0,,,,,,,,,,,,,,,,,,,,,,,,,,,,,,,,,,,,,,,,,,,,,,,,,,,,,,,,,,,,,,,,,,,,,,,,,,,,,,,,
,,567b073bb7d79a0005b270bd,2022-09-08_13h22.57.778,CGTgamblingSpanTasks,2022.2.1,Win32,60.04563468,,,,,,,,3.246,,,,,,,,,,,,,,1,v,0.754,0,1,4.746,1.5,,,,,,22.25959835,0,0.065383587,,,,,,,,,,,,,0,59,59,97,1,0.907413875,0,,,,,,,,,,,,,,,,,,,,,,,,,,,,,,,,,,,,,,,,,,,,,,,,,,,,,,,,,,,,,,,,,,,,,,,,,,,,,,,,
,,567b073bb7d79a0005b270bd,2022-09-08_13h22.57.778,CGTgamblingSpanTasks,2022.2.1,Win32,60.04563468,,,,,,,,3.2273,,,,,,,,,,,,,,2,n,0.7727,27.4965044,1,4.7273,1.5,,,,,,27.4965044,0,2.461467004,,,,,,,,,,,,,0,60,60,36,1,0.526550878,1,,,,,,,,,,,,,,,,,,,,,,,,,,,,,,,,,,,,,,,,,,,,,,,,,,,,,,,,,,,,,,,,,,,,,,,,,,,,,,,,
,,567b073bb7d79a0005b270bd,2022-09-08_13h22.57.778,CGTgamblingSpanTasks,2022.2.1,Win32,60.04563468,,,,,,,,3.3372,,,,,,,,,,,,,,1,v,0.6628,24.35708027,1,4.3372,1,,,,,,24.35708027,0,2.738695417,,,,,,,,,,,,,0,61,61,114,1,0.466573634,1,,,,,,,,,,,,,,,,,,,,,,,,,,,,,,,,,,,,,,,,,,,,,,,,,,,,,,,,,,,,,,,,,,,,,,,,,,,,,,,,
,,567b073bb7d79a0005b270bd,2022-09-08_13h22.57.778,CGTgamblingSpanTasks,2022.2.1,Win32,60.04563468,,,,,,,,3.244,,,,,,,,,,,,,,2,n,0.756,13.96521039,1,4.744,1.5,,,,,,13.96521039,0,1.591282699,,,,,,,,,,,,,0,62,62,49,1,0.462956344,1,,,,,,,,,,,,,,,,,,,,,,,,,,,,,,,,,,,,,,,,,,,,,,,,,,,,,,,,,,,,,,,,,,,,,,,,,,,,,,,,
,,567b073bb7d79a0005b270bd,2022-09-08_13h22.57.778,CGTgamblingSpanTasks,2022.2.1,Win32,60.04563468,,,,,,,,3.2746,,,,,,,,,,,,,,1,v,0.7254,0,1,4.2746,1,,,,,,17.5608285,0,1.825111303,,,,,,,,,,,,,0,63,63,104,1,0.487721116,1,,,,,,,,,,,,,,,,,,,,,,,,,,,,,,,,,,,,,,,,,,,,,,,,,,,,,,,,,,,,,,,,,,,,,,,,,,,,,,,,
,,567b073bb7d79a0005b270bd,2022-09-08_13h22.57.778,CGTgamblingSpanTasks,2022.2.1,Win32,60.04563468,,,,,,,,2.9527,,,,,,,,,,,,,,2,v,1.0473,11.41737518,0,4.4527,1.5,,,,,,18.11029021,0,11.41737518,,,,,,,,,,,,,0,64,64,48,1,0.069445859,0,,,,,,,,,,,,,,,,,,,,,,,,,,,,,,,,,,,,,,,,,,,,,,,,,,,,,,,,,,,,,,,,,,,,,,,,,,,,,,,,
,,567b073bb7d79a0005b270bd,2022-09-08_13h22.57.778,CGTgamblingSpanTasks,2022.2.1,Win32,60.04563468,,,,,,,,3.1504,,,,,,,,,,,,,,2,v,0.8496,7.646213173,0,4.6504,1.5,,,,,,2.042350179,0,7.646213173,,,,,,,,,,,,,0,65,65,53,1,0.009522273,0,,,,,,,,,,,,,,,,,,,,,,,,,,,,,,,,,,,,,,,,,,,,,,,,,,,,,,,,,,,,,,,,,,,,,,,,,,,,,,,,
,,567b073bb7d79a0005b270bd,2022-09-08_13h22.57.778,CGTgamblingSpanTasks,2022.2.1,Win32,60.04563468,,,,,,,,3.1209,,,,,,,,,,,,,,2,n,0.8791,17.30137174,1,4.1209,1,,,,,,17.30137174,0,1.716380842,,,,,,,,,,,,,0,66,66,20,1,0.500020285,1,,,,,,,,,,,,,,,,,,,,,,,,,,,,,,,,,,,,,,,,,,,,,,,,,,,,,,,,,,,,,,,,,,,,,,,,,,,,,,,,
,,567b073bb7d79a0005b270bd,2022-09-08_13h22.57.778,CGTgamblingSpanTasks,2022.2.1,Win32,60.04563468,,,,,,,,3.1498,,,,,,,,,,,,,,1,n,0.8502,11.42134125,0,4.6498,1.5,,,,,,12.9904115,0,11.42134125,,,,,,,,,,,,,0,67,67,118,1,0.037876033,0,,,,,,,,,,,,,,,,,,,,,,,,,,,,,,,,,,,,,,,,,,,,,,,,,,,,,,,,,,,,,,,,,,,,,,,,,,,,,,,,
,,567b073bb7d79a0005b270bd,2022-09-08_13h22.57.778,CGTgamblingSpanTasks,2022.2.1,Win32,60.04563468,,,,,,,,3.2346,,,,,,,,,,,,,,2,n,0.7654,0,1,4.2346,1,,,,,,23.24777057,0,2.003482335,,,,,,,,,,,,,0,68,68,59,1,0.536135174,1,,,,,,,,,,,,,,,,,,,,,,,,,,,,,,,,,,,,,,,,,,,,,,,,,,,,,,,,,,,,,,,,,,,,,,,,,,,,,,,,
,,567b073bb7d79a0005b270bd,2022-09-08_13h22.57.778,CGTgamblingSpanTasks,2022.2.1,Win32,60.04563468,,,,,,,,2.7682,,,,,,,,,,,,,,2,v,1.2318,11.39288827,0,3.7682,1,,,,,,20.97851654,0,11.39288827,,,,,,,,,,,,,0,69,69,2,1,0.088791079,0,,,,,,,,,,,,,,,,,,,,,,,,,,,,,,,,,,,,,,,,,,,,,,,,,,,,,,,,,,,,,,,,,,,,,,,,,,,,,,,,
,,567b073bb7d79a0005b270bd,2022-09-08_13h22.57.778,CGTgamblingSpanTasks,2022.2.1,Win32,60.04563468,,,,,,,,2.9671,,,,,,,,,,,,,,1,v,1.0329,0,1,4.4671,1.5,,,,,,25.54604005,0,0.088845411,,,,,,,,,,,,,0,70,70,79,1,0.901957831,0,,,,,,,,,,,,,,,,,,,,,,,,,,,,,,,,,,,,,,,,,,,,,,,,,,,,,,,,,,,,,,,,,,,,,,,,,,,,,,,,
,,567b073bb7d79a0005b270bd,2022-09-08_13h22.57.778,CGTgamblingSpanTasks,2022.2.1,Win32,60.04563468,,,,,,,,3.1625,,,,,,,,,,,,,,1,v,0.8375,27.2532142,1,4.1625,1,,,,,,27.2532142,0,0.08089327,,,,,,,,,,,,,0,71,71,119,1,0.907091845,0,,,,,,,,,,,,,,,,,,,,,,,,,,,,,,,,,,,,,,,,,,,,,,,,,,,,,,,,,,,,,,,,,,,,,,,,,,,,,,,,
,,567b073bb7d79a0005b270bd,2022-09-08_13h22.57.778,CGTgamblingSpanTasks,2022.2.1,Win32,60.04563468,,,,,,,,2.9592,,,,,,,,,,,,,,2,v,1.0408,8.830252162,0,3.9592,1,,,,,,15.73000491,0,8.830252162,,,,,,,,,,,,,0,72,72,95,1,0.084193143,0,,,,,,,,,,,,,,,,,,,,,,,,,,,,,,,,,,,,,,,,,,,,,,,,,,,,,,,,,,,,,,,,,,,,,,,,,,,,,,,,
,,567b073bb7d79a0005b270bd,2022-09-08_13h22.57.778,CGTgamblingSpanTasks,2022.2.1,Win32,60.04563468,,,,,,,,3.241,,,,,,,,,,,,,,2,n,0.759,28.33977875,1,4.241,1,,,,,,28.33977875,0,2.768313633,,,,,,,,,,,,,0,73,73,116,1,0.50406901,1,,,,,,,,,,,,,,,,,,,,,,,,,,,,,,,,,,,,,,,,,,,,,,,,,,,,,,,,,,,,,,,,,,,,,,,,,,,,,,,,
,,567b073bb7d79a0005b270bd,2022-09-08_13h22.57.778,CGTgamblingSpanTasks,2022.2.1,Win32,60.04563468,,,,,,,,3.0179,,,,,,,,,,,,,,2,n,0.9821,7.534278541,1,4.0179,1,,,,,,7.534278541,0,0.747140182,,,,,,,,,,,,,0,74,74,37,1,0.50012466,1,,,,,,,,,,,,,,,,,,,,,,,,,,,,,,,,,,,,,,,,,,,,,,,,,,,,,,,,,,,,,,,,,,,,,,,,,,,,,,,,
,,567b073bb7d79a0005b270bd,2022-09-08_13h22.57.778,CGTgamblingSpanTasks,2022.2.1,Win32,60.04563468,,,,,,,,2.8382,,,,,,,,,,,,,,2,n,1.1618,27.88092897,1,3.8382,1,,,,,,27.88092897,0,2.771762788,,,,,,,,,,,,,0,75,75,117,1,0.499466648,1,,,,,,,,,,,,,,,,,,,,,,,,,,,,,,,,,,,,,,,,,,,,,,,,,,,,,,,,,,,,,,,,,,,,,,,,,,,,,,,,
,,567b073bb7d79a0005b270bd,2022-09-08_13h22.57.778,CGTgamblingSpanTasks,2022.2.1,Win32,60.04563468,,,,,,,,3.1417,,,,,,,,,,,,,,1,v,0.8583,22.87092517,1,4.1417,1,,,,,,22.87092517,0,0.059276504,,,,,,,,,,,,,0,76,76,27,1,0.911114935,0,,,,,,,,,,,,,,,,,,,,,,,,,,,,,,,,,,,,,,,,,,,,,,,,,,,,,,,,,,,,,,,,,,,,,,,,,,,,,,,,
,,567b073bb7d79a0005b270bd,2022-09-08_13h22.57.778,CGTgamblingSpanTasks,2022.2.1,Win32,60.04563468,,,,,,,,3.2269,,,,,,,,,,,,,,1,v,0.7731,0,1,4.7269,1.5,,,,,,19.68065872,0,1.843597162,,,,,,,,,,,,,0,77,77,80,1,0.514941058,1,,,,,,,,,,,,,,,,,,,,,,,,,,,,,,,,,,,,,,,,,,,,,,,,,,,,,,,,,,,,,,,,,,,,,,,,,,,,,,,,
,,567b073bb7d79a0005b270bd,2022-09-08_13h22.57.778,CGTgamblingSpanTasks,2022.2.1,Win32,60.04563468,,,,,,,,3.1947,,,,,,,,,,,,,,2,n,0.8053,27.94544945,1,4.1947,1,,,,,,27.94544945,0,2.32030209,,,,,,,,,,,,,0,78,78,115,1,0.545390564,1,,,,,,,,,,,,,,,,,,,,,,,,,,,,,,,,,,,,,,,,,,,,,,,,,,,,,,,,,,,,,,,,,,,,,,,,,,,,,,,,
,,567b073bb7d79a0005b270bd,2022-09-08_13h22.57.778,CGTgamblingSpanTasks,2022.2.1,Win32,60.04563468,,,,,,,,3.2934,,,,,,,,,,,,,,2,n,0.7066,0,1,4.7934,1.5,,,,,,21.00799273,0,0.067969053,,,,,,,,,,,,,0,79,79,92,1,0.904360262,0,,,,,,,,,,,,,,,,,,,,,,,,,,,,,,,,,,,,,,,,,,,,,,,,,,,,,,,,,,,,,,,,,,,,,,,,,,,,,,,,
,,567b073bb7d79a0005b270bd,2022-09-08_13h22.57.778,CGTgamblingSpanTasks,2022.2.1,Win32,60.04563468,,,,,,,,3.1908,,,,,,,,,,,,,,1,v,0.8092,0,1,4.1908,1,,,,,,27.57491653,0,2.99133314,,,,,,,,,,,,,0,80,80,10,1,0.47625893,1,,,,,,,,,,,,,,,,,,,,,,,,,,,,,,,,,,,,,,,,,,,,,,,,,,,,,,,,,,,,,,,,,,,,,,,,,,,,,,,,
,,567b073bb7d79a0005b270bd,2022-09-08_13h22.57.778,CGTgamblingSpanTasks,2022.2.1,Win32,60.04563468,,,,,,,,3.303,,,,,,,,,,,,,,1,v,0.697,0,1,4.303,1,,,,,,25.21882231,0,0.085746782,,,,,,,,,,,,,0,81,81,64,1,0.90272076,0,,,,,,,,,,,,,,,,,,,,,,,,,,,,,,,,,,,,,,,,,,,,,,,,,,,,,,,,,,,,,,,,,,,,,,,,,,,,,,,,
,,567b073bb7d79a0005b270bd,2022-09-08_13h22.57.778,CGTgamblingSpanTasks,2022.2.1,Win32,60.04563468,,,,,,,,3.2513,,,,,,,,,,,,,,1,v,0.7487,21.17800335,1,4.7513,1.5,,,,,,21.17800335,0,0.059830985,,,,,,,,,,,,,0,82,82,67,1,0.908594974,0,,,,,,,,,,,,,,,,,,,,,,,,,,,,,,,,,,,,,,,,,,,,,,,,,,,,,,,,,,,,,,,,,,,,,,,,,,,,,,,,
,,567b073bb7d79a0005b270bd,2022-09-08_13h22.57.778,CGTgamblingSpanTasks,2022.2.1,Win32,60.04563468,,,,,,,,3.2997,,,,,,,,,,,,,,1,v,0.7003,25.76582409,1,4.7997,1.5,,,,,,25.76582409,0,2.393193076,,,,,,,,,,,,,0,83,83,46,1,0.517129855,1,,,,,,,,,,,,,,,,,,,,,,,,,,,,,,,,,,,,,,,,,,,,,,,,,,,,,,,,,,,,,,,,,,,,,,,,,,,,,,,,
,,567b073bb7d79a0005b270bd,2022-09-08_13h22.57.778,CGTgamblingSpanTasks,2022.2.1,Win32,60.04563468,,,,,,,,3.0698,,,,,,,,,,,,,,2,n,0.9302,17.23907308,1,4.5698,1.5,,,,,,17.23907308,0,2.055848574,,,,,,,,,,,,,0,84,84,66,1,0.450504458,1,,,,,,,,,,,,,,,,,,,,,,,,,,,,,,,,,,,,,,,,,,,,,,,,,,,,,,,,,,,,,,,,,,,,,,,,,,,,,,,,
,,567b073bb7d79a0005b270bd,2022-09-08_13h22.57.778,CGTgamblingSpanTasks,2022.2.1,Win32,60.04563468,,,,,,,,2.851,,,,,,,,,,,,,,2,v,1.149,10.31611309,0,3.851,1,,,,,,19.30622782,0,10.31611309,,,,,,,,,,,,,0,85,85,1,1,0.091105656,0,,,,,,,,,,,,,,,,,,,,,,,,,,,,,,,,,,,,,,,,,,,,,,,,,,,,,,,,,,,,,,,,,,,,,,,,,,,,,,,,
,,567b073bb7d79a0005b270bd,2022-09-08_13h22.57.778,CGTgamblingSpanTasks,2022.2.1,Win32,60.04563468,,,,,,,,3.0106,,,,,,,,,,,,,,1,v,0.9894,28.13634754,1,4.5106,1.5,,,,,,28.13634754,0,2.532806323,,,,,,,,,,,,,0,86,86,28,1,0.525136524,1,,,,,,,,,,,,,,,,,,,,,,,,,,,,,,,,,,,,,,,,,,,,,,,,,,,,,,,,,,,,,,,,,,,,,,,,,,,,,,,,
,,567b073bb7d79a0005b270bd,2022-09-08_13h22.57.778,CGTgamblingSpanTasks,2022.2.1,Win32,60.04563468,,,,,,,,3.3112,,,,,,,,,,,,,,2,n,0.6888,0,1,4.8112,1.5,,,,,,17.4320197,0,1.448620949,,,,,,,,,,,,,0,87,87,30,1,0.545178213,1,,,,,,,,,,,,,,,,,,,,,,,,,,,,,,,,,,,,,,,,,,,,,,,,,,,,,,,,,,,,,,,,,,,,,,,,,,,,,,,,
,,567b073bb7d79a0005b270bd,2022-09-08_13h22.57.778,CGTgamblingSpanTasks,2022.2.1,Win32,60.04563468,,,,,,,,3.3558,,,,,,,,,,,,,,2,n,0.6442,0,1,4.3558,1,,,,,,21.48443242,0,2.229247341,,,,,,,,,,,,,0,88,88,63,1,0.488155912,1,,,,,,,,,,,,,,,,,,,,,,,,,,,,,,,,,,,,,,,,,,,,,,,,,,,,,,,,,,,,,,,,,,,,,,,,,,,,,,,,
,,567b073bb7d79a0005b270bd,2022-09-08_13h22.57.778,CGTgamblingSpanTasks,2022.2.1,Win32,60.04563468,,,,,,,,2.8456,,,,,,,,,,,,,,1,v,1.1544,28.14876717,1,3.8456,1,,,,,,28.14876717,0,3.117906378,,,,,,,,,,,,,0,89,89,76,1,0.470636736,1,,,,,,,,,,,,,,,,,,,,,,,,,,,,,,,,,,,,,,,,,,,,,,,,,,,,,,,,,,,,,,,,,,,,,,,,,,,,,,,,
,,567b073bb7d79a0005b270bd,2022-09-08_13h22.57.778,CGTgamblingSpanTasks,2022.2.1,Win32,60.04563468,,,,,,,,3.1818,,,,,,,,,,,,,,1,v,0.8182,28.18900855,1,4.1818,1,,,,,,28.18900855,0,0.05384276,,,,,,,,,,,,,0,90,90,55,1,0.919081308,0,,,,,,,,,,,,,,,,,,,,,,,,,,,,,,,,,,,,,,,,,,,,,,,,,,,,,,,,,,,,,,,,,,,,,,,,,,,,,,,,
,,567b073bb7d79a0005b270bd,2022-09-08_13h22.57.778,CGTgamblingSpanTasks,2022.2.1,Win32,60.04563468,,,,,,,,3.2658,,,,,,,,,,,,,,1,v,0.7342,27.76752685,1,4.7658,1.5,,,,,,27.76752685,0,0.083968035,,,,,,,,,,,,,0,91,91,13,1,0.906513967,0,,,,,,,,,,,,,,,,,,,,,,,,,,,,,,,,,,,,,,,,,,,,,,,,,,,,,,,,,,,,,,,,,,,,,,,,,,,,,,,,
,,567b073bb7d79a0005b270bd,2022-09-08_13h22.57.778,CGTgamblingSpanTasks,2022.2.1,Win32,60.04563468,,,,,,,,3.0216,,,,,,,,,,,,,,1,v,0.9784,7.066129113,1,4.5216,1.5,,,,,,7.066129113,0,0.585581699,,,,,,,,,,,,,0,92,92,19,1,0.545860632,1,,,,,,,,,,,,,,,,,,,,,,,,,,,,,,,,,,,,,,,,,,,,,,,,,,,,,,,,,,,,,,,,,,,,,,,,,,,,,,,,
,,567b073bb7d79a0005b270bd,2022-09-08_13h22.57.778,CGTgamblingSpanTasks,2022.2.1,Win32,60.04563468,,,,,,,,3.0476,,,,,,,,,,,,,,2,n,0.9524,9.012590634,1,4.5476,1.5,,,,,,9.012590634,0,1.002188111,,,,,,,,,,,,,0,93,93,12,1,0.46958041,1,,,,,,,,,,,,,,,,,,,,,,,,,,,,,,,,,,,,,,,,,,,,,,,,,,,,,,,,,,,,,,,,,,,,,,,,,,,,,,,,
,,567b073bb7d79a0005b270bd,2022-09-08_13h22.57.778,CGTgamblingSpanTasks,2022.2.1,Win32,60.04563468,,,,,,,,3.2388,,,,,,,,,,,,,,1,v,0.7612,28.94627214,1,4.7388,1.5,,,,,,28.94627214,0,2.701896413,,,,,,,,,,,,,0,94,94,111,1,0.515860759,1,,,,,,,,,,,,,,,,,,,,,,,,,,,,,,,,,,,,,,,,,,,,,,,,,,,,,,,,,,,,,,,,,,,,,,,,,,,,,,,,
,,567b073bb7d79a0005b270bd,2022-09-08_13h22.57.778,CGTgamblingSpanTasks,2022.2.1,Win32,60.04563468,,,,,,,,3.0605,,,,,,,,,,,,,,1,v,0.9395,11.08143071,1,4.5605,1.5,,,,,,11.08143071,0,1.207538756,,,,,,,,,,,,,0,95,95,84,1,0.475047453,1,,,,,,,,,,,,,,,,,,,,,,,,,,,,,,,,,,,,,,,,,,,,,,,,,,,,,,,,,,,,,,,,,,,,,,,,,,,,,,,,
,,567b073bb7d79a0005b270bd,2022-09-08_13h22.57.778,CGTgamblingSpanTasks,2022.2.1,Win32,60.04563468,,,,,,,,3.3942,,,,,,,,,,,,,,2,n,0.6058,29.76099779,1,4.8942,1.5,,,,,,29.76099779,0,0.095763086,,,,,,,,,,,,,0,96,96,35,1,0.904537896,0,,,,,,,,,,,,,,,,,,,,,,,,,,,,,,,,,,,,,,,,,,,,,,,,,,,,,,,,,,,,,,,,,,,,,,,,,,,,,,,,
,,567b073bb7d79a0005b270bd,2022-09-08_13h22.57.778,CGTgamblingSpanTasks,2022.2.1,Win32,60.04563468,,,,,,,,3.109,,,,,,,,,,,,,,2,n,0.891,27.39221343,1,4.609,1.5,,,,,,27.39221343,0,2.743407746,,,,,,,,,,,,,0,97,97,47,1,0.49752044,1,,,,,,,,,,,,,,,,,,,,,,,,,,,,,,,,,,,,,,,,,,,,,,,,,,,,,,,,,,,,,,,,,,,,,,,,,,,,,,,,
,,567b073bb7d79a0005b270bd,2022-09-08_13h22.57.778,CGTgamblingSpanTasks,2022.2.1,Win32,60.04563468,,,,,,,,3.144,,,,,,,,,,,,,,2,v,0.856,10.68505773,0,4.644,1.5,,,,,,17.64114152,0,10.68505773,,,,,,,,,,,,,0,98,98,98,1,0.074299362,0,,,,,,,,,,,,,,,,,,,,,,,,,,,,,,,,,,,,,,,,,,,,,,,,,,,,,,,,,,,,,,,,,,,,,,,,,,,,,,,,
,,567b073bb7d79a0005b270bd,2022-09-08_13h22.57.778,CGTgamblingSpanTasks,2022.2.1,Win32,60.04563468,,,,,,,,3.2597,,,,,,,,,,,,,,2,n,0.7403,20.5726842,1,4.7597,1.5,,,,,,20.5726842,0,0.073558523,,,,,,,,,,,,,0,99,99,26,1,0.901008565,0,,,,,,,,,,,,,,,,,,,,,,,,,,,,,,,,,,,,,,,,,,,,,,,,,,,,,,,,,,,,,,,,,,,,,,,,,,,,,,,,
,,567b073bb7d79a0005b270bd,2022-09-08_13h22.57.778,CGTgamblingSpanTasks,2022.2.1,Win32,60.04563468,,,,,,,,3.3114,,,,,,,,,,,,,,2,n,0.6886,0,1,4.8114,1.5,,,,,,26.16821818,0,0.093528069,,,,,,,,,,,,,0,100,100,42,1,0.901022427,0,,,,,,,,,,,,,,,,,,,,,,,,,,,,,,,,,,,,,,,,,,,,,,,,,,,,,,,,,,,,,,,,,,,,,,,,,,,,,,,,
,,567b073bb7d79a0005b270bd,2022-09-08_13h22.57.778,CGTgamblingSpanTasks,2022.2.1,Win32,60.04563468,,,,,,,,3.1217,,,,,,,,,,,,,,1,n,0.8783,4.251676631,0,4.1217,1,,,,,,3.395192929,0,4.251676631,,,,,,,,,,,,,0,101,101,7,1,0.023467153,0,,,,,,,,,,,,,,,,,,,,,,,,,,,,,,,,,,,,,,,,,,,,,,,,,,,,,,,,,,,,,,,,,,,,,,,,,,,,,,,,
,,567b073bb7d79a0005b270bd,2022-09-08_13h22.57.778,CGTgamblingSpanTasks,2022.2.1,Win32,60.04563468,,,,,,,,3.1101,,,,,,,,,,,,,,1,v,0.8899,27.93093084,1,4.6101,1.5,,,,,,27.93093084,0,0.050207531,,,,,,,,,,,,,0,102,102,83,1,0.920505936,0,,,,,,,,,,,,,,,,,,,,,,,,,,,,,,,,,,,,,,,,,,,,,,,,,,,,,,,,,,,,,,,,,,,,,,,,,,,,,,,,
,,567b073bb7d79a0005b270bd,2022-09-08_13h22.57.778,CGTgamblingSpanTasks,2022.2.1,Win32,60.04563468,,,,,,,,3.009,,,,,,,,,,,,,,2,v,0.991,8.653432553,0,4.509,1.5,,,,,,15.13999312,0,8.653432553,,,,,,,,,,,,,0,103,103,54,1,0.081767484,0,,,,,,,,,,,,,,,,,,,,,,,,,,,,,,,,,,,,,,,,,,,,,,,,,,,,,,,,,,,,,,,,,,,,,,,,,,,,,,,,
,,567b073bb7d79a0005b270bd,2022-09-08_13h22.57.778,CGTgamblingSpanTasks,2022.2.1,Win32,60.04563468,,,,,,,,2.7101,,,,,,,,,,,,,,1,n,1.2899,11.6744431,0,3.7101,1,,,,,,10.43004651,0,11.6744431,,,,,,,,,,,,,0,104,104,15,1,0.026176489,0,,,,,,,,,,,,,,,,,,,,,,,,,,,,,,,,,,,,,,,,,,,,,,,,,,,,,,,,,,,,,,,,,,,,,,,,,,,,,,,,
,,567b073bb7d79a0005b270bd,2022-09-08_13h22.57.778,CGTgamblingSpanTasks,2022.2.1,Win32,60.04563468,,,,,,,,3.1094,,,,,,,,,,,,,,2,n,0.8906,0,1,4.6094,1.5,,,,,,18.20422443,0,1.635040165,,,,,,,,,,,,,0,105,105,82,1,0.525708991,1,,,,,,,,,,,,,,,,,,,,,,,,,,,,,,,,,,,,,,,,,,,,,,,,,,,,,,,,,,,,,,,,,,,,,,,,,,,,,,,,
,,567b073bb7d79a0005b270bd,2022-09-08_13h22.57.778,CGTgamblingSpanTasks,2022.2.1,Win32,60.04563468,,,,,,,,3.0512,,,,,,,,,,,,,,1,v,0.9488,11.16819157,1,4.0512,1,,,,,,11.16819157,0,0.941456753,,,,,,,,,,,,,0,106,106,45,1,0.54163803,1,,,,,,,,,,,,,,,,,,,,,,,,,,,,,,,,,,,,,,,,,,,,,,,,,,,,,,,,,,,,,,,,,,,,,,,,,,,,,,,,
,,567b073bb7d79a0005b270bd,2022-09-08_13h22.57.778,CGTgamblingSpanTasks,2022.2.1,Win32,60.04563468,,,,,,,,3.3162,,,,,,,,,,,,,,2,n,0.6838,24.479109,1,4.3162,1,,,,,,24.479109,0,0.089582697,,,,,,,,,,,,,0,107,107,89,1,0.900200232,0,,,,,,,,,,,,,,,,,,,,,,,,,,,,,,,,,,,,,,,,,,,,,,,,,,,,,,,,,,,,,,,,,,,,,,,,,,,,,,,,
,,567b073bb7d79a0005b270bd,2022-09-08_13h22.57.778,CGTgamblingSpanTasks,2022.2.1,Win32,60.04563468,,,,,,,,3.3412,,,,,,,,,,,,,,1,v,0.6588,8.670591867,1,4.3412,1,,,,,,8.670591867,0,1.025847652,,,,,,,,,,,,,0,108,108,18,1,0.452680459,1,,,,,,,,,,,,,,,,,,,,,,,,,,,,,,,,,,,,,,,,,,,,,,,,,,,,,,,,,,,,,,,,,,,,,,,,,,,,,,,,
,,567b073bb7d79a0005b270bd,2022-09-08_13h22.57.778,CGTgamblingSpanTasks,2022.2.1,Win32,60.04563468,,,,,,,,3.3378,,,,,,,,,,,,,,2,n,0.6622,27.12325385,1,4.3378,1,,,,,,27.12325385,0,0.080932047,,,,,,,,,,,,,0,109,109,14,1,0.906929184,0,,,,,,,,,,,,,,,,,,,,,,,,,,,,,,,,,,,,,,,,,,,,,,,,,,,,,,,,,,,,,,,,,,,,,,,,,,,,,,,,
,,567b073bb7d79a0005b270bd,2022-09-08_13h22.57.778,CGTgamblingSpanTasks,2022.2.1,Win32,60.04563468,,,,,,,,3.2876,,,,,,,,,,,,,,2,n,0.7124,0,1,4.2876,1,,,,,,27.60724521,0,0.088432325,,,,,,,,,,,,,0,110,110,17,1,0.904684186,0,,,,,,,,,,,,,,,,,,,,,,,,,,,,,,,,,,,,,,,,,,,,,,,,,,,,,,,,,,,,,,,,,,,,,,,,,,,,,,,,
,,567b073bb7d79a0005b270bd,2022-09-08_13h22.57.778,CGTgamblingSpanTasks,2022.2.1,Win32,60.04563468,,,,,,,,3.239,,,,,,,,,,,,,,1,v,0.761,24.57684014,1,4.239,1,,,,,,24.57684014,0,0.061756244,,,,,,,,,,,,,0,111,111,68,1,0.911988903,0,,,,,,,,,,,,,,,,,,,,,,,,,,,,,,,,,,,,,,,,,,,,,,,,,,,,,,,,,,,,,,,,,,,,,,,,,,,,,,,,
,,567b073bb7d79a0005b270bd,2022-09-08_13h22.57.778,CGTgamblingSpanTasks,2022.2.1,Win32,60.04563468,,,,,,,,3.3114,,,,,,,,,,,,,,2,n,0.6886,0,1,4.3114,1,,,,,,8.217594828,0,0.951019374,,,,,,,,,,,,,0,112,112,87,1,0.458722936,1,,,,,,,,,,,,,,,,,,,,,,,,,,,,,,,,,,,,,,,,,,,,,,,,,,,,,,,,,,,,,,,,,,,,,,,,,,,,,,,,
,,567b073bb7d79a0005b270bd,2022-09-08_13h22.57.778,CGTgamblingSpanTasks,2022.2.1,Win32,60.04563468,,,,,,,,3.17,,,,,,,,,,,,,,2,v,0.83,11.93550497,0,4.17,1,,,,,,14.20587264,0,11.93550497,,,,,,,,,,,,,0,113,113,21,1,0.041340301,0,,,,,,,,,,,,,,,,,,,,,,,,,,,,,,,,,,,,,,,,,,,,,,,,,,,,,,,,,,,,,,,,,,,,,,,,,,,,,,,,
,,567b073bb7d79a0005b270bd,2022-09-08_13h22.57.778,CGTgamblingSpanTasks,2022.2.1,Win32,60.04563468,,,,,,,,3.2391,,,,,,,,,,,,,,2,n,0.7609,18.50662664,1,4.7391,1.5,,,,,,18.50662664,0,0.052546026,,,,,,,,,,,,,0,114,114,112,1,0.908444837,0,,,,,,,,,,,,,,,,,,,,,,,,,,,,,,,,,,,,,,,,,,,,,,,,,,,,,,,,,,,,,,,,,,,,,,,,,,,,,,,,
,,567b073bb7d79a0005b270bd,2022-09-08_13h22.57.778,CGTgamblingSpanTasks,2022.2.1,Win32,60.04563468,,,,,,,,3.1024,,,,,,,,,,,,,,2,v,0.8976,1.932334278,0,4.6024,1.5,,,,,,18.51345298,0,1.932334278,,,,,,,,,,,,,0,115,115,31,1,0.48658696,1,,,,,,,,,,,,,,,,,,,,,,,,,,,,,,,,,,,,,,,,,,,,,,,,,,,,,,,,,,,,,,,,,,,,,,,,,,,,,,,,
,,567b073bb7d79a0005b270bd,2022-09-08_13h22.57.778,CGTgamblingSpanTasks,2022.2.1,Win32,60.04563468,,,,,,,,3.084,,,,,,,,,,,,,,1,v,0.916,0,1,4.584,1.5,,,,,,27.53810185,0,0.097022401,,,,,,,,,,,,,0,116,116,50,1,0.901515865,0,,,,,,,,,,,,,,,,,,,,,,,,,,,,,,,,,,,,,,,,,,,,,,,,,,,,,,,,,,,,,,,,,,,,,,,,,,,,,,,,
,,567b073bb7d79a0005b270bd,2022-09-08_13h22.57.778,CGTgamblingSpanTasks,2022.2.1,Win32,60.04563468,,,,,,,,2.6723,,,,,,,,,,,,,,2,v,1.3277,9.936178001,0,4.1723,1.5,,,,,,19.58698544,0,9.936178001,,,,,,,,,,,,,0,117,117,77,1,0.098812204,0,,,,,,,,,,,,,,,,,,,,,,,,,,,,,,,,,,,,,,,,,,,,,,,,,,,,,,,,,,,,,,,,,,,,,,,,,,,,,,,,
,,567b073bb7d79a0005b270bd,2022-09-08_13h22.57.778,CGTgamblingSpanTasks,2022.2.1,Win32,60.04563468,,,,,,,,3.1068,,,,,,,,,,,,,,1,n,0.8932,6.833409611,0,4.1068,1,,,,,,6.325091157,0,6.833409611,,,,,,,,,,,,,0,118,118,58,1,0.027113638,0,,,,,,,,,,,,,,,,,,,,,,,,,,,,,,,,,,,,,,,,,,,,,,,,,,,,,,,,,,,,,,,,,,,,,,,,,,,,,,,,
,,567b073bb7d79a0005b270bd,2022-09-08_13h22.57.778,CGTgamblingSpanTasks,2022.2.1,Win32,60.04563468,,,,,,,,3.2047,,,,,,,,,,,,,,2,n,0.7953,0,1,4.7047,1.5,,,,,,25.0707644,0,0.067651625,,,,,,,,,,,,,0,119,119,70,1,0.909952349,0,,,,,,,,,,,,,,,,,,,,,,,,,,,,,,,,,,,,,,,,,,,,,,,,,,,,,,,,,,,,,,,,,,,,,,,,,,,,,,,,
,,567b073bb7d79a0005b270bd,2022-09-08_13h22.57.778,CGTgamblingSpanTasks,2022.2.1,Win32,60.04563468,,,,,,,,,,,,,,,,,,,,,,,,,,,,,,,,,,,,,,,,,,,,,,,,,,,,,,,,return,9.6632,,,,,,,,,,,,,,,,,,,,,,,,,,,,,,,,,,,,,,,,,,,,,,,,,,,,,,,,,,,,,,,,,,,,,,,,,,,,,,
,,567b073bb7d79a0005b270bd,2022-09-08_13h22.57.778,CGTgamblingSpanTasks,2022.2.1,Win32,60.04563468,,,,,,,,,,,,,,,,,,,,,,,,,,,,,,,,,,,,,,,,,,,,,,,,,,,,,,,,,,return,11.7273,,,,,,,,,,,,,,,,,,,,,,,,,,,,,,,,,,,,,,,,,,,,,,,,,,,,,,,,,,,,,,,,,,,,,,,,,,,,
,,567b073bb7d79a0005b270bd,2022-09-08_13h22.57.778,CGTgamblingSpanTasks,2022.2.1,Win32,60.04563468,,,,,,,,,,,,,,,,,,,,,,,,,,,,,,,,,,,,,,,,,,,,,,,,,,,,,,,,,,,,return,19.9675,,,,,,,,,,,,,,,,,,,,,,,,,,,,,,,,,,,,,,,,,,,,,,,,,,,,,,,,,,,,,,,,,,,,,,,,,,
,,567b073bb7d79a0005b270bd,2022-09-08_13h22.57.778,CGTgamblingSpanTasks,2022.2.1,Win32,60.04563468,,,,,,,,,,,,,,,,,,,,,,,,,,,,,,,,,,,,,,,,,,,,,,,,,,,,,,,,,,,,,,342,1,0.069444444,-0.384259259,1,0,0,cont_buttonPractice,0,0,0,0,1,3,342,24,2,42,,,,,,,,,,,,,,,,,,,,,,,,,,,,,,,,,,,,,,,,,,,,,,,,,,,,,,,,
,,567b073bb7d79a0005b270bd,2022-09-08_13h22.57.778,CGTgamblingSpanTasks,2022.2.1,Win32,60.04563468,,,,,,,,,,,,,,,,,,,,,,,,,,,,,,,,,,,,,,,,,,,,,,,,,,,,,,,,,,,,,,937,1,0.077777792,-0.407407407,1,0,0,cont_buttonPractice,0,1,1,1,1,3,937,73,2,37,,,,,,,,,,,,,,,,,,,,,,,,,,,,,,,,,,,,,,,,,,,,,,,,,,,,,,,,
,,567b073bb7d79a0005b270bd,2022-09-08_13h22.57.778,CGTgamblingSpanTasks,2022.2.1,Win32,60.04563468,,,,,,,,,,,,,,,,,,,,,,,,,,,,,,,,,,,,,,,,,,,,,,,,,,,,,,,,,,,,,,,,,,,,,,,,,,,,,,,,return,6.6353,,,,,,,,,,,,,,,,,,,,,,,,,,,,,,,,,,,,,,,,,,,,,,,,,,,,,,
,,567b073bb7d79a0005b270bd,2022-09-08_13h22.57.778,CGTgamblingSpanTasks,2022.2.1,Win32,60.04563468,,,,,,,,,,,,,,,,,,,,,,,,,,,,,,,,,,,,,,,,,,,,,,,,,,,,,,,,,,,,,,,,,,,,,,,,,,,,,,,,,,"[1,4,7]",0,0,0,0,1,,,,,,,,,,,,,,,,,,,,,,,,,,,,,,,,,,,,,,,,,,,,,,,,
,,567b073bb7d79a0005b270bd,2022-09-08_13h22.57.778,CGTgamblingSpanTasks,2022.2.1,Win32,60.04563468,,,,,,,,,,,,,,,,,,,,,,,,,,,,,,,,,,,,,,,,,,,,,,,,,,,,,,,,,,,,,,,,,,,,,,,,,,,,,,,,,,"[1,4,7]",1,0,1,0,1,,,,,,,,,,,,,,,,,,,,,,,,,,,,,,,,,,,,,,,,,,,,,,,,
,,567b073bb7d79a0005b270bd,2022-09-08_13h22.57.778,CGTgamblingSpanTasks,2022.2.1,Win32,60.04563468,,,,,,,,,,,,,,,,,,,,,,,,,,,,,,,,,,,,,,,,,,,,,,,,,,,,,,,,,,,,,,,,,,,,,,,,,,,,,,,,,,"[1,4,7]",2,0,2,0,1,,,,,,,,,,,,,,,,,,,,,,,,,,,,,,,,,,,,,,,,,,,,,,,,
,,567b073bb7d79a0005b270bd,2022-09-08_13h22.57.778,CGTgamblingSpanTasks,2022.2.1,Win32,60.04563468,,,,,,,,,,,,,,,,,,,,,,,,,,,,,,,,,,,,,,,,,,,,,,,,,,,,,,,,,,,,,,,1,,,,,,,,,,,,,,,,,,,,,,,,,147,0.101851852,-0.406481496,1,0,0,cont_button,0,0,0,0,1,1,,,,,,,,,,,,,,,,,,,,,,,,,,,,,,,,,,,
,,567b073bb7d79a0005b270bd,2022-09-08_13h22.57.778,CGTgamblingSpanTasks,2022.2.1,Win32,60.04563468,,,,,,,,,,,,,,,,,,,,,,,,,,,,,,,,,,,,,,,,,,,,,,,,,,,,,,,,,,,,,,,,,,,,,,,,,,,,,,,,,,"[1,3,8,4]",0,0,0,0,1,,,,,,,,,,,,,,,,,,,,,,,,,,,,,,,,,,,,,,,,,,,,,,,,
,,567b073bb7d79a0005b270bd,2022-09-08_13h22.57.778,CGTgamblingSpanTasks,2022.2.1,Win32,60.04563468,,,,,,,,,,,,,,,,,,,,,,,,,,,,,,,,,,,,,,,,,,,,,,,,,,,,,,,,,,,,,,,,,,,,,,,,,,,,,,,,,,"[1,3,8,4]",1,0,1,0,1,,,,,,,,,,,,,,,,,,,,,,,,,,,,,,,,,,,,,,,,,,,,,,,,
,,567b073bb7d79a0005b270bd,2022-09-08_13h22.57.778,CGTgamblingSpanTasks,2022.2.1,Win32,60.04563468,,,,,,,,,,,,,,,,,,,,,,,,,,,,,,,,,,,,,,,,,,,,,,,,,,,,,,,,,,,,,,,,,,,,,,,,,,,,,,,,,,"[1,3,8,4]",2,0,2,0,1,,,,,,,,,,,,,,,,,,,,,,,,,,,,,,,,,,,,,,,,,,,,,,,,
,,567b073bb7d79a0005b270bd,2022-09-08_13h22.57.778,CGTgamblingSpanTasks,2022.2.1,Win32,60.04563468,,,,,,,,,,,,,,,,,,,,,,,,,,,,,,,,,,,,,,,,,,,,,,,,,,,,,,,,,,,,,,,,,,,,,,,,,,,,,,,,,,"[1,3,8,4]",3,0,3,0,1,,,,,,,,,,,,,,,,,,,,,,,,,,,,,,,,,,,,,,,,,,,,,,,,
,,567b073bb7d79a0005b270bd,2022-09-08_13h22.57.778,CGTgamblingSpanTasks,2022.2.1,Win32,60.04563468,,,,,,,,,,,,,,,,,,,,,,,,,,,,,,,,,,,,,,,,,,,,,,,,,,,,,,,,,,,,,,,1,,,,,,,,,,,,,,,,,,,,,,,,,1384,0.091666681,-0.389814801,1,0,0,cont_button,0,1,1,1,1,2,,,,,,,,,,,,,,,,,,,,,,,,,,,,,,,,,,,
,,567b073bb7d79a0005b270bd,2022-09-08_13h22.57.778,CGTgamblingSpanTasks,2022.2.1,Win32,60.04563468,,,,,,,,,,,,,,,,,,,,,,,,,,,,,,,,,,,,,,,,,,,,,,,,,,,,,,,,,,,,,,,,,,,,,,,,,,,,,,,,,,"[4,3,1,2,6]",0,0,0,0,1,,,,,,,,,,,,,,,,,,,,,,,,,,,,,,,,,,,,,,,,,,,,,,,,
,,567b073bb7d79a0005b270bd,2022-09-08_13h22.57.778,CGTgamblingSpanTasks,2022.2.1,Win32,60.04563468,,,,,,,,,,,,,,,,,,,,,,,,,,,,,,,,,,,,,,,,,,,,,,,,,,,,,,,,,,,,,,,,,,,,,,,,,,,,,,,,,,"[4,3,1,2,6]",1,0,1,0,1,,,,,,,,,,,,,,,,,,,,,,,,,,,,,,,,,,,,,,,,,,,,,,,,
,,567b073bb7d79a0005b270bd,2022-09-08_13h22.57.778,CGTgamblingSpanTasks,2022.2.1,Win32,60.04563468,,,,,,,,,,,,,,,,,,,,,,,,,,,,,,,,,,,,,,,,,,,,,,,,,,,,,,,,,,,,,,,,,,,,,,,,,,,,,,,,,,"[4,3,1,2,6]",2,0,2,0,1,,,,,,,,,,,,,,,,,,,,,,,,,,,,,,,,,,,,,,,,,,,,,,,,
,,567b073bb7d79a0005b270bd,2022-09-08_13h22.57.778,CGTgamblingSpanTasks,2022.2.1,Win32,60.04563468,,,,,,,,,,,,,,,,,,,,,,,,,,,,,,,,,,,,,,,,,,,,,,,,,,,,,,,,,,,,,,,,,,,,,,,,,,,,,,,,,,"[4,3,1,2,6]",3,0,3,0,1,,,,,,,,,,,,,,,,,,,,,,,,,,,,,,,,,,,,,,,,,,,,,,,,
,,567b073bb7d79a0005b270bd,2022-09-08_13h22.57.778,CGTgamblingSpanTasks,2022.2.1,Win32,60.04563468,,,,,,,,,,,,,,,,,,,,,,,,,,,,,,,,,,,,,,,,,,,,,,,,,,,,,,,,,,,,,,,,,,,,,,,,,,,,,,,,,,"[4,3,1,2,6]",4,0,4,0,1,,,,,,,,,,,,,,,,,,,,,,,,,,,,,,,,,,,,,,,,,,,,,,,,
,,567b073bb7d79a0005b270bd,2022-09-08_13h22.57.778,CGTgamblingSpanTasks,2022.2.1,Win32,60.04563468,,,,,,,,,,,,,,,,,,,,,,,,,,,,,,,,,,,,,,,,,,,,,,,,,,,,,,,,,,,,,,,1,,,,,,,,,,,,,,,,,,,,,,,,,43126,0.071296339,-0.425000014,1,0,0,cont_button,0,2,2,2,1,3,,,,,,,,,,,,,,,,,,,,,,,,,,,,,,,,,,,
,,567b073bb7d79a0005b270bd,2022-09-08_13h22.57.778,CGTgamblingSpanTasks,2022.2.1,Win32,60.04563468,,,,,,,,,,,,,,,,,,,,,,,,,,,,,,,,,,,,,,,,,,,,,,,,,,,,,,,,,,,,,,,,,,,,,,,,,,,,,,,,,,"[2,3,1,6,9,4]",0,0,0,0,1,,,,,,,,,,,,,,,,,,,,,,,,,,,,,,,,,,,,,,,,,,,,,,,,
,,567b073bb7d79a0005b270bd,2022-09-08_13h22.57.778,CGTgamblingSpanTasks,2022.2.1,Win32,60.04563468,,,,,,,,,,,,,,,,,,,,,,,,,,,,,,,,,,,,,,,,,,,,,,,,,,,,,,,,,,,,,,,,,,,,,,,,,,,,,,,,,,"[2,3,1,6,9,4]",1,0,1,0,1,,,,,,,,,,,,,,,,,,,,,,,,,,,,,,,,,,,,,,,,,,,,,,,,
,,567b073bb7d79a0005b270bd,2022-09-08_13h22.57.778,CGTgamblingSpanTasks,2022.2.1,Win32,60.04563468,,,,,,,,,,,,,,,,,,,,,,,,,,,,,,,,,,,,,,,,,,,,,,,,,,,,,,,,,,,,,,,,,,,,,,,,,,,,,,,,,,"[2,3,1,6,9,4]",2,0,2,0,1,,,,,,,,,,,,,,,,,,,,,,,,,,,,,,,,,,,,,,,,,,,,,,,,
,,567b073bb7d79a0005b270bd,2022-09-08_13h22.57.778,CGTgamblingSpanTasks,2022.2.1,Win32,60.04563468,,,,,,,,,,,,,,,,,,,,,,,,,,,,,,,,,,,,,,,,,,,,,,,,,,,,,,,,,,,,,,,,,,,,,,,,,,,,,,,,,,"[2,3,1,6,9,4]",3,0,3,0,1,,,,,,,,,,,,,,,,,,,,,,,,,,,,,,,,,,,,,,,,,,,,,,,,
,,567b073bb7d79a0005b270bd,2022-09-08_13h22.57.778,CGTgamblingSpanTasks,2022.2.1,Win32,60.04563468,,,,,,,,,,,,,,,,,,,,,,,,,,,,,,,,,,,,,,,,,,,,,,,,,,,,,,,,,,,,,,,,,,,,,,,,,,,,,,,,,,"[2,3,1,6,9,4]",4,0,4,0,1,,,,,,,,,,,,,,,,,,,,,,,,,,,,,,,,,,,,,,,,,,,,,,,,
,,567b073bb7d79a0005b270bd,2022-09-08_13h22.57.778,CGTgamblingSpanTasks,2022.2.1,Win32,60.04563468,,,,,,,,,,,,,,,,,,,,,,,,,,,,,,,,,,,,,,,,,,,,,,,,,,,,,,,,,,,,,,,,,,,,,,,,,,,,,,,,,,"[2,3,1,6,9,4]",5,0,5,0,1,,,,,,,,,,,,,,,,,,,,,,,,,,,,,,,,,,,,,,,,,,,,,,,,
,,567b073bb7d79a0005b270bd,2022-09-08_13h22.57.778,CGTgamblingSpanTasks,2022.2.1,Win32,60.04563468,,,,,,,,,,,,,,,,,,,,,,,,,,,,,,,,,,,,,,,,,,,,,,,,,,,,,,,,,,,,,,,1,,,,,,,,,,,,,,,,,,,,,,,,,231694,0.056481467,-0.376851894,1,0,0,cont_button,0,3,3,3,1,4,,,,,,,,,,,,,,,,,,,,,,,,,,,,,,,,,,,
,,567b073bb7d79a0005b270bd,2022-09-08_13h22.57.778,CGTgamblingSpanTasks,2022.2.1,Win32,60.04563468,,,,,,,,,,,,,,,,,,,,,,,,,,,,,,,,,,,,,,,,,,,,,,,,,,,,,,,,,,,,,,,,,,,,,,,,,,,,,,,,,,"[7,8,1,4,6,2,3]",0,0,0,0,1,,,,,,,,,,,,,,,,,,,,,,,,,,,,,,,,,,,,,,,,,,,,,,,,
,,567b073bb7d79a0005b270bd,2022-09-08_13h22.57.778,CGTgamblingSpanTasks,2022.2.1,Win32,60.04563468,,,,,,,,,,,,,,,,,,,,,,,,,,,,,,,,,,,,,,,,,,,,,,,,,,,,,,,,,,,,,,,,,,,,,,,,,,,,,,,,,,"[7,8,1,4,6,2,3]",1,0,1,0,1,,,,,,,,,,,,,,,,,,,,,,,,,,,,,,,,,,,,,,,,,,,,,,,,
,,567b073bb7d79a0005b270bd,2022-09-08_13h22.57.778,CGTgamblingSpanTasks,2022.2.1,Win32,60.04563468,,,,,,,,,,,,,,,,,,,,,,,,,,,,,,,,,,,,,,,,,,,,,,,,,,,,,,,,,,,,,,,,,,,,,,,,,,,,,,,,,,"[7,8,1,4,6,2,3]",2,0,2,0,1,,,,,,,,,,,,,,,,,,,,,,,,,,,,,,,,,,,,,,,,,,,,,,,,
,,567b073bb7d79a0005b270bd,2022-09-08_13h22.57.778,CGTgamblingSpanTasks,2022.2.1,Win32,60.04563468,,,,,,,,,,,,,,,,,,,,,,,,,,,,,,,,,,,,,,,,,,,,,,,,,,,,,,,,,,,,,,,,,,,,,,,,,,,,,,,,,,"[7,8,1,4,6,2,3]",3,0,3,0,1,,,,,,,,,,,,,,,,,,,,,,,,,,,,,,,,,,,,,,,,,,,,,,,,
,,567b073bb7d79a0005b270bd,2022-09-08_13h22.57.778,CGTgamblingSpanTasks,2022.2.1,Win32,60.04563468,,,,,,,,,,,,,,,,,,,,,,,,,,,,,,,,,,,,,,,,,,,,,,,,,,,,,,,,,,,,,,,,,,,,,,,,,,,,,,,,,,"[7,8,1,4,6,2,3]",4,0,4,0,1,,,,,,,,,,,,,,,,,,,,,,,,,,,,,,,,,,,,,,,,,,,,,,,,
,,567b073bb7d79a0005b270bd,2022-09-08_13h22.57.778,CGTgamblingSpanTasks,2022.2.1,Win32,60.04563468,,,,,,,,,,,,,,,,,,,,,,,,,,,,,,,,,,,,,,,,,,,,,,,,,,,,,,,,,,,,,,,,,,,,,,,,,,,,,,,,,,"[7,8,1,4,6,2,3]",5,0,5,0,1,,,,,,,,,,,,,,,,,,,,,,,,,,,,,,,,,,,,,,,,,,,,,,,,
,,567b073bb7d79a0005b270bd,2022-09-08_13h22.57.778,CGTgamblingSpanTasks,2022.2.1,Win32,60.04563468,,,,,,,,,,,,,,,,,,,,,,,,,,,,,,,,,,,,,,,,,,,,,,,,,,,,,,,,,,,,,,,,,,,,,,,,,,,,,,,,,,"[7,8,1,4,6,2,3]",6,0,6,0,1,,,,,,,,,,,,,,,,,,,,,,,,,,,,,,,,,,,,,,,,,,,,,,,,
,,567b073bb7d79a0005b270bd,2022-09-08_13h22.57.778,CGTgamblingSpanTasks,2022.2.1,Win32,60.04563468,,,,,,,,,,,,,,,,,,,,,,,,,,,,,,,,,,,,,,,,,,,,,,,,,,,,,,,,,,,,,,,1,,,,,,,,,,,,,,,,,,,,,,,,,7814623,0.097222222,-0.387962977,1,0,0,cont_button,0,4,4,4,1,5,,,,,,,,,,,,,,,,,,,,,,,,,,,,,,,,,,,
,,567b073bb7d79a0005b270bd,2022-09-08_13h22.57.778,CGTgamblingSpanTasks,2022.2.1,Win32,60.04563468,,,,,,,,,,,,,,,,,,,,,,,,,,,,,,,,,,,,,,,,,,,,,,,,,,,,,,,,,,,,,,,,,,,,,,,,,,,,,,,,,,"[3,9,7,8,2,1,4,5]",0,0,0,0,1,,,,,,,,,,,,,,,,,,,,,,,,,,,,,,,,,,,,,,,,,,,,,,,,
,,567b073bb7d79a0005b270bd,2022-09-08_13h22.57.778,CGTgamblingSpanTasks,2022.2.1,Win32,60.04563468,,,,,,,,,,,,,,,,,,,,,,,,,,,,,,,,,,,,,,,,,,,,,,,,,,,,,,,,,,,,,,,,,,,,,,,,,,,,,,,,,,"[3,9,7,8,2,1,4,5]",1,0,1,0,1,,,,,,,,,,,,,,,,,,,,,,,,,,,,,,,,,,,,,,,,,,,,,,,,
,,567b073bb7d79a0005b270bd,2022-09-08_13h22.57.778,CGTgamblingSpanTasks,2022.2.1,Win32,60.04563468,,,,,,,,,,,,,,,,,,,,,,,,,,,,,,,,,,,,,,,,,,,,,,,,,,,,,,,,,,,,,,,,,,,,,,,,,,,,,,,,,,"[3,9,7,8,2,1,4,5]",2,0,2,0,1,,,,,,,,,,,,,,,,,,,,,,,,,,,,,,,,,,,,,,,,,,,,,,,,
,,567b073bb7d79a0005b270bd,2022-09-08_13h22.57.778,CGTgamblingSpanTasks,2022.2.1,Win32,60.04563468,,,,,,,,,,,,,,,,,,,,,,,,,,,,,,,,,,,,,,,,,,,,,,,,,,,,,,,,,,,,,,,,,,,,,,,,,,,,,,,,,,"[3,9,7,8,2,1,4,5]",3,0,3,0,1,,,,,,,,,,,,,,,,,,,,,,,,,,,,,,,,,,,,,,,,,,,,,,,,
,,567b073bb7d79a0005b270bd,2022-09-08_13h22.57.778,CGTgamblingSpanTasks,2022.2.1,Win32,60.04563468,,,,,,,,,,,,,,,,,,,,,,,,,,,,,,,,,,,,,,,,,,,,,,,,,,,,,,,,,,,,,,,,,,,,,,,,,,,,,,,,,,"[3,9,7,8,2,1,4,5]",4,0,4,0,1,,,,,,,,,,,,,,,,,,,,,,,,,,,,,,,,,,,,,,,,,,,,,,,,
,,567b073bb7d79a0005b270bd,2022-09-08_13h22.57.778,CGTgamblingSpanTasks,2022.2.1,Win32,60.04563468,,,,,,,,,,,,,,,,,,,,,,,,,,,,,,,,,,,,,,,,,,,,,,,,,,,,,,,,,,,,,,,,,,,,,,,,,,,,,,,,,,"[3,9,7,8,2,1,4,5]",5,0,5,0,1,,,,,,,,,,,,,,,,,,,,,,,,,,,,,,,,,,,,,,,,,,,,,,,,
,,567b073bb7d79a0005b270bd,2022-09-08_13h22.57.778,CGTgamblingSpanTasks,2022.2.1,Win32,60.04563468,,,,,,,,,,,,,,,,,,,,,,,,,,,,,,,,,,,,,,,,,,,,,,,,,,,,,,,,,,,,,,,,,,,,,,,,,,,,,,,,,,"[3,9,7,8,2,1,4,5]",6,0,6,0,1,,,,,,,,,,,,,,,,,,,,,,,,,,,,,,,,,,,,,,,,,,,,,,,,
,,567b073bb7d79a0005b270bd,2022-09-08_13h22.57.778,CGTgamblingSpanTasks,2022.2.1,Win32,60.04563468,,,,,,,,,,,,,,,,,,,,,,,,,,,,,,,,,,,,,,,,,,,,,,,,,,,,,,,,,,,,,,,,,,,,,,,,,,,,,,,,,,"[3,9,7,8,2,1,4,5]",7,0,7,0,1,,,,,,,,,,,,,,,,,,,,,,,,,,,,,,,,,,,,,,,,,,,,,,,,
,,567b073bb7d79a0005b270bd,2022-09-08_13h22.57.778,CGTgamblingSpanTasks,2022.2.1,Win32,60.04563468,,,,,,,,,,,,,,,,,,,,,,,,,,,,,,,,,,,,,,,,,,,,,,,,,,,,,,,,,,,,,,,1,,,,,,,,,,,,,,,,,,,,,,,,,39782145,0.094444487,-0.383333347,1,0,0,cont_button,0,5,5,5,1,6,,,,,,,,,,,,,,,,,,,,,,,,,,,,,,,,,,,
,,567b073bb7d79a0005b270bd,2022-09-08_13h22.57.778,CGTgamblingSpanTasks,2022.2.1,Win32,60.04563468,,,,,,,,,,,,,,,,,,,,,,,,,,,,,,,,,,,,,,,,,,,,,,,,,,,,,,,,,,,,,,,,,,,,,,,,,,,,,,,,,,"[7,2,3,9,6,4,5,8,1]",0,0,0,0,1,,,,,,,,,,,,,,,,,,,,,,,,,,,,,,,,,,,,,,,,,,,,,,,,
,,567b073bb7d79a0005b270bd,2022-09-08_13h22.57.778,CGTgamblingSpanTasks,2022.2.1,Win32,60.04563468,,,,,,,,,,,,,,,,,,,,,,,,,,,,,,,,,,,,,,,,,,,,,,,,,,,,,,,,,,,,,,,,,,,,,,,,,,,,,,,,,,"[7,2,3,9,6,4,5,8,1]",1,0,1,0,1,,,,,,,,,,,,,,,,,,,,,,,,,,,,,,,,,,,,,,,,,,,,,,,,
,,567b073bb7d79a0005b270bd,2022-09-08_13h22.57.778,CGTgamblingSpanTasks,2022.2.1,Win32,60.04563468,,,,,,,,,,,,,,,,,,,,,,,,,,,,,,,,,,,,,,,,,,,,,,,,,,,,,,,,,,,,,,,,,,,,,,,,,,,,,,,,,,"[7,2,3,9,6,4,5,8,1]",2,0,2,0,1,,,,,,,,,,,,,,,,,,,,,,,,,,,,,,,,,,,,,,,,,,,,,,,,
,,567b073bb7d79a0005b270bd,2022-09-08_13h22.57.778,CGTgamblingSpanTasks,2022.2.1,Win32,60.04563468,,,,,,,,,,,,,,,,,,,,,,,,,,,,,,,,,,,,,,,,,,,,,,,,,,,,,,,,,,,,,,,,,,,,,,,,,,,,,,,,,,"[7,2,3,9,6,4,5,8,1]",3,0,3,0,1,,,,,,,,,,,,,,,,,,,,,,,,,,,,,,,,,,,,,,,,,,,,,,,,
,,567b073bb7d79a0005b270bd,2022-09-08_13h22.57.778,CGTgamblingSpanTasks,2022.2.1,Win32,60.04563468,,,,,,,,,,,,,,,,,,,,,,,,,,,,,,,,,,,,,,,,,,,,,,,,,,,,,,,,,,,,,,,,,,,,,,,,,,,,,,,,,,"[7,2,3,9,6,4,5,8,1]",4,0,4,0,1,,,,,,,,,,,,,,,,,,,,,,,,,,,,,,,,,,,,,,,,,,,,,,,,
,,567b073bb7d79a0005b270bd,2022-09-08_13h22.57.778,CGTgamblingSpanTasks,2022.2.1,Win32,60.04563468,,,,,,,,,,,,,,,,,,,,,,,,,,,,,,,,,,,,,,,,,,,,,,,,,,,,,,,,,,,,,,,,,,,,,,,,,,,,,,,,,,"[7,2,3,9,6,4,5,8,1]",5,0,5,0,1,,,,,,,,,,,,,,,,,,,,,,,,,,,,,,,,,,,,,,,,,,,,,,,,
,,567b073bb7d79a0005b270bd,2022-09-08_13h22.57.778,CGTgamblingSpanTasks,2022.2.1,Win32,60.04563468,,,,,,,,,,,,,,,,,,,,,,,,,,,,,,,,,,,,,,,,,,,,,,,,,,,,,,,,,,,,,,,,,,,,,,,,,,,,,,,,,,"[7,2,3,9,6,4,5,8,1]",6,0,6,0,1,,,,,,,,,,,,,,,,,,,,,,,,,,,,,,,,,,,,,,,,,,,,,,,,
,,567b073bb7d79a0005b270bd,2022-09-08_13h22.57.778,CGTgamblingSpanTasks,2022.2.1,Win32,60.04563468,,,,,,,,,,,,,,,,,,,,,,,,,,,,,,,,,,,,,,,,,,,,,,,,,,,,,,,,,,,,,,,,,,,,,,,,,,,,,,,,,,"[7,2,3,9,6,4,5,8,1]",7,0,7,0,1,,,,,,,,,,,,,,,,,,,,,,,,,,,,,,,,,,,,,,,,,,,,,,,,
,,567b073bb7d79a0005b270bd,2022-09-08_13h22.57.778,CGTgamblingSpanTasks,2022.2.1,Win32,60.04563468,,,,,,,,,,,,,,,,,,,,,,,,,,,,,,,,,,,,,,,,,,,,,,,,,,,,,,,,,,,,,,,,,,,,,,,,,,,,,,,,,,"[7,2,3,9,6,4,5,8,1]",8,0,8,0,1,,,,,,,,,,,,,,,,,,,,,,,,,,,,,,,,,,,,,,,,,,,,,,,,
,,567b073bb7d79a0005b270bd,2022-09-08_13h22.57.778,CGTgamblingSpanTasks,2022.2.1,Win32,60.04563468,,,,,,,,,,,,,,,,,,,,,,,,,,,,,,,,,,,,,,,,,,,,,,,,,,,,,,,,,,,,,,,1,,,,,,,,,,,,,,,,,,,,,,,,,723964581,0.085185228,-0.383333347,1,0,0,cont_button,0,6,6,6,1,7,,,,,,,,,,,,,,,,,,,,,,,,,,,,,,,,,,,
,,567b073bb7d79a0005b270bd,2022-09-08_13h22.57.778,CGTgamblingSpanTasks,2022.2.1,Win32,60.04563468,,,,,,,,,,,,,,,,,,,,,,,,,,,,,,,,,,,,,,,,,,,,,,,,,,,,,,,,,,,,,,,,,,,,,,,,,,,,,,,,,,"[8,3,4,7,5,2,9,1,6,6]",0,0,0,0,1,,,,,,,,,,,,,,,,,,,,,,,,,,,,,,,,,,,,,,,,,,,,,,,,
,,567b073bb7d79a0005b270bd,2022-09-08_13h22.57.778,CGTgamblingSpanTasks,2022.2.1,Win32,60.04563468,,,,,,,,,,,,,,,,,,,,,,,,,,,,,,,,,,,,,,,,,,,,,,,,,,,,,,,,,,,,,,,,,,,,,,,,,,,,,,,,,,"[8,3,4,7,5,2,9,1,6,6]",1,0,1,0,1,,,,,,,,,,,,,,,,,,,,,,,,,,,,,,,,,,,,,,,,,,,,,,,,
,,567b073bb7d79a0005b270bd,2022-09-08_13h22.57.778,CGTgamblingSpanTasks,2022.2.1,Win32,60.04563468,,,,,,,,,,,,,,,,,,,,,,,,,,,,,,,,,,,,,,,,,,,,,,,,,,,,,,,,,,,,,,,,,,,,,,,,,,,,,,,,,,"[8,3,4,7,5,2,9,1,6,6]",2,0,2,0,1,,,,,,,,,,,,,,,,,,,,,,,,,,,,,,,,,,,,,,,,,,,,,,,,
,,567b073bb7d79a0005b270bd,2022-09-08_13h22.57.778,CGTgamblingSpanTasks,2022.2.1,Win32,60.04563468,,,,,,,,,,,,,,,,,,,,,,,,,,,,,,,,,,,,,,,,,,,,,,,,,,,,,,,,,,,,,,,,,,,,,,,,,,,,,,,,,,"[8,3,4,7,5,2,9,1,6,6]",3,0,3,0,1,,,,,,,,,,,,,,,,,,,,,,,,,,,,,,,,,,,,,,,,,,,,,,,,
,,567b073bb7d79a0005b270bd,2022-09-08_13h22.57.778,CGTgamblingSpanTasks,2022.2.1,Win32,60.04563468,,,,,,,,,,,,,,,,,,,,,,,,,,,,,,,,,,,,,,,,,,,,,,,,,,,,,,,,,,,,,,,,,,,,,,,,,,,,,,,,,,"[8,3,4,7,5,2,9,1,6,6]",4,0,4,0,1,,,,,,,,,,,,,,,,,,,,,,,,,,,,,,,,,,,,,,,,,,,,,,,,
,,567b073bb7d79a0005b270bd,2022-09-08_13h22.57.778,CGTgamblingSpanTasks,2022.2.1,Win32,60.04563468,,,,,,,,,,,,,,,,,,,,,,,,,,,,,,,,,,,,,,,,,,,,,,,,,,,,,,,,,,,,,,,,,,,,,,,,,,,,,,,,,,"[8,3,4,7,5,2,9,1,6,6]",5,0,5,0,1,,,,,,,,,,,,,,,,,,,,,,,,,,,,,,,,,,,,,,,,,,,,,,,,
,,567b073bb7d79a0005b270bd,2022-09-08_13h22.57.778,CGTgamblingSpanTasks,2022.2.1,Win32,60.04563468,,,,,,,,,,,,,,,,,,,,,,,,,,,,,,,,,,,,,,,,,,,,,,,,,,,,,,,,,,,,,,,,,,,,,,,,,,,,,,,,,,"[8,3,4,7,5,2,9,1,6,6]",6,0,6,0,1,,,,,,,,,,,,,,,,,,,,,,,,,,,,,,,,,,,,,,,,,,,,,,,,
,,567b073bb7d79a0005b270bd,2022-09-08_13h22.57.778,CGTgamblingSpanTasks,2022.2.1,Win32,60.04563468,,,,,,,,,,,,,,,,,,,,,,,,,,,,,,,,,,,,,,,,,,,,,,,,,,,,,,,,,,,,,,,,,,,,,,,,,,,,,,,,,,"[8,3,4,7,5,2,9,1,6,6]",7,0,7,0,1,,,,,,,,,,,,,,,,,,,,,,,,,,,,,,,,,,,,,,,,,,,,,,,,
,,567b073bb7d79a0005b270bd,2022-09-08_13h22.57.778,CGTgamblingSpanTasks,2022.2.1,Win32,60.04563468,,,,,,,,,,,,,,,,,,,,,,,,,,,,,,,,,,,,,,,,,,,,,,,,,,,,,,,,,,,,,,,,,,,,,,,,,,,,,,,,,,"[8,3,4,7,5,2,9,1,6,6]",8,0,8,0,1,,,,,,,,,,,,,,,,,,,,,,,,,,,,,,,,,,,,,,,,,,,,,,,,
,,567b073bb7d79a0005b270bd,2022-09-08_13h22.57.778,CGTgamblingSpanTasks,2022.2.1,Win32,60.04563468,,,,,,,,,,,,,,,,,,,,,,,,,,,,,,,,,,,,,,,,,,,,,,,,,,,,,,,,,,,,,,,,,,,,,,,,,,,,,,,,,,"[8,3,4,7,5,2,9,1,6,6]",9,0,9,0,1,,,,,,,,,,,,,,,,,,,,,,,,,,,,,,,,,,,,,,,,,,,,,,,,
,,567b073bb7d79a0005b270bd,2022-09-08_13h22.57.778,CGTgamblingSpanTasks,2022.2.1,Win32,60.04563468,,,,,,,,,,,,,,,,,,,,,,,,,,,,,,,,,,,,,,,,,,,,,,,,,,,,,,,,,,,,,,,1,,,,,,,,,,,,,,,,,,,,,,,,,8347529166,0.067592621,-0.40370369,1,0,0,cont_button,0,7,7,7,1,8,,,,,,,,,,,,,,,,,,,,,,,,,,,,,,,,,,,
,,567b073bb7d79a0005b270bd,2022-09-08_13h22.57.778,CGTgamblingSpanTasks,2022.2.1,Win32,60.04563468,,,,,,,,,,,,,,,,,,,,,,,,,,,,,,,,,,,,,,,,,,,,,,,,,,,,,,,,,,,,,,,,,,,,,,,,,,,,,,,,,,"[7,9,3,4,2,6,1,5,8,8,2]",0,0,0,0,1,,,,,,,,,,,,,,,,,,,,,,,,,,,,,,,,,,,,,,,,,,,,,,,,
,,567b073bb7d79a0005b270bd,2022-09-08_13h22.57.778,CGTgamblingSpanTasks,2022.2.1,Win32,60.04563468,,,,,,,,,,,,,,,,,,,,,,,,,,,,,,,,,,,,,,,,,,,,,,,,,,,,,,,,,,,,,,,,,,,,,,,,,,,,,,,,,,"[7,9,3,4,2,6,1,5,8,8,2]",1,0,1,0,1,,,,,,,,,,,,,,,,,,,,,,,,,,,,,,,,,,,,,,,,,,,,,,,,
,,567b073bb7d79a0005b270bd,2022-09-08_13h22.57.778,CGTgamblingSpanTasks,2022.2.1,Win32,60.04563468,,,,,,,,,,,,,,,,,,,,,,,,,,,,,,,,,,,,,,,,,,,,,,,,,,,,,,,,,,,,,,,,,,,,,,,,,,,,,,,,,,"[7,9,3,4,2,6,1,5,8,8,2]",2,0,2,0,1,,,,,,,,,,,,,,,,,,,,,,,,,,,,,,,,,,,,,,,,,,,,,,,,
,,567b073bb7d79a0005b270bd,2022-09-08_13h22.57.778,CGTgamblingSpanTasks,2022.2.1,Win32,60.04563468,,,,,,,,,,,,,,,,,,,,,,,,,,,,,,,,,,,,,,,,,,,,,,,,,,,,,,,,,,,,,,,,,,,,,,,,,,,,,,,,,,"[7,9,3,4,2,6,1,5,8,8,2]",3,0,3,0,1,,,,,,,,,,,,,,,,,,,,,,,,,,,,,,,,,,,,,,,,,,,,,,,,
,,567b073bb7d79a0005b270bd,2022-09-08_13h22.57.778,CGTgamblingSpanTasks,2022.2.1,Win32,60.04563468,,,,,,,,,,,,,,,,,,,,,,,,,,,,,,,,,,,,,,,,,,,,,,,,,,,,,,,,,,,,,,,,,,,,,,,,,,,,,,,,,,"[7,9,3,4,2,6,1,5,8,8,2]",4,0,4,0,1,,,,,,,,,,,,,,,,,,,,,,,,,,,,,,,,,,,,,,,,,,,,,,,,
,,567b073bb7d79a0005b270bd,2022-09-08_13h22.57.778,CGTgamblingSpanTasks,2022.2.1,Win32,60.04563468,,,,,,,,,,,,,,,,,,,,,,,,,,,,,,,,,,,,,,,,,,,,,,,,,,,,,,,,,,,,,,,,,,,,,,,,,,,,,,,,,,"[7,9,3,4,2,6,1,5,8,8,2]",5,0,5,0,1,,,,,,,,,,,,,,,,,,,,,,,,,,,,,,,,,,,,,,,,,,,,,,,,
,,567b073bb7d79a0005b270bd,2022-09-08_13h22.57.778,CGTgamblingSpanTasks,2022.2.1,Win32,60.04563468,,,,,,,,,,,,,,,,,,,,,,,,,,,,,,,,,,,,,,,,,,,,,,,,,,,,,,,,,,,,,,,,,,,,,,,,,,,,,,,,,,"[7,9,3,4,2,6,1,5,8,8,2]",6,0,6,0,1,,,,,,,,,,,,,,,,,,,,,,,,,,,,,,,,,,,,,,,,,,,,,,,,
,,567b073bb7d79a0005b270bd,2022-09-08_13h22.57.778,CGTgamblingSpanTasks,2022.2.1,Win32,60.04563468,,,,,,,,,,,,,,,,,,,,,,,,,,,,,,,,,,,,,,,,,,,,,,,,,,,,,,,,,,,,,,,,,,,,,,,,,,,,,,,,,,"[7,9,3,4,2,6,1,5,8,8,2]",7,0,7,0,1,,,,,,,,,,,,,,,,,,,,,,,,,,,,,,,,,,,,,,,,,,,,,,,,
,,567b073bb7d79a0005b270bd,2022-09-08_13h22.57.778,CGTgamblingSpanTasks,2022.2.1,Win32,60.04563468,,,,,,,,,,,,,,,,,,,,,,,,,,,,,,,,,,,,,,,,,,,,,,,,,,,,,,,,,,,,,,,,,,,,,,,,,,,,,,,,,,"[7,9,3,4,2,6,1,5,8,8,2]",8,0,8,0,1,,,,,,,,,,,,,,,,,,,,,,,,,,,,,,,,,,,,,,,,,,,,,,,,
,,567b073bb7d79a0005b270bd,2022-09-08_13h22.57.778,CGTgamblingSpanTasks,2022.2.1,Win32,60.04563468,,,,,,,,,,,,,,,,,,,,,,,,,,,,,,,,,,,,,,,,,,,,,,,,,,,,,,,,,,,,,,,,,,,,,,,,,,,,,,,,,,"[7,9,3,4,2,6,1,5,8,8,2]",9,0,9,0,1,,,,,,,,,,,,,,,,,,,,,,,,,,,,,,,,,,,,,,,,,,,,,,,,
,,567b073bb7d79a0005b270bd,2022-09-08_13h22.57.778,CGTgamblingSpanTasks,2022.2.1,Win32,60.04563468,,,,,,,,,,,,,,,,,,,,,,,,,,,,,,,,,,,,,,,,,,,,,,,,,,,,,,,,,,,,,,,,,,,,,,,,,,,,,,,,,,"[7,9,3,4,2,6,1,5,8,8,2]",10,0,10,0,1,,,,,,,,,,,,,,,,,,,,,,,,,,,,,,,,,,,,,,,,,,,,,,,,
,,567b073bb7d79a0005b270bd,2022-09-08_13h22.57.778,CGTgamblingSpanTasks,2022.2.1,Win32,60.04563468,,,,,,,,,,,,,,,,,,,,,,,,,,,,,,,,,,,,,,,,,,,,,,,,,,,,,,,,,,,,,,,0,,,,,,,,,,,,,,,,,,,,,,,,,72394651882,0.097222222,-0.405555584,1,0,0,cont_button,0,8,8,8,1,9,,,,,,,,,,,,,,,,,,,,,,,,,,,,,,,,,,,
,,567b073bb7d79a0005b270bd,2022-09-08_13h22.57.778,CGTgamblingSpanTasks,2022.2.1,Win32,60.04563468,,,,,,,,,,,,,,,,,,,,,,,,,,,,,,,,,,,,,,,,,,,,,,,,,,,,,,,,,,,,,,,,,,,,,,,,,,,,,,,,,,"[2,5,7,3,9,4,1,8,6,6,4]",0,0,0,0,1,,,,,,,,,,,,,,,,,,,,,,,,,,,,,,,,,,,,,,,,,,,,,,,,
,,567b073bb7d79a0005b270bd,2022-09-08_13h22.57.778,CGTgamblingSpanTasks,2022.2.1,Win32,60.04563468,,,,,,,,,,,,,,,,,,,,,,,,,,,,,,,,,,,,,,,,,,,,,,,,,,,,,,,,,,,,,,,,,,,,,,,,,,,,,,,,,,"[2,5,7,3,9,4,1,8,6,6,4]",1,0,1,0,1,,,,,,,,,,,,,,,,,,,,,,,,,,,,,,,,,,,,,,,,,,,,,,,,
,,567b073bb7d79a0005b270bd,2022-09-08_13h22.57.778,CGTgamblingSpanTasks,2022.2.1,Win32,60.04563468,,,,,,,,,,,,,,,,,,,,,,,,,,,,,,,,,,,,,,,,,,,,,,,,,,,,,,,,,,,,,,,,,,,,,,,,,,,,,,,,,,"[2,5,7,3,9,4,1,8,6,6,4]",2,0,2,0,1,,,,,,,,,,,,,,,,,,,,,,,,,,,,,,,,,,,,,,,,,,,,,,,,
,,567b073bb7d79a0005b270bd,2022-09-08_13h22.57.778,CGTgamblingSpanTasks,2022.2.1,Win32,60.04563468,,,,,,,,,,,,,,,,,,,,,,,,,,,,,,,,,,,,,,,,,,,,,,,,,,,,,,,,,,,,,,,,,,,,,,,,,,,,,,,,,,"[2,5,7,3,9,4,1,8,6,6,4]",3,0,3,0,1,,,,,,,,,,,,,,,,,,,,,,,,,,,,,,,,,,,,,,,,,,,,,,,,
,,567b073bb7d79a0005b270bd,2022-09-08_13h22.57.778,CGTgamblingSpanTasks,2022.2.1,Win32,60.04563468,,,,,,,,,,,,,,,,,,,,,,,,,,,,,,,,,,,,,,,,,,,,,,,,,,,,,,,,,,,,,,,,,,,,,,,,,,,,,,,,,,"[2,5,7,3,9,4,1,8,6,6,4]",4,0,4,0,1,,,,,,,,,,,,,,,,,,,,,,,,,,,,,,,,,,,,,,,,,,,,,,,,
,,567b073bb7d79a0005b270bd,2022-09-08_13h22.57.778,CGTgamblingSpanTasks,2022.2.1,Win32,60.04563468,,,,,,,,,,,,,,,,,,,,,,,,,,,,,,,,,,,,,,,,,,,,,,,,,,,,,,,,,,,,,,,,,,,,,,,,,,,,,,,,,,"[2,5,7,3,9,4,1,8,6,6,4]",5,0,5,0,1,,,,,,,,,,,,,,,,,,,,,,,,,,,,,,,,,,,,,,,,,,,,,,,,
,,567b073bb7d79a0005b270bd,2022-09-08_13h22.57.778,CGTgamblingSpanTasks,2022.2.1,Win32,60.04563468,,,,,,,,,,,,,,,,,,,,,,,,,,,,,,,,,,,,,,,,,,,,,,,,,,,,,,,,,,,,,,,,,,,,,,,,,,,,,,,,,,"[2,5,7,3,9,4,1,8,6,6,4]",6,0,6,0,1,,,,,,,,,,,,,,,,,,,,,,,,,,,,,,,,,,,,,,,,,,,,,,,,
,,567b073bb7d79a0005b270bd,2022-09-08_13h22.57.778,CGTgamblingSpanTasks,2022.2.1,Win32,60.04563468,,,,,,,,,,,,,,,,,,,,,,,,,,,,,,,,,,,,,,,,,,,,,,,,,,,,,,,,,,,,,,,,,,,,,,,,,,,,,,,,,,"[2,5,7,3,9,4,1,8,6,6,4]",7,0,7,0,1,,,,,,,,,,,,,,,,,,,,,,,,,,,,,,,,,,,,,,,,,,,,,,,,
,,567b073bb7d79a0005b270bd,2022-09-08_13h22.57.778,CGTgamblingSpanTasks,2022.2.1,Win32,60.04563468,,,,,,,,,,,,,,,,,,,,,,,,,,,,,,,,,,,,,,,,,,,,,,,,,,,,,,,,,,,,,,,,,,,,,,,,,,,,,,,,,,"[2,5,7,3,9,4,1,8,6,6,4]",8,0,8,0,1,,,,,,,,,,,,,,,,,,,,,,,,,,,,,,,,,,,,,,,,,,,,,,,,
,,567b073bb7d79a0005b270bd,2022-09-08_13h22.57.778,CGTgamblingSpanTasks,2022.2.1,Win32,60.04563468,,,,,,,,,,,,,,,,,,,,,,,,,,,,,,,,,,,,,,,,,,,,,,,,,,,,,,,,,,,,,,,,,,,,,,,,,,,,,,,,,,"[2,5,7,3,9,4,1,8,6,6,4]",9,0,9,0,1,,,,,,,,,,,,,,,,,,,,,,,,,,,,,,,,,,,,,,,,,,,,,,,,
,,567b073bb7d79a0005b270bd,2022-09-08_13h22.57.778,CGTgamblingSpanTasks,2022.2.1,Win32,60.04563468,,,,,,,,,,,,,,,,,,,,,,,,,,,,,,,,,,,,,,,,,,,,,,,,,,,,,,,,,,,,,,,,,,,,,,,,,,,,,,,,,,"[2,5,7,3,9,4,1,8,6,6,4]",10,0,10,0,1,,,,,,,,,,,,,,,,,,,,,,,,,,,,,,,,,,,,,,,,,,,,,,,,
,,567b073bb7d79a0005b270bd,2022-09-08_13h22.57.778,CGTgamblingSpanTasks,2022.2.1,Win32,60.04563468,,,,,,,,,,,,,,,,,,,,,,,,,,,,,,,,,,,,,,,,,,,,,,,,,,,,,,,,,,,,,,,0,,,,,,,,,,,,,,,,,,,,,,,,,7239418662,0.068518533,-0.365740741,1,0,0,cont_button,0,9,9,9,1,10,,,,,,,,,,,,,,,,,,,,,,,,,,,,,,,,,,,
,,567b073bb7d79a0005b270bd,2022-09-08_13h22.57.778,CGTgamblingSpanTasks,2022.2.1,Win32,60.04563468,,,,,,,,,,,,,,,,,,,,,,,,,,,,,,,,,,,,,,,,,,,,,,,,,,,,,,,,,,,,,,,,,,,,,,,,,,,,,,,,,,"[9,8,6,2,1,4,3,5,7,7]",0,0,0,0,1,,,,,,,,,,,,,,,,,,,,,,,,,,,,,,,,,,,,,,,,,,,,,,,,
,,567b073bb7d79a0005b270bd,2022-09-08_13h22.57.778,CGTgamblingSpanTasks,2022.2.1,Win32,60.04563468,,,,,,,,,,,,,,,,,,,,,,,,,,,,,,,,,,,,,,,,,,,,,,,,,,,,,,,,,,,,,,,,,,,,,,,,,,,,,,,,,,"[9,8,6,2,1,4,3,5,7,7]",1,0,1,0,1,,,,,,,,,,,,,,,,,,,,,,,,,,,,,,,,,,,,,,,,,,,,,,,,
,,567b073bb7d79a0005b270bd,2022-09-08_13h22.57.778,CGTgamblingSpanTasks,2022.2.1,Win32,60.04563468,,,,,,,,,,,,,,,,,,,,,,,,,,,,,,,,,,,,,,,,,,,,,,,,,,,,,,,,,,,,,,,,,,,,,,,,,,,,,,,,,,"[9,8,6,2,1,4,3,5,7,7]",2,0,2,0,1,,,,,,,,,,,,,,,,,,,,,,,,,,,,,,,,,,,,,,,,,,,,,,,,
,,567b073bb7d79a0005b270bd,2022-09-08_13h22.57.778,CGTgamblingSpanTasks,2022.2.1,Win32,60.04563468,,,,,,,,,,,,,,,,,,,,,,,,,,,,,,,,,,,,,,,,,,,,,,,,,,,,,,,,,,,,,,,,,,,,,,,,,,,,,,,,,,"[9,8,6,2,1,4,3,5,7,7]",3,0,3,0,1,,,,,,,,,,,,,,,,,,,,,,,,,,,,,,,,,,,,,,,,,,,,,,,,
,,567b073bb7d79a0005b270bd,2022-09-08_13h22.57.778,CGTgamblingSpanTasks,2022.2.1,Win32,60.04563468,,,,,,,,,,,,,,,,,,,,,,,,,,,,,,,,,,,,,,,,,,,,,,,,,,,,,,,,,,,,,,,,,,,,,,,,,,,,,,,,,,"[9,8,6,2,1,4,3,5,7,7]",4,0,4,0,1,,,,,,,,,,,,,,,,,,,,,,,,,,,,,,,,,,,,,,,,,,,,,,,,
,,567b073bb7d79a0005b270bd,2022-09-08_13h22.57.778,CGTgamblingSpanTasks,2022.2.1,Win32,60.04563468,,,,,,,,,,,,,,,,,,,,,,,,,,,,,,,,,,,,,,,,,,,,,,,,,,,,,,,,,,,,,,,,,,,,,,,,,,,,,,,,,,"[9,8,6,2,1,4,3,5,7,7]",5,0,5,0,1,,,,,,,,,,,,,,,,,,,,,,,,,,,,,,,,,,,,,,,,,,,,,,,,
,,567b073bb7d79a0005b270bd,2022-09-08_13h22.57.778,CGTgamblingSpanTasks,2022.2.1,Win32,60.04563468,,,,,,,,,,,,,,,,,,,,,,,,,,,,,,,,,,,,,,,,,,,,,,,,,,,,,,,,,,,,,,,,,,,,,,,,,,,,,,,,,,"[9,8,6,2,1,4,3,5,7,7]",6,0,6,0,1,,,,,,,,,,,,,,,,,,,,,,,,,,,,,,,,,,,,,,,,,,,,,,,,
,,567b073bb7d79a0005b270bd,2022-09-08_13h22.57.778,CGTgamblingSpanTasks,2022.2.1,Win32,60.04563468,,,,,,,,,,,,,,,,,,,,,,,,,,,,,,,,,,,,,,,,,,,,,,,,,,,,,,,,,,,,,,,,,,,,,,,,,,,,,,,,,,"[9,8,6,2,1,4,3,5,7,7]",7,0,7,0,1,,,,,,,,,,,,,,,,,,,,,,,,,,,,,,,,,,,,,,,,,,,,,,,,
,,567b073bb7d79a0005b270bd,2022-09-08_13h22.57.778,CGTgamblingSpanTasks,2022.2.1,Win32,60.04563468,,,,,,,,,,,,,,,,,,,,,,,,,,,,,,,,,,,,,,,,,,,,,,,,,,,,,,,,,,,,,,,,,,,,,,,,,,,,,,,,,,"[9,8,6,2,1,4,3,5,7,7]",8,0,8,0,1,,,,,,,,,,,,,,,,,,,,,,,,,,,,,,,,,,,,,,,,,,,,,,,,
,,567b073bb7d79a0005b270bd,2022-09-08_13h22.57.778,CGTgamblingSpanTasks,2022.2.1,Win32,60.04563468,,,,,,,,,,,,,,,,,,,,,,,,,,,,,,,,,,,,,,,,,,,,,,,,,,,,,,,,,,,,,,,,,,,,,,,,,,,,,,,,,,"[9,8,6,2,1,4,3,5,7,7]",9,0,9,0,1,,,,,,,,,,,,,,,,,,,,,,,,,,,,,,,,,,,,,,,,,,,,,,,,
,,567b073bb7d79a0005b270bd,2022-09-08_13h22.57.778,CGTgamblingSpanTasks,2022.2.1,Win32,60.04563468,,,,,,,,,,,,,,,,,,,,,,,,,,,,,,,,,,,,,,,,,,,,,,,,,,,,,,,,,,,,,,,1,,,,,,,,,,,,,,,,,,,,,,,,,9862143577,0.071296339,-0.392592607,1,0,0,cont_button,0,10,10,10,1,11,,,,,,,,,,,,,,,,,,,,,,,,,,,,,,,,,,,
,,567b073bb7d79a0005b270bd,2022-09-08_13h22.57.778,CGTgamblingSpanTasks,2022.2.1,Win32,60.04563468,,,,,,,,,,,,,,,,,,,,,,,,,,,,,,,,,,,,,,,,,,,,,,,,,,,,,,,,,,,,,,,,,,,,,,,,,,,,,,,,,,"[1,2,7,8,5,4,9,6,3,3,8]",0,0,0,0,1,,,,,,,,,,,,,,,,,,,,,,,,,,,,,,,,,,,,,,,,,,,,,,,,
,,567b073bb7d79a0005b270bd,2022-09-08_13h22.57.778,CGTgamblingSpanTasks,2022.2.1,Win32,60.04563468,,,,,,,,,,,,,,,,,,,,,,,,,,,,,,,,,,,,,,,,,,,,,,,,,,,,,,,,,,,,,,,,,,,,,,,,,,,,,,,,,,"[1,2,7,8,5,4,9,6,3,3,8]",1,0,1,0,1,,,,,,,,,,,,,,,,,,,,,,,,,,,,,,,,,,,,,,,,,,,,,,,,
,,567b073bb7d79a0005b270bd,2022-09-08_13h22.57.778,CGTgamblingSpanTasks,2022.2.1,Win32,60.04563468,,,,,,,,,,,,,,,,,,,,,,,,,,,,,,,,,,,,,,,,,,,,,,,,,,,,,,,,,,,,,,,,,,,,,,,,,,,,,,,,,,"[1,2,7,8,5,4,9,6,3,3,8]",2,0,2,0,1,,,,,,,,,,,,,,,,,,,,,,,,,,,,,,,,,,,,,,,,,,,,,,,,
,,567b073bb7d79a0005b270bd,2022-09-08_13h22.57.778,CGTgamblingSpanTasks,2022.2.1,Win32,60.04563468,,,,,,,,,,,,,,,,,,,,,,,,,,,,,,,,,,,,,,,,,,,,,,,,,,,,,,,,,,,,,,,,,,,,,,,,,,,,,,,,,,"[1,2,7,8,5,4,9,6,3,3,8]",3,0,3,0,1,,,,,,,,,,,,,,,,,,,,,,,,,,,,,,,,,,,,,,,,,,,,,,,,
,,567b073bb7d79a0005b270bd,2022-09-08_13h22.57.778,CGTgamblingSpanTasks,2022.2.1,Win32,60.04563468,,,,,,,,,,,,,,,,,,,,,,,,,,,,,,,,,,,,,,,,,,,,,,,,,,,,,,,,,,,,,,,,,,,,,,,,,,,,,,,,,,"[1,2,7,8,5,4,9,6,3,3,8]",4,0,4,0,1,,,,,,,,,,,,,,,,,,,,,,,,,,,,,,,,,,,,,,,,,,,,,,,,
,,567b073bb7d79a0005b270bd,2022-09-08_13h22.57.778,CGTgamblingSpanTasks,2022.2.1,Win32,60.04563468,,,,,,,,,,,,,,,,,,,,,,,,,,,,,,,,,,,,,,,,,,,,,,,,,,,,,,,,,,,,,,,,,,,,,,,,,,,,,,,,,,"[1,2,7,8,5,4,9,6,3,3,8]",5,0,5,0,1,,,,,,,,,,,,,,,,,,,,,,,,,,,,,,,,,,,,,,,,,,,,,,,,
,,567b073bb7d79a0005b270bd,2022-09-08_13h22.57.778,CGTgamblingSpanTasks,2022.2.1,Win32,60.04563468,,,,,,,,,,,,,,,,,,,,,,,,,,,,,,,,,,,,,,,,,,,,,,,,,,,,,,,,,,,,,,,,,,,,,,,,,,,,,,,,,,"[1,2,7,8,5,4,9,6,3,3,8]",6,0,6,0,1,,,,,,,,,,,,,,,,,,,,,,,,,,,,,,,,,,,,,,,,,,,,,,,,
,,567b073bb7d79a0005b270bd,2022-09-08_13h22.57.778,CGTgamblingSpanTasks,2022.2.1,Win32,60.04563468,,,,,,,,,,,,,,,,,,,,,,,,,,,,,,,,,,,,,,,,,,,,,,,,,,,,,,,,,,,,,,,,,,,,,,,,,,,,,,,,,,"[1,2,7,8,5,4,9,6,3,3,8]",7,0,7,0,1,,,,,,,,,,,,,,,,,,,,,,,,,,,,,,,,,,,,,,,,,,,,,,,,
,,567b073bb7d79a0005b270bd,2022-09-08_13h22.57.778,CGTgamblingSpanTasks,2022.2.1,Win32,60.04563468,,,,,,,,,,,,,,,,,,,,,,,,,,,,,,,,,,,,,,,,,,,,,,,,,,,,,,,,,,,,,,,,,,,,,,,,,,,,,,,,,,"[1,2,7,8,5,4,9,6,3,3,8]",8,0,8,0,1,,,,,,,,,,,,,,,,,,,,,,,,,,,,,,,,,,,,,,,,,,,,,,,,
,,567b073bb7d79a0005b270bd,2022-09-08_13h22.57.778,CGTgamblingSpanTasks,2022.2.1,Win32,60.04563468,,,,,,,,,,,,,,,,,,,,,,,,,,,,,,,,,,,,,,,,,,,,,,,,,,,,,,,,,,,,,,,,,,,,,,,,,,,,,,,,,,"[1,2,7,8,5,4,9,6,3,3,8]",9,0,9,0,1,,,,,,,,,,,,,,,,,,,,,,,,,,,,,,,,,,,,,,,,,,,,,,,,
,,567b073bb7d79a0005b270bd,2022-09-08_13h22.57.778,CGTgamblingSpanTasks,2022.2.1,Win32,60.04563468,,,,,,,,,,,,,,,,,,,,,,,,,,,,,,,,,,,,,,,,,,,,,,,,,,,,,,,,,,,,,,,,,,,,,,,,,,,,,,,,,,"[1,2,7,8,5,4,9,6,3,3,8]",10,0,10,0,1,,,,,,,,,,,,,,,,,,,,,,,,,,,,,,,,,,,,,,,,,,,,,,,,
,,567b073bb7d79a0005b270bd,2022-09-08_13h22.57.778,CGTgamblingSpanTasks,2022.2.1,Win32,60.04563468,,,,,,,,,,,,,,,,,,,,,,,,,,,,,,,,,,,,,,,,,,,,,,,,,,,,,,,,,,,,,,,1,,,,,,,,,,,,,,,,,,,,,,,,,12785496338,0.08148151,-0.383333347,1,0,0,cont_button,0,11,11,11,1,12,,,,,,,,,,,,,,,,,,,,,,,,,,,,,,,,,,,
,,567b073bb7d79a0005b270bd,2022-09-08_13h22.57.778,CGTgamblingSpanTasks,2022.2.1,Win32,60.04563468,,,,,,,,,,,,,,,,,,,,,,,,,,,,,,,,,,,,,,,,,,,,,,,,,,,,,,,,,,,,,,,,,,,,,,,,,,,,,,,,,,"[4,3,6,8,1,9,7,2,5,5,6,8]",0,0,0,0,1,,,,,,,,,,,,,,,,,,,,,,,,,,,,,,,,,,,,,,,,,,,,,,,,
,,567b073bb7d79a0005b270bd,2022-09-08_13h22.57.778,CGTgamblingSpanTasks,2022.2.1,Win32,60.04563468,,,,,,,,,,,,,,,,,,,,,,,,,,,,,,,,,,,,,,,,,,,,,,,,,,,,,,,,,,,,,,,,,,,,,,,,,,,,,,,,,,"[4,3,6,8,1,9,7,2,5,5,6,8]",1,0,1,0,1,,,,,,,,,,,,,,,,,,,,,,,,,,,,,,,,,,,,,,,,,,,,,,,,
,,567b073bb7d79a0005b270bd,2022-09-08_13h22.57.778,CGTgamblingSpanTasks,2022.2.1,Win32,60.04563468,,,,,,,,,,,,,,,,,,,,,,,,,,,,,,,,,,,,,,,,,,,,,,,,,,,,,,,,,,,,,,,,,,,,,,,,,,,,,,,,,,"[4,3,6,8,1,9,7,2,5,5,6,8]",2,0,2,0,1,,,,,,,,,,,,,,,,,,,,,,,,,,,,,,,,,,,,,,,,,,,,,,,,
,,567b073bb7d79a0005b270bd,2022-09-08_13h22.57.778,CGTgamblingSpanTasks,2022.2.1,Win32,60.04563468,,,,,,,,,,,,,,,,,,,,,,,,,,,,,,,,,,,,,,,,,,,,,,,,,,,,,,,,,,,,,,,,,,,,,,,,,,,,,,,,,,"[4,3,6,8,1,9,7,2,5,5,6,8]",3,0,3,0,1,,,,,,,,,,,,,,,,,,,,,,,,,,,,,,,,,,,,,,,,,,,,,,,,
,,567b073bb7d79a0005b270bd,2022-09-08_13h22.57.778,CGTgamblingSpanTasks,2022.2.1,Win32,60.04563468,,,,,,,,,,,,,,,,,,,,,,,,,,,,,,,,,,,,,,,,,,,,,,,,,,,,,,,,,,,,,,,,,,,,,,,,,,,,,,,,,,"[4,3,6,8,1,9,7,2,5,5,6,8]",4,0,4,0,1,,,,,,,,,,,,,,,,,,,,,,,,,,,,,,,,,,,,,,,,,,,,,,,,
,,567b073bb7d79a0005b270bd,2022-09-08_13h22.57.778,CGTgamblingSpanTasks,2022.2.1,Win32,60.04563468,,,,,,,,,,,,,,,,,,,,,,,,,,,,,,,,,,,,,,,,,,,,,,,,,,,,,,,,,,,,,,,,,,,,,,,,,,,,,,,,,,"[4,3,6,8,1,9,7,2,5,5,6,8]",5,0,5,0,1,,,,,,,,,,,,,,,,,,,,,,,,,,,,,,,,,,,,,,,,,,,,,,,,
,,567b073bb7d79a0005b270bd,2022-09-08_13h22.57.778,CGTgamblingSpanTasks,2022.2.1,Win32,60.04563468,,,,,,,,,,,,,,,,,,,,,,,,,,,,,,,,,,,,,,,,,,,,,,,,,,,,,,,,,,,,,,,,,,,,,,,,,,,,,,,,,,"[4,3,6,8,1,9,7,2,5,5,6,8]",6,0,6,0,1,,,,,,,,,,,,,,,,,,,,,,,,,,,,,,,,,,,,,,,,,,,,,,,,
,,567b073bb7d79a0005b270bd,2022-09-08_13h22.57.778,CGTgamblingSpanTasks,2022.2.1,Win32,60.04563468,,,,,,,,,,,,,,,,,,,,,,,,,,,,,,,,,,,,,,,,,,,,,,,,,,,,,,,,,,,,,,,,,,,,,,,,,,,,,,,,,,"[4,3,6,8,1,9,7,2,5,5,6,8]",7,0,7,0,1,,,,,,,,,,,,,,,,,,,,,,,,,,,,,,,,,,,,,,,,,,,,,,,,
,,567b073bb7d79a0005b270bd,2022-09-08_13h22.57.778,CGTgamblingSpanTasks,2022.2.1,Win32,60.04563468,,,,,,,,,,,,,,,,,,,,,,,,,,,,,,,,,,,,,,,,,,,,,,,,,,,,,,,,,,,,,,,,,,,,,,,,,,,,,,,,,,"[4,3,6,8,1,9,7,2,5,5,6,8]",8,0,8,0,1,,,,,,,,,,,,,,,,,,,,,,,,,,,,,,,,,,,,,,,,,,,,,,,,
,,567b073bb7d79a0005b270bd,2022-09-08_13h22.57.778,CGTgamblingSpanTasks,2022.2.1,Win32,60.04563468,,,,,,,,,,,,,,,,,,,,,,,,,,,,,,,,,,,,,,,,,,,,,,,,,,,,,,,,,,,,,,,,,,,,,,,,,,,,,,,,,,"[4,3,6,8,1,9,7,2,5,5,6,8]",9,0,9,0,1,,,,,,,,,,,,,,,,,,,,,,,,,,,,,,,,,,,,,,,,,,,,,,,,
,,567b073bb7d79a0005b270bd,2022-09-08_13h22.57.778,CGTgamblingSpanTasks,2022.2.1,Win32,60.04563468,,,,,,,,,,,,,,,,,,,,,,,,,,,,,,,,,,,,,,,,,,,,,,,,,,,,,,,,,,,,,,,,,,,,,,,,,,,,,,,,,,"[4,3,6,8,1,9,7,2,5,5,6,8]",10,0,10,0,1,,,,,,,,,,,,,,,,,,,,,,,,,,,,,,,,,,,,,,,,,,,,,,,,
,,567b073bb7d79a0005b270bd,2022-09-08_13h22.57.778,CGTgamblingSpanTasks,2022.2.1,Win32,60.04563468,,,,,,,,,,,,,,,,,,,,,,,,,,,,,,,,,,,,,,,,,,,,,,,,,,,,,,,,,,,,,,,,,,,,,,,,,,,,,,,,,,"[4,3,6,8,1,9,7,2,5,5,6,8]",11,0,11,0,1,,,,,,,,,,,,,,,,,,,,,,,,,,,,,,,,,,,,,,,,,,,,,,,,
,,567b073bb7d79a0005b270bd,2022-09-08_13h22.57.778,CGTgamblingSpanTasks,2022.2.1,Win32,60.04563468,,,,,,,,,,,,,,,,,,,,,,,,,,,,,,,,,,,,,,,,,,,,,,,,,,,,,,,,,,,,,,,0,,,,,,,,,,,,,,,,,,,,,,,,,43916725868,0.048148191,-0.422222208,1,0,0,cont_button,0,12,12,12,1,13,,,,,,,,,,,,,,,,,,,,,,,,,,,,,,,,,,,
,,567b073bb7d79a0005b270bd,2022-09-08_13h22.57.778,CGTgamblingSpanTasks,2022.2.1,Win32,60.04563468,,,,,,,,,,,,,,,,,,,,,,,,,,,,,,,,,,,,,,,,,,,,,,,,,,,,,,,,,,,,,,,,,,,,,,,,,,,,,,,,,,"[9,1,6,4,3,5,7,2,8,8,2,3]",0,0,0,0,1,,,,,,,,,,,,,,,,,,,,,,,,,,,,,,,,,,,,,,,,,,,,,,,,
,,567b073bb7d79a0005b270bd,2022-09-08_13h22.57.778,CGTgamblingSpanTasks,2022.2.1,Win32,60.04563468,,,,,,,,,,,,,,,,,,,,,,,,,,,,,,,,,,,,,,,,,,,,,,,,,,,,,,,,,,,,,,,,,,,,,,,,,,,,,,,,,,"[9,1,6,4,3,5,7,2,8,8,2,3]",1,0,1,0,1,,,,,,,,,,,,,,,,,,,,,,,,,,,,,,,,,,,,,,,,,,,,,,,,
,,567b073bb7d79a0005b270bd,2022-09-08_13h22.57.778,CGTgamblingSpanTasks,2022.2.1,Win32,60.04563468,,,,,,,,,,,,,,,,,,,,,,,,,,,,,,,,,,,,,,,,,,,,,,,,,,,,,,,,,,,,,,,,,,,,,,,,,,,,,,,,,,"[9,1,6,4,3,5,7,2,8,8,2,3]",2,0,2,0,1,,,,,,,,,,,,,,,,,,,,,,,,,,,,,,,,,,,,,,,,,,,,,,,,
,,567b073bb7d79a0005b270bd,2022-09-08_13h22.57.778,CGTgamblingSpanTasks,2022.2.1,Win32,60.04563468,,,,,,,,,,,,,,,,,,,,,,,,,,,,,,,,,,,,,,,,,,,,,,,,,,,,,,,,,,,,,,,,,,,,,,,,,,,,,,,,,,"[9,1,6,4,3,5,7,2,8,8,2,3]",3,0,3,0,1,,,,,,,,,,,,,,,,,,,,,,,,,,,,,,,,,,,,,,,,,,,,,,,,
,,567b073bb7d79a0005b270bd,2022-09-08_13h22.57.778,CGTgamblingSpanTasks,2022.2.1,Win32,60.04563468,,,,,,,,,,,,,,,,,,,,,,,,,,,,,,,,,,,,,,,,,,,,,,,,,,,,,,,,,,,,,,,,,,,,,,,,,,,,,,,,,,"[9,1,6,4,3,5,7,2,8,8,2,3]",4,0,4,0,1,,,,,,,,,,,,,,,,,,,,,,,,,,,,,,,,,,,,,,,,,,,,,,,,
,,567b073bb7d79a0005b270bd,2022-09-08_13h22.57.778,CGTgamblingSpanTasks,2022.2.1,Win32,60.04563468,,,,,,,,,,,,,,,,,,,,,,,,,,,,,,,,,,,,,,,,,,,,,,,,,,,,,,,,,,,,,,,,,,,,,,,,,,,,,,,,,,"[9,1,6,4,3,5,7,2,8,8,2,3]",5,0,5,0,1,,,,,,,,,,,,,,,,,,,,,,,,,,,,,,,,,,,,,,,,,,,,,,,,
,,567b073bb7d79a0005b270bd,2022-09-08_13h22.57.778,CGTgamblingSpanTasks,2022.2.1,Win32,60.04563468,,,,,,,,,,,,,,,,,,,,,,,,,,,,,,,,,,,,,,,,,,,,,,,,,,,,,,,,,,,,,,,,,,,,,,,,,,,,,,,,,,"[9,1,6,4,3,5,7,2,8,8,2,3]",6,0,6,0,1,,,,,,,,,,,,,,,,,,,,,,,,,,,,,,,,,,,,,,,,,,,,,,,,
,,567b073bb7d79a0005b270bd,2022-09-08_13h22.57.778,CGTgamblingSpanTasks,2022.2.1,Win32,60.04563468,,,,,,,,,,,,,,,,,,,,,,,,,,,,,,,,,,,,,,,,,,,,,,,,,,,,,,,,,,,,,,,,,,,,,,,,,,,,,,,,,,"[9,1,6,4,3,5,7,2,8,8,2,3]",7,0,7,0,1,,,,,,,,,,,,,,,,,,,,,,,,,,,,,,,,,,,,,,,,,,,,,,,,
,,567b073bb7d79a0005b270bd,2022-09-08_13h22.57.778,CGTgamblingSpanTasks,2022.2.1,Win32,60.04563468,,,,,,,,,,,,,,,,,,,,,,,,,,,,,,,,,,,,,,,,,,,,,,,,,,,,,,,,,,,,,,,,,,,,,,,,,,,,,,,,,,"[9,1,6,4,3,5,7,2,8,8,2,3]",8,0,8,0,1,,,,,,,,,,,,,,,,,,,,,,,,,,,,,,,,,,,,,,,,,,,,,,,,
,,567b073bb7d79a0005b270bd,2022-09-08_13h22.57.778,CGTgamblingSpanTasks,2022.2.1,Win32,60.04563468,,,,,,,,,,,,,,,,,,,,,,,,,,,,,,,,,,,,,,,,,,,,,,,,,,,,,,,,,,,,,,,,,,,,,,,,,,,,,,,,,,"[9,1,6,4,3,5,7,2,8,8,2,3]",9,0,9,0,1,,,,,,,,,,,,,,,,,,,,,,,,,,,,,,,,,,,,,,,,,,,,,,,,
,,567b073bb7d79a0005b270bd,2022-09-08_13h22.57.778,CGTgamblingSpanTasks,2022.2.1,Win32,60.04563468,,,,,,,,,,,,,,,,,,,,,,,,,,,,,,,,,,,,,,,,,,,,,,,,,,,,,,,,,,,,,,,,,,,,,,,,,,,,,,,,,,"[9,1,6,4,3,5,7,2,8,8,2,3]",10,0,10,0,1,,,,,,,,,,,,,,,,,,,,,,,,,,,,,,,,,,,,,,,,,,,,,,,,
,,567b073bb7d79a0005b270bd,2022-09-08_13h22.57.778,CGTgamblingSpanTasks,2022.2.1,Win32,60.04563468,,,,,,,,,,,,,,,,,,,,,,,,,,,,,,,,,,,,,,,,,,,,,,,,,,,,,,,,,,,,,,,,,,,,,,,,,,,,,,,,,,"[9,1,6,4,3,5,7,2,8,8,2,3]",11,0,11,0,1,,,,,,,,,,,,,,,,,,,,,,,,,,,,,,,,,,,,,,,,,,,,,,,,
,,567b073bb7d79a0005b270bd,2022-09-08_13h22.57.778,CGTgamblingSpanTasks,2022.2.1,Win32,60.04563468,,,,,,,,,,,,,,,,,,,,,,,,,,,,,,,,,,,,,,,,,,,,,,,,,,,,,,,,,,,,,,,0,,,,,,,,,,,,,,,,,,,,,,,,,916435782286,0.039814843,-0.404629672,1,0,0,cont_button,0,13,13,13,1,14,,,,,,,,,,,,,,,,,,,,,,,,,,,,,,,,,,,
,,567b073bb7d79a0005b270bd,2022-09-08_13h22.57.778,CGTgamblingSpanTasks,2022.2.1,Win32,60.04563468,,,,,,,,,,,,,,,,,,,,,,,,,,,,,,,,,,,,,,,,,,,,,,,,,,,,,,,,,,,,,,,,,,,,,,,,,,,,,,,,,,,,,,,,,,,,,,,,,,,,,return,2.2493,,,,,,,,,,,,,,,,,,,,,,,,,,,,,,,,,
,,567b073bb7d79a0005b270bd,2022-09-08_13h22.57.778,CGTgamblingSpanTasks,2022.2.1,Win32,60.04563468,,,,,,,,,,,,,,,,,,,,,,,,,,,,,,,,,,,,,,,,,,,,,,,,,,,,,,,,,,,,,,,,,,,,,,,,,,,,,,,,,,,,,,,,,,,,,,,,,,,,,,,return,17.5584,,,,,,,,,,,,,,,,,,,,,,,,,,,,,,,
,,567b073bb7d79a0005b270bd,2022-09-08_13h22.57.778,CGTgamblingSpanTasks,2022.2.1,Win32,60.04563468,,,,,,,,,,,,,,,,,,,,,,,,,,,,,,,,,,,,,,,,,,,,,,,,,,,,,,,,,,,,,,,1,,,,,,,,,,,,3,342,24,2,42,,,,,,,,,,,,,,,,,,,,,,,,,,42,0.114814829,-0.398148148,1,0,0,cont_buttonPractice_2,0,0,0,0,1,,,,,,,,,,,,,,,,,,,
,,567b073bb7d79a0005b270bd,2022-09-08_13h22.57.778,CGTgamblingSpanTasks,2022.2.1,Win32,60.04563468,,,,,,,,,,,,,,,,,,,,,,,,,,,,,,,,,,,,,,,,,,,,,,,,,,,,,,,,,,,,,,,1,,,,,,,,,,,,3,937,73,2,37,,,,,,,,,,,,,,,,,,,,,,,,,,37,0.094444487,-0.392592607,1,0,0,cont_buttonPractice_2,0,1,1,1,1,,,,,,,,,,,,,,,,,,,
,,567b073bb7d79a0005b270bd,2022-09-08_13h22.57.778,CGTgamblingSpanTasks,2022.2.1,Win32,60.04563468,,,,,,,,,,,,,,,,,,,,,,,,,,,,,,,,,,,,,,,,,,,,,,,,,,,,,,,,,,,,,,,,,,,,,,,,,,,,,,,,,,,,,,,,,,,,,,,,,,,,,,,,,,,,,,,,,,,,,return,2.4648,,,,,,,,,,,,,,,,,
,,567b073bb7d79a0005b270bd,2022-09-08_13h22.57.778,CGTgamblingSpanTasks,2022.2.1,Win32,60.04563468,,,,,,,,,,,,,,,,,,,,,,,,,,,,,,,,,,,,,,,,,,,,,,,,,,,,,,,,,,,,,,,,,,,,,,,,,,,,,,,,,,"[5,3]",,,,,,,,,,,,,,,,,,,,,,,,,,,,,,,,,,,,,0,0,0,0,1,,,,,,,,,,,,
,,567b073bb7d79a0005b270bd,2022-09-08_13h22.57.778,CGTgamblingSpanTasks,2022.2.1,Win32,60.04563468,,,,,,,,,,,,,,,,,,,,,,,,,,,,,,,,,,,,,,,,,,,,,,,,,,,,,,,,,,,,,,,,,,,,,,,,,,,,,,,,,,"[5,3]",,,,,,,,,,,,,,,,,,,,,,,,,,,,,,,,,,,,,1,0,1,0,1,,,,,,,,,,,,
,,567b073bb7d79a0005b270bd,2022-09-08_13h22.57.778,CGTgamblingSpanTasks,2022.2.1,Win32,60.04563468,,,,,,,,,,,,,,,,,,,,,,,,,,,,,,,,,,,,,,,,,,,,,,,,,,,,,,,,,,,,,,,1,,,,,,,,,,,,,,,,,,,,,,,,,,,,,,,,,,,,,1,,,,,,,,,,,,,,,,,,,,,,,,35,0.040740755,-0.383333347,1,0,0,cont_buttonBS,0,0,0,0,1
,,567b073bb7d79a0005b270bd,2022-09-08_13h22.57.778,CGTgamblingSpanTasks,2022.2.1,Win32,60.04563468,,,,,,,,,,,,,,,,,,,,,,,,,,,,,,,,,,,,,,,,,,,,,,,,,,,,,,,,,,,,,,,,,,,,,,,,,,,,,,,,,,"[9,8,5]",,,,,,,,,,,,,,,,,,,,,,,,,,,,,,,,,,,,,0,0,0,0,1,,,,,,,,,,,,
,,567b073bb7d79a0005b270bd,2022-09-08_13h22.57.778,CGTgamblingSpanTasks,2022.2.1,Win32,60.04563468,,,,,,,,,,,,,,,,,,,,,,,,,,,,,,,,,,,,,,,,,,,,,,,,,,,,,,,,,,,,,,,,,,,,,,,,,,,,,,,,,,"[9,8,5]",,,,,,,,,,,,,,,,,,,,,,,,,,,,,,,,,,,,,1,0,1,0,1,,,,,,,,,,,,
,,567b073bb7d79a0005b270bd,2022-09-08_13h22.57.778,CGTgamblingSpanTasks,2022.2.1,Win32,60.04563468,,,,,,,,,,,,,,,,,,,,,,,,,,,,,,,,,,,,,,,,,,,,,,,,,,,,,,,,,,,,,,,,,,,,,,,,,,,,,,,,,,"[9,8,5]",,,,,,,,,,,,,,,,,,,,,,,,,,,,,,,,,,,,,2,0,2,0,1,,,,,,,,,,,,
,,567b073bb7d79a0005b270bd,2022-09-08_13h22.57.778,CGTgamblingSpanTasks,2022.2.1,Win32,60.04563468,,,,,,,,,,,,,,,,,,,,,,,,,,,,,,,,,,,,,,,,,,,,,,,,,,,,,,,,,,,,,,,1,,,,,,,,,,,,,,,,,,,,,,,,,,,,,,,,,,,,,2,,,,,,,,,,,,,,,,,,,,,,,,589,0.061111097,-0.372222265,1,0,0,cont_buttonBS,0,1,1,1,1
,,567b073bb7d79a0005b270bd,2022-09-08_13h22.57.778,CGTgamblingSpanTasks,2022.2.1,Win32,60.04563468,,,,,,,,,,,,,,,,,,,,,,,,,,,,,,,,,,,,,,,,,,,,,,,,,,,,,,,,,,,,,,,,,,,,,,,,,,,,,,,,,,"[7,6,9,8]",,,,,,,,,,,,,,,,,,,,,,,,,,,,,,,,,,,,,0,0,0,0,1,,,,,,,,,,,,
,,567b073bb7d79a0005b270bd,2022-09-08_13h22.57.778,CGTgamblingSpanTasks,2022.2.1,Win32,60.04563468,,,,,,,,,,,,,,,,,,,,,,,,,,,,,,,,,,,,,,,,,,,,,,,,,,,,,,,,,,,,,,,,,,,,,,,,,,,,,,,,,,"[7,6,9,8]",,,,,,,,,,,,,,,,,,,,,,,,,,,,,,,,,,,,,1,0,1,0,1,,,,,,,,,,,,
,,567b073bb7d79a0005b270bd,2022-09-08_13h22.57.778,CGTgamblingSpanTasks,2022.2.1,Win32,60.04563468,,,,,,,,,,,,,,,,,,,,,,,,,,,,,,,,,,,,,,,,,,,,,,,,,,,,,,,,,,,,,,,,,,,,,,,,,,,,,,,,,,"[7,6,9,8]",,,,,,,,,,,,,,,,,,,,,,,,,,,,,,,,,,,,,2,0,2,0,1,,,,,,,,,,,,
,,567b073bb7d79a0005b270bd,2022-09-08_13h22.57.778,CGTgamblingSpanTasks,2022.2.1,Win32,60.04563468,,,,,,,,,,,,,,,,,,,,,,,,,,,,,,,,,,,,,,,,,,,,,,,,,,,,,,,,,,,,,,,,,,,,,,,,,,,,,,,,,,"[7,6,9,8]",,,,,,,,,,,,,,,,,,,,,,,,,,,,,,,,,,,,,3,0,3,0,1,,,,,,,,,,,,
,,567b073bb7d79a0005b270bd,2022-09-08_13h22.57.778,CGTgamblingSpanTasks,2022.2.1,Win32,60.04563468,,,,,,,,,,,,,,,,,,,,,,,,,,,,,,,,,,,,,,,,,,,,,,,,,,,,,,,,,,,,,,,1,,,,,,,,,,,,,,,,,,,,,,,,,,,,,,,,,,,,,3,,,,,,,,,,,,,,,,,,,,,,,,8967,0.07685188,-0.369444459,1,0,0,cont_buttonBS,0,2,2,2,1
,,567b073bb7d79a0005b270bd,2022-09-08_13h22.57.778,CGTgamblingSpanTasks,2022.2.1,Win32,60.04563468,,,,,,,,,,,,,,,,,,,,,,,,,,,,,,,,,,,,,,,,,,,,,,,,,,,,,,,,,,,,,,,,,,,,,,,,,,,,,,,,,,"[6,8,4,1,5]",,,,,,,,,,,,,,,,,,,,,,,,,,,,,,,,,,,,,0,0,0,0,1,,,,,,,,,,,,
,,567b073bb7d79a0005b270bd,2022-09-08_13h22.57.778,CGTgamblingSpanTasks,2022.2.1,Win32,60.04563468,,,,,,,,,,,,,,,,,,,,,,,,,,,,,,,,,,,,,,,,,,,,,,,,,,,,,,,,,,,,,,,,,,,,,,,,,,,,,,,,,,"[6,8,4,1,5]",,,,,,,,,,,,,,,,,,,,,,,,,,,,,,,,,,,,,1,0,1,0,1,,,,,,,,,,,,
,,567b073bb7d79a0005b270bd,2022-09-08_13h22.57.778,CGTgamblingSpanTasks,2022.2.1,Win32,60.04563468,,,,,,,,,,,,,,,,,,,,,,,,,,,,,,,,,,,,,,,,,,,,,,,,,,,,,,,,,,,,,,,,,,,,,,,,,,,,,,,,,,"[6,8,4,1,5]",,,,,,,,,,,,,,,,,,,,,,,,,,,,,,,,,,,,,2,0,2,0,1,,,,,,,,,,,,
,,567b073bb7d79a0005b270bd,2022-09-08_13h22.57.778,CGTgamblingSpanTasks,2022.2.1,Win32,60.04563468,,,,,,,,,,,,,,,,,,,,,,,,,,,,,,,,,,,,,,,,,,,,,,,,,,,,,,,,,,,,,,,,,,,,,,,,,,,,,,,,,,"[6,8,4,1,5]",,,,,,,,,,,,,,,,,,,,,,,,,,,,,,,,,,,,,3,0,3,0,1,,,,,,,,,,,,
,,567b073bb7d79a0005b270bd,2022-09-08_13h22.57.778,CGTgamblingSpanTasks,2022.2.1,Win32,60.04563468,,,,,,,,,,,,,,,,,,,,,,,,,,,,,,,,,,,,,,,,,,,,,,,,,,,,,,,,,,,,,,,,,,,,,,,,,,,,,,,,,,"[6,8,4,1,5]",,,,,,,,,,,,,,,,,,,,,,,,,,,,,,,,,,,,,4,0,4,0,1,,,,,,,,,,,,
,,567b073bb7d79a0005b270bd,2022-09-08_13h22.57.778,CGTgamblingSpanTasks,2022.2.1,Win32,60.04563468,,,,,,,,,,,,,,,,,,,,,,,,,,,,,,,,,,,,,,,,,,,,,,,,,,,,,,,,,,,,,,,1,,,,,,,,,,,,,,,,,,,,,,,,,,,,,,,,,,,,,4,,,,,,,,,,,,,,,,,,,,,,,,51486,0.104629658,-0.388888889,1,0,0,cont_buttonBS,0,3,3,3,1
,,567b073bb7d79a0005b270bd,2022-09-08_13h22.57.778,CGTgamblingSpanTasks,2022.2.1,Win32,60.04563468,,,,,,,,,,,,,,,,,,,,,,,,,,,,,,,,,,,,,,,,,,,,,,,,,,,,,,,,,,,,,,,,,,,,,,,,,,,,,,,,,,"[6,4,7,9,2,3]",,,,,,,,,,,,,,,,,,,,,,,,,,,,,,,,,,,,,0,0,0,0,1,,,,,,,,,,,,
