initITIstatic,initITIdynamic,participant,date,expName,psychopyVersion,OS,frameRate,inst1.keys,inst1.rt,startPracResp.keys,startPracResp.rt,choice1.keys,choice1.rt,outcome,extraITI,trials.thisRepN,trials.thisTrialN,trials.thisN,trials.thisIndex,trials.ran,riskyGain,riskyLoss,alternative,isi,iti,loc,postPractResp.keys,postPractResp.rt,realloc,realChoice.keys,realChoice.rt,outcomes,choices,actualITI,init ITI,staticRDM.thisRepN,staticRDM.thisTrialN,staticRDM.thisN,staticRDM.thisIndex,staticRDM.ran,riskyoption1,riskyoption2,safeoption,ischecktrial,dynamicChoiceSetName,dynamicChoiceSetPath,bestRho,bestMu,trials_2.thisRepN,trials_2.thisTrialN,trials_2.thisN,trials_2.thisIndex,trials_2.ran,key_resp.keys,key_resp.rt,dynamicRDM.thisRepN,dynamicRDM.thisTrialN,dynamicRDM.thisN,dynamicRDM.thisIndex,dynamicRDM.ran,choiceP,easy0difficult1,stopBreak.keys,stopBreak.rt,movealong.keys,movealong.rt,startPractice.keys,startPractice.rt,textboxPractice.text,correct,mousePractice.x,mousePractice.y,mousePractice.leftButton,mousePractice.midButton,mousePractice.rightButton,mousePractice.clicked_name,trialFSPractice.thisRepN,trialFSPractice.thisTrialN,trialFSPractice.thisN,trialFSPractice.thisIndex,trialFSPractice.ran,digitSpanForward,digits,digitsReverse,digitSpanReverse,digitsReverseCorrAnswer,startFSreal.keys,startFSreal.rt,digitsForTrial,digitLoop.thisRepN,digitLoop.thisTrialN,digitLoop.thisN,digitLoop.thisIndex,digitLoop.ran,textbox.text,mouse_3.x,mouse_3.y,mouse_3.leftButton,mouse_3.midButton,mouse_3.rightButton,mouse_3.clicked_name,trialsFS.thisRepN,trialsFS.thisTrialN,trialsFS.thisN,trialsFS.thisIndex,trialsFS.ran,trialNumber,moveToBS.keys,moveToBS.rt,startBSprac.keys,startBSprac.rt,textboxPractice_2.text,mousePractice_2.x,mousePractice_2.y,mousePractice_2.leftButton,mousePractice_2.midButton,mousePractice_2.rightButton,mousePractice_2.clicked_name,trialsPracticeBS.thisRepN,trialsPracticeBS.thisTrialN,trialsPracticeBS.thisN,trialsPracticeBS.thisIndex,trialsPracticeBS.ran,startBSreal.keys,startBSreal.rt,digitLoopBS.thisRepN,digitLoopBS.thisTrialN,digitLoopBS.thisN,digitLoopBS.thisIndex,digitLoopBS.ran,textboxBS.text,mouseBS.x,mouseBS.y,mouseBS.leftButton,mouseBS.midButton,mouseBS.rightButton,mouseBS.clicked_name,trialsBS.thisRepN,trialsBS.thisTrialN,trialsBS.thisN,trialsBS.thisIndex,trialsBS.ran
"[1.5,1,1,1.5,1,1,1.5,1.5,1,1.5,1,1,1,1.5,1.5,1.5,1.5,1.5,1,1.5,1,1,1.5,1.5,1.5,1,1,1,1,1,1.5,1,1.5,1.5,1,1.5,1,1.5,1.5,1,1,1,1.5,1.5,1.5,1,1.5,1.5,1,1]","[1,1,1.5,1.5,1.5,1,1,1,1,1,1.5,1.5,1,1.5,1,1.5,1,1,1.5,1,1.5,1.5,1.5,1,1,1.5,1.5,1.5,1.5,1,1.5,1.5,1.5,1,1,1.5,1,1,1.5,1,1,1,1.5,1.5,1,1,1,1,1,1,1,1.5,1,1.5,1,1.5,1,1.5,1.5,1.5,1,1,1,1.5,1,1.5,1.5,1.5,1.5,1,1.5,1.5,1.5,1.5,1,1,1.5,1,1.5,1,1,1.5,1.5,1.5,1.5,1.5,1,1,1.5,1,1.5,1.5,1,1.5,1,1.5,1.5,1.5,1.5,1,1,1,1,1,1,1,1,1,1.5,1.5,1,1,1.5,1.5,1,1.5,1.5,1.5,1,1.5]",63039dbefda87c47a91fec04,2022-09-08_13h13.09.282,CGTgamblingSpanTasks,2022.2.1,Win32,60.29181237,,,,,,,,,,,,,,,,,,,,,,,,,,,,,,,,,,,,,,,,,,,,,,,,,,,,,,,,,,,,,,,,,,,,,,,,,,,,,,,,,,,,,,,,,,,,,,,,,,,,,,,,,,,,,,,,,,,,,,,,,,,,,,,,,,,,,,,
,,63039dbefda87c47a91fec04,2022-09-08_13h13.09.282,CGTgamblingSpanTasks,2022.2.1,Win32,60.29181237,return,18.5905,,,,,,,,,,,,,,,,,,,,,,,,,,,,,,,,,,,,,,,,,,,,,,,,,,,,,,,,,,,,,,,,,,,,,,,,,,,,,,,,,,,,,,,,,,,,,,,,,,,,,,,,,,,,,,,,,,,,,,,,,,,,,,,,,,,,,
,,63039dbefda87c47a91fec04,2022-09-08_13h13.09.282,CGTgamblingSpanTasks,2022.2.1,Win32,60.29181237,,,v,8.5089,,,,,,,,,,,,,,,,,,,,,,,,,,,,,,,,,,,,,,,,,,,,,,,,,,,,,,,,,,,,,,,,,,,,,,,,,,,,,,,,,,,,,,,,,,,,,,,,,,,,,,,,,,,,,,,,,,,,,,,,,,,,,,,,,,,
,,63039dbefda87c47a91fec04,2022-09-08_13h13.09.282,CGTgamblingSpanTasks,2022.2.1,Win32,60.29181237,,,,,v,1.11,0,2.89,0,0,0,0,1,18.23,0,9.45,2,1,1,,,,,,,,,,,,,,,,,,,,,,,,,,,,,,,,,,,,,,,,,,,,,,,,,,,,,,,,,,,,,,,,,,,,,,,,,,,,,,,,,,,,,,,,,,,,,,,,,,,,,,,,,,,,,,,,,,,,
,,63039dbefda87c47a91fec04,2022-09-08_13h13.09.282,CGTgamblingSpanTasks,2022.2.1,Win32,60.29181237,,,,,n,0.6347,35.16,3.3653,0,1,1,1,1,53.27,0,35.16,1,1.5,1,,,,,,,,,,,,,,,,,,,,,,,,,,,,,,,,,,,,,,,,,,,,,,,,,,,,,,,,,,,,,,,,,,,,,,,,,,,,,,,,,,,,,,,,,,,,,,,,,,,,,,,,,,,,,,,,,,,,
,,63039dbefda87c47a91fec04,2022-09-08_13h13.09.282,CGTgamblingSpanTasks,2022.2.1,Win32,60.29181237,,,,,v,1.7236,1.15,2.2764,0,2,2,2,1,8.27,0,1.15,1,1.5,2,,,,,,,,,,,,,,,,,,,,,,,,,,,,,,,,,,,,,,,,,,,,,,,,,,,,,,,,,,,,,,,,,,,,,,,,,,,,,,,,,,,,,,,,,,,,,,,,,,,,,,,,,,,,,,,,,,,,
,,63039dbefda87c47a91fec04,2022-09-08_13h13.09.282,CGTgamblingSpanTasks,2022.2.1,Win32,60.29181237,,,,,n,0.9156,40.41,3.0844,0,3,3,3,1,45.88,0,40.41,3,1,1,,,,,,,,,,,,,,,,,,,,,,,,,,,,,,,,,,,,,,,,,,,,,,,,,,,,,,,,,,,,,,,,,,,,,,,,,,,,,,,,,,,,,,,,,,,,,,,,,,,,,,,,,,,,,,,,,,,,
,,63039dbefda87c47a91fec04,2022-09-08_13h13.09.282,CGTgamblingSpanTasks,2022.2.1,Win32,60.29181237,,,,,v,1.0602,11.96,2.9398,0,4,4,4,1,21.56,0,11.96,1,1.5,2,,,,,,,,,,,,,,,,,,,,,,,,,,,,,,,,,,,,,,,,,,,,,,,,,,,,,,,,,,,,,,,,,,,,,,,,,,,,,,,,,,,,,,,,,,,,,,,,,,,,,,,,,,,,,,,,,,,,
,,63039dbefda87c47a91fec04,2022-09-08_13h13.09.282,CGTgamblingSpanTasks,2022.2.1,Win32,60.29181237,,,,,,,,,,,,,,,,,,,,n,2.5188,,,,,,,,,,,,,,,,,,,,,,,,,,,,,,,,,,,,,,,,,,,,,,,,,,,,,,,,,,,,,,,,,,,,,,,,,,,,,,,,,,,,,,,,,,,,,,,,,,,,,,,,,,,,,,,,,,
,,63039dbefda87c47a91fec04,2022-09-08_13h13.09.282,CGTgamblingSpanTasks,2022.2.1,Win32,60.29181237,,,,,,,,3.2159,,,,,,,,,,,,,,2,v,0.7841,6.51,0,4.7159,1.5,0,0,0,5,1,22.97,0,6.51,0,,,,,,,,,,,,,,,,,,,,,,,,,,,,,,,,,,,,,,,,,,,,,,,,,,,,,,,,,,,,,,,,,,,,,,,,,,,,,,,,,,,,,,,,,,,,,,,,,,
,,63039dbefda87c47a91fec04,2022-09-08_13h13.09.282,CGTgamblingSpanTasks,2022.2.1,Win32,60.29181237,,,,,,,,2.7666,,,,,,,,,,,,,,2,v,1.2334,9.03,0,3.7666,1,0,1,1,19,1,17.94,0,9.03,0,,,,,,,,,,,,,,,,,,,,,,,,,,,,,,,,,,,,,,,,,,,,,,,,,,,,,,,,,,,,,,,,,,,,,,,,,,,,,,,,,,,,,,,,,,,,,,,,,,
,,63039dbefda87c47a91fec04,2022-09-08_13h13.09.282,CGTgamblingSpanTasks,2022.2.1,Win32,60.29181237,,,,,,,,2.8489,,,,,,,,,,,,,,2,v,1.1511,3.13,0,3.8489,1,0,2,2,47,1,0,0,3.13,1,,,,,,,,,,,,,,,,,,,,,,,,,,,,,,,,,,,,,,,,,,,,,,,,,,,,,,,,,,,,,,,,,,,,,,,,,,,,,,,,,,,,,,,,,,,,,,,,,,
,,63039dbefda87c47a91fec04,2022-09-08_13h13.09.282,CGTgamblingSpanTasks,2022.2.1,Win32,60.29181237,,,,,,,,3.016,,,,,,,,,,,,,,2,n,0.984,0,1,4.516,1.5,0,3,3,11,1,19.86,0,8.07,0,,,,,,,,,,,,,,,,,,,,,,,,,,,,,,,,,,,,,,,,,,,,,,,,,,,,,,,,,,,,,,,,,,,,,,,,,,,,,,,,,,,,,,,,,,,,,,,,,,
,,63039dbefda87c47a91fec04,2022-09-08_13h13.09.282,CGTgamblingSpanTasks,2022.2.1,Win32,60.29181237,,,,,,,,2.8995,,,,,,,,,,,,,,2,n,1.1005,0,1,3.8995,1,0,4,4,41,1,14.26,0,0,1,,,,,,,,,,,,,,,,,,,,,,,,,,,,,,,,,,,,,,,,,,,,,,,,,,,,,,,,,,,,,,,,,,,,,,,,,,,,,,,,,,,,,,,,,,,,,,,,,,
,,63039dbefda87c47a91fec04,2022-09-08_13h13.09.282,CGTgamblingSpanTasks,2022.2.1,Win32,60.29181237,,,,,,,,2.8978,,,,,,,,,,,,,,2,v,1.1022,6.19,0,3.8978,1,0,5,5,22,1,11.62,0,6.19,0,,,,,,,,,,,,,,,,,,,,,,,,,,,,,,,,,,,,,,,,,,,,,,,,,,,,,,,,,,,,,,,,,,,,,,,,,,,,,,,,,,,,,,,,,,,,,,,,,,
,,63039dbefda87c47a91fec04,2022-09-08_13h13.09.282,CGTgamblingSpanTasks,2022.2.1,Win32,60.29181237,,,,,,,,3.0489,,,,,,,,,,,,,,2,v,0.9511,6.94,0,4.5489,1.5,0,6,6,38,1,10.12,0,6.94,0,,,,,,,,,,,,,,,,,,,,,,,,,,,,,,,,,,,,,,,,,,,,,,,,,,,,,,,,,,,,,,,,,,,,,,,,,,,,,,,,,,,,,,,,,,,,,,,,,,
,,63039dbefda87c47a91fec04,2022-09-08_13h13.09.282,CGTgamblingSpanTasks,2022.2.1,Win32,60.29181237,,,,,,,,3.1114,,,,,,,,,,,,,,2,n,0.8886,15.47,1,4.6114,1.5,0,7,7,35,1,15.47,0,10.27,0,,,,,,,,,,,,,,,,,,,,,,,,,,,,,,,,,,,,,,,,,,,,,,,,,,,,,,,,,,,,,,,,,,,,,,,,,,,,,,,,,,,,,,,,,,,,,,,,,,
,,63039dbefda87c47a91fec04,2022-09-08_13h13.09.282,CGTgamblingSpanTasks,2022.2.1,Win32,60.29181237,,,,,,,,3.2493,,,,,,,,,,,,,,2,v,0.7507,8.61,0,4.2493,1,0,8,8,15,1,18.77,0,8.61,0,,,,,,,,,,,,,,,,,,,,,,,,,,,,,,,,,,,,,,,,,,,,,,,,,,,,,,,,,,,,,,,,,,,,,,,,,,,,,,,,,,,,,,,,,,,,,,,,,,
,,63039dbefda87c47a91fec04,2022-09-08_13h13.09.282,CGTgamblingSpanTasks,2022.2.1,Win32,60.29181237,,,,,,,,2.9303,,,,,,,,,,,,,,1,n,1.0697,10.15,0,4.4303,1.5,0,9,9,33,1,15.7,0,10.15,0,,,,,,,,,,,,,,,,,,,,,,,,,,,,,,,,,,,,,,,,,,,,,,,,,,,,,,,,,,,,,,,,,,,,,,,,,,,,,,,,,,,,,,,,,,,,,,,,,,
,,63039dbefda87c47a91fec04,2022-09-08_13h13.09.282,CGTgamblingSpanTasks,2022.2.1,Win32,60.29181237,,,,,,,,3.1301,,,,,,,,,,,,,,2,v,0.8699,5.82,0,4.1301,1,0,10,10,16,1,12.36,0,5.82,0,,,,,,,,,,,,,,,,,,,,,,,,,,,,,,,,,,,,,,,,,,,,,,,,,,,,,,,,,,,,,,,,,,,,,,,,,,,,,,,,,,,,,,,,,,,,,,,,,,
,,63039dbefda87c47a91fec04,2022-09-08_13h13.09.282,CGTgamblingSpanTasks,2022.2.1,Win32,60.29181237,,,,,,,,3.014,,,,,,,,,,,,,,1,n,0.986,10.37,0,4.014,1,0,11,11,37,1,15.27,0,10.37,0,,,,,,,,,,,,,,,,,,,,,,,,,,,,,,,,,,,,,,,,,,,,,,,,,,,,,,,,,,,,,,,,,,,,,,,,,,,,,,,,,,,,,,,,,,,,,,,,,,
,,63039dbefda87c47a91fec04,2022-09-08_13h13.09.282,CGTgamblingSpanTasks,2022.2.1,Win32,60.29181237,,,,,,,,2.9922,,,,,,,,,,,,,,1,n,1.0078,5.27,0,3.9922,1,0,12,12,10,1,13.45,0,5.27,0,,,,,,,,,,,,,,,,,,,,,,,,,,,,,,,,,,,,,,,,,,,,,,,,,,,,,,,,,,,,,,,,,,,,,,,,,,,,,,,,,,,,,,,,,,,,,,,,,,
,,63039dbefda87c47a91fec04,2022-09-08_13h13.09.282,CGTgamblingSpanTasks,2022.2.1,Win32,60.29181237,,,,,,,,3.1504,,,,,,,,,,,,,,2,v,0.8496,5.48,0,4.6504,1.5,0,13,13,12,1,13.04,0,5.48,0,,,,,,,,,,,,,,,,,,,,,,,,,,,,,,,,,,,,,,,,,,,,,,,,,,,,,,,,,,,,,,,,,,,,,,,,,,,,,,,,,,,,,,,,,,,,,,,,,,
,,63039dbefda87c47a91fec04,2022-09-08_13h13.09.282,CGTgamblingSpanTasks,2022.2.1,Win32,60.29181237,,,,,,,,2.8844,,,,,,,,,,,,,,2,n,1.1156,19.86,1,4.3844,1.5,0,14,14,42,1,19.86,0,0,1,,,,,,,,,,,,,,,,,,,,,,,,,,,,,,,,,,,,,,,,,,,,,,,,,,,,,,,,,,,,,,,,,,,,,,,,,,,,,,,,,,,,,,,,,,,,,,,,,,
,,63039dbefda87c47a91fec04,2022-09-08_13h13.09.282,CGTgamblingSpanTasks,2022.2.1,Win32,60.29181237,,,,,,,,3.2173,,,,,,,,,,,,,,1,n,0.7827,10.02,0,4.7173,1.5,0,15,15,31,1,15.96,0,10.02,0,,,,,,,,,,,,,,,,,,,,,,,,,,,,,,,,,,,,,,,,,,,,,,,,,,,,,,,,,,,,,,,,,,,,,,,,,,,,,,,,,,,,,,,,,,,,,,,,,,
,,63039dbefda87c47a91fec04,2022-09-08_13h13.09.282,CGTgamblingSpanTasks,2022.2.1,Win32,60.29181237,,,,,,,,3.3554,,,,,,,,,,,,,,1,n,0.6446,9.7,0,4.8554,1.5,0,16,16,27,1,16.6,0,9.7,0,,,,,,,,,,,,,,,,,,,,,,,,,,,,,,,,,,,,,,,,,,,,,,,,,,,,,,,,,,,,,,,,,,,,,,,,,,,,,,,,,,,,,,,,,,,,,,,,,,
,,63039dbefda87c47a91fec04,2022-09-08_13h13.09.282,CGTgamblingSpanTasks,2022.2.1,Win32,60.29181237,,,,,,,,3.2419,,,,,,,,,,,,,,2,v,0.7581,5.96,0,4.7419,1.5,0,17,17,18,1,12.08,0,5.96,0,,,,,,,,,,,,,,,,,,,,,,,,,,,,,,,,,,,,,,,,,,,,,,,,,,,,,,,,,,,,,,,,,,,,,,,,,,,,,,,,,,,,,,,,,,,,,,,,,,
,,63039dbefda87c47a91fec04,2022-09-08_13h13.09.282,CGTgamblingSpanTasks,2022.2.1,Win32,60.29181237,,,,,,,,3.0169,,,,,,,,,,,,,,2,n,0.9831,0,1,4.0169,1,0,18,18,40,1,10.35,0,0,1,,,,,,,,,,,,,,,,,,,,,,,,,,,,,,,,,,,,,,,,,,,,,,,,,,,,,,,,,,,,,,,,,,,,,,,,,,,,,,,,,,,,,,,,,,,,,,,,,,
,,63039dbefda87c47a91fec04,2022-09-08_13h13.09.282,CGTgamblingSpanTasks,2022.2.1,Win32,60.29181237,,,,,,,,3.4144,,,,,,,,,,,,,,2,v,0.5856,6.99,0,4.9144,1.5,0,19,19,43,1,16.11,6.99,6.99,1,,,,,,,,,,,,,,,,,,,,,,,,,,,,,,,,,,,,,,,,,,,,,,,,,,,,,,,,,,,,,,,,,,,,,,,,,,,,,,,,,,,,,,,,,,,,,,,,,,
,,63039dbefda87c47a91fec04,2022-09-08_13h13.09.282,CGTgamblingSpanTasks,2022.2.1,Win32,60.29181237,,,,,,,,2.9137,,,,,,,,,,,,,,2,n,1.0863,17.59,1,3.9137,1,0,20,20,21,1,17.59,0,9.2,0,,,,,,,,,,,,,,,,,,,,,,,,,,,,,,,,,,,,,,,,,,,,,,,,,,,,,,,,,,,,,,,,,,,,,,,,,,,,,,,,,,,,,,,,,,,,,,,,,,
,,63039dbefda87c47a91fec04,2022-09-08_13h13.09.282,CGTgamblingSpanTasks,2022.2.1,Win32,60.29181237,,,,,,,,2.9679,,,,,,,,,,,,,,2,n,1.0321,0,1,3.9679,1,0,21,21,49,1,6.79,0,9.92,1,,,,,,,,,,,,,,,,,,,,,,,,,,,,,,,,,,,,,,,,,,,,,,,,,,,,,,,,,,,,,,,,,,,,,,,,,,,,,,,,,,,,,,,,,,,,,,,,,,
,,63039dbefda87c47a91fec04,2022-09-08_13h13.09.282,CGTgamblingSpanTasks,2022.2.1,Win32,60.29181237,,,,,,,,3.0782,,,,,,,,,,,,,,1,n,0.9218,7.55,0,4.5782,1.5,0,22,22,45,1,0,0,7.55,1,,,,,,,,,,,,,,,,,,,,,,,,,,,,,,,,,,,,,,,,,,,,,,,,,,,,,,,,,,,,,,,,,,,,,,,,,,,,,,,,,,,,,,,,,,,,,,,,,,
,,63039dbefda87c47a91fec04,2022-09-08_13h13.09.282,CGTgamblingSpanTasks,2022.2.1,Win32,60.29181237,,,,,,,,2.9492,,,,,,,,,,,,,,1,v,1.0508,0,1,4.4492,1.5,0,23,23,14,1,12.68,0,5.66,0,,,,,,,,,,,,,,,,,,,,,,,,,,,,,,,,,,,,,,,,,,,,,,,,,,,,,,,,,,,,,,,,,,,,,,,,,,,,,,,,,,,,,,,,,,,,,,,,,,
,,63039dbefda87c47a91fec04,2022-09-08_13h13.09.282,CGTgamblingSpanTasks,2022.2.1,Win32,60.29181237,,,,,,,,2.9706,,,,,,,,,,,,,,1,v,1.0294,13.94,1,4.4706,1.5,0,24,24,8,1,13.94,0,5.03,0,,,,,,,,,,,,,,,,,,,,,,,,,,,,,,,,,,,,,,,,,,,,,,,,,,,,,,,,,,,,,,,,,,,,,,,,,,,,,,,,,,,,,,,,,,,,,,,,,,
,,63039dbefda87c47a91fec04,2022-09-08_13h13.09.282,CGTgamblingSpanTasks,2022.2.1,Win32,60.29181237,,,,,,,,3.1825,,,,,,,,,,,,,,1,v,0.8175,0,1,4.1825,1,0,25,25,9,1,20.53,0,7.73,0,,,,,,,,,,,,,,,,,,,,,,,,,,,,,,,,,,,,,,,,,,,,,,,,,,,,,,,,,,,,,,,,,,,,,,,,,,,,,,,,,,,,,,,,,,,,,,,,,,
,,63039dbefda87c47a91fec04,2022-09-08_13h13.09.282,CGTgamblingSpanTasks,2022.2.1,Win32,60.29181237,,,,,,,,3.2834,,,,,,,,,,,,,,2,v,0.7166,7.34,0,4.2834,1,0,26,26,7,1,21.32,0,7.34,0,,,,,,,,,,,,,,,,,,,,,,,,,,,,,,,,,,,,,,,,,,,,,,,,,,,,,,,,,,,,,,,,,,,,,,,,,,,,,,,,,,,,,,,,,,,,,,,,,,
,,63039dbefda87c47a91fec04,2022-09-08_13h13.09.282,CGTgamblingSpanTasks,2022.2.1,Win32,60.29181237,,,,,,,,3.1825,,,,,,,,,,,,,,1,v,0.8175,0,1,4.1825,1,0,27,27,2,1,17.73,0,3.13,0,,,,,,,,,,,,,,,,,,,,,,,,,,,,,,,,,,,,,,,,,,,,,,,,,,,,,,,,,,,,,,,,,,,,,,,,,,,,,,,,,,,,,,,,,,,,,,,,,,
,,63039dbefda87c47a91fec04,2022-09-08_13h13.09.282,CGTgamblingSpanTasks,2022.2.1,Win32,60.29181237,,,,,,,,3.1843,,,,,,,,,,,,,,1,n,0.8157,10.68,0,4.1843,1,0,28,28,48,1,10.68,0,10.68,1,,,,,,,,,,,,,,,,,,,,,,,,,,,,,,,,,,,,,,,,,,,,,,,,,,,,,,,,,,,,,,,,,,,,,,,,,,,,,,,,,,,,,,,,,,,,,,,,,,
,,63039dbefda87c47a91fec04,2022-09-08_13h13.09.282,CGTgamblingSpanTasks,2022.2.1,Win32,60.29181237,,,,,,,,2.7647,,,,,,,,,,,,,,2,n,1.2353,17,1,3.7647,1,0,29,29,25,1,17,0,9.5,0,,,,,,,,,,,,,,,,,,,,,,,,,,,,,,,,,,,,,,,,,,,,,,,,,,,,,,,,,,,,,,,,,,,,,,,,,,,,,,,,,,,,,,,,,,,,,,,,,,
,,63039dbefda87c47a91fec04,2022-09-08_13h13.09.282,CGTgamblingSpanTasks,2022.2.1,Win32,60.29181237,,,,,,,,2.9655,,,,,,,,,,,,,,1,v,1.0345,11.84,1,4.4655,1.5,0,30,30,20,1,11.84,0,6.08,0,,,,,,,,,,,,,,,,,,,,,,,,,,,,,,,,,,,,,,,,,,,,,,,,,,,,,,,,,,,,,,,,,,,,,,,,,,,,,,,,,,,,,,,,,,,,,,,,,,
,,63039dbefda87c47a91fec04,2022-09-08_13h13.09.282,CGTgamblingSpanTasks,2022.2.1,Win32,60.29181237,,,,,,,,2.9815,,,,,,,,,,,,,,1,n,1.0185,6.81,0,3.9815,1,0,31,31,34,1,10.39,0,6.81,0,,,,,,,,,,,,,,,,,,,,,,,,,,,,,,,,,,,,,,,,,,,,,,,,,,,,,,,,,,,,,,,,,,,,,,,,,,,,,,,,,,,,,,,,,,,,,,,,,,
,,63039dbefda87c47a91fec04,2022-09-08_13h13.09.282,CGTgamblingSpanTasks,2022.2.1,Win32,60.29181237,,,,,,,,3.2816,,,,,,,,,,,,,,1,v,0.7184,14.72,1,4.7816,1.5,0,32,32,6,1,14.72,0,4.64,0,,,,,,,,,,,,,,,,,,,,,,,,,,,,,,,,,,,,,,,,,,,,,,,,,,,,,,,,,,,,,,,,,,,,,,,,,,,,,,,,,,,,,,,,,,,,,,,,,,
,,63039dbefda87c47a91fec04,2022-09-08_13h13.09.282,CGTgamblingSpanTasks,2022.2.1,Win32,60.29181237,,,,,,,,3.3103,,,,,,,,,,,,,,2,v,0.6897,6.4,0,4.8103,1.5,0,33,33,26,1,11.2,0,6.4,0,,,,,,,,,,,,,,,,,,,,,,,,,,,,,,,,,,,,,,,,,,,,,,,,,,,,,,,,,,,,,,,,,,,,,,,,,,,,,,,,,,,,,,,,,,,,,,,,,,
,,63039dbefda87c47a91fec04,2022-09-08_13h13.09.282,CGTgamblingSpanTasks,2022.2.1,Win32,60.29181237,,,,,,,,3.1413,,,,,,,,,,,,,,1,v,0.8587,28.21,1,4.1413,1,0,34,34,1,1,28.21,0,3.89,0,,,,,,,,,,,,,,,,,,,,,,,,,,,,,,,,,,,,,,,,,,,,,,,,,,,,,,,,,,,,,,,,,,,,,,,,,,,,,,,,,,,,,,,,,,,,,,,,,,
,,63039dbefda87c47a91fec04,2022-09-08_13h13.09.282,CGTgamblingSpanTasks,2022.2.1,Win32,60.29181237,,,,,,,,3.1655,,,,,,,,,,,,,,1,v,0.8345,25.2,1,4.6655,1.5,0,35,35,3,1,25.2,0,5.4,0,,,,,,,,,,,,,,,,,,,,,,,,,,,,,,,,,,,,,,,,,,,,,,,,,,,,,,,,,,,,,,,,,,,,,,,,,,,,,,,,,,,,,,,,,,,,,,,,,,
,,63039dbefda87c47a91fec04,2022-09-08_13h13.09.282,CGTgamblingSpanTasks,2022.2.1,Win32,60.29181237,,,,,,,,3.0491,,,,,,,,,,,,,,2,n,0.9509,10.73,1,4.0491,1,0,36,36,30,1,10.73,0,6.63,0,,,,,,,,,,,,,,,,,,,,,,,,,,,,,,,,,,,,,,,,,,,,,,,,,,,,,,,,,,,,,,,,,,,,,,,,,,,,,,,,,,,,,,,,,,,,,,,,,,
,,63039dbefda87c47a91fec04,2022-09-08_13h13.09.282,CGTgamblingSpanTasks,2022.2.1,Win32,60.29181237,,,,,,,,3.0291,,,,,,,,,,,,,,1,n,0.9709,6.73,0,4.5291,1.5,0,37,37,32,1,10.55,0,6.73,0,,,,,,,,,,,,,,,,,,,,,,,,,,,,,,,,,,,,,,,,,,,,,,,,,,,,,,,,,,,,,,,,,,,,,,,,,,,,,,,,,,,,,,,,,,,,,,,,,,
,,63039dbefda87c47a91fec04,2022-09-08_13h13.09.282,CGTgamblingSpanTasks,2022.2.1,Win32,60.29181237,,,,,,,,3.2168,,,,,,,,,,,,,,1,v,0.7832,0,1,4.7168,1.5,0,38,38,0,1,20.03,0,1.99,0,,,,,,,,,,,,,,,,,,,,,,,,,,,,,,,,,,,,,,,,,,,,,,,,,,,,,,,,,,,,,,,,,,,,,,,,,,,,,,,,,,,,,,,,,,,,,,,,,,
,,63039dbefda87c47a91fec04,2022-09-08_13h13.09.282,CGTgamblingSpanTasks,2022.2.1,Win32,60.29181237,,,,,,,,2.7476,,,,,,,,,,,,,,2,n,1.2524,0,1,3.7476,1,0,39,39,17,1,18.33,0,8.84,0,,,,,,,,,,,,,,,,,,,,,,,,,,,,,,,,,,,,,,,,,,,,,,,,,,,,,,,,,,,,,,,,,,,,,,,,,,,,,,,,,,,,,,,,,,,,,,,,,,
,,63039dbefda87c47a91fec04,2022-09-08_13h13.09.282,CGTgamblingSpanTasks,2022.2.1,Win32,60.29181237,,,,,,,,3.1448,,,,,,,,,,,,,,1,v,0.8552,0,1,4.1448,1,0,40,40,28,1,10.95,0,6.53,0,,,,,,,,,,,,,,,,,,,,,,,,,,,,,,,,,,,,,,,,,,,,,,,,,,,,,,,,,,,,,,,,,,,,,,,,,,,,,,,,,,,,,,,,,,,,,,,,,,
,,63039dbefda87c47a91fec04,2022-09-08_13h13.09.282,CGTgamblingSpanTasks,2022.2.1,Win32,60.29181237,,,,,,,,2.9508,,,,,,,,,,,,,,2,n,1.0492,0,1,3.9508,1,0,41,41,24,1,11.43,0,6.29,0,,,,,,,,,,,,,,,,,,,,,,,,,,,,,,,,,,,,,,,,,,,,,,,,,,,,,,,,,,,,,,,,,,,,,,,,,,,,,,,,,,,,,,,,,,,,,,,,,,
,,63039dbefda87c47a91fec04,2022-09-08_13h13.09.282,CGTgamblingSpanTasks,2022.2.1,Win32,60.29181237,,,,,,,,3.0497,,,,,,,,,,,,,,1,v,0.9503,16,1,4.5497,1.5,0,42,42,4,1,16,0,4,0,,,,,,,,,,,,,,,,,,,,,,,,,,,,,,,,,,,,,,,,,,,,,,,,,,,,,,,,,,,,,,,,,,,,,,,,,,,,,,,,,,,,,,,,,,,,,,,,,,
,,63039dbefda87c47a91fec04,2022-09-08_13h13.09.282,CGTgamblingSpanTasks,2022.2.1,Win32,60.29181237,,,,,,,,2.7816,,,,,,,,,,,,,,2,v,1.2184,10.25,0,4.2816,1.5,0,43,43,46,1,0,0,10.25,1,,,,,,,,,,,,,,,,,,,,,,,,,,,,,,,,,,,,,,,,,,,,,,,,,,,,,,,,,,,,,,,,,,,,,,,,,,,,,,,,,,,,,,,,,,,,,,,,,,
,,63039dbefda87c47a91fec04,2022-09-08_13h13.09.282,CGTgamblingSpanTasks,2022.2.1,Win32,60.29181237,,,,,,,,2.7324,,,,,,,,,,,,,,1,v,1.2676,0,1,4.2324,1.5,0,44,44,13,1,19.28,0,8.36,0,,,,,,,,,,,,,,,,,,,,,,,,,,,,,,,,,,,,,,,,,,,,,,,,,,,,,,,,,,,,,,,,,,,,,,,,,,,,,,,,,,,,,,,,,,,,,,,,,,
,,63039dbefda87c47a91fec04,2022-09-08_13h13.09.282,CGTgamblingSpanTasks,2022.2.1,Win32,60.29181237,,,,,,,,2.8033,,,,,,,,,,,,,,2,v,1.1967,9.87,0,3.8033,1,0,45,45,29,1,16.26,0,9.87,0,,,,,,,,,,,,,,,,,,,,,,,,,,,,,,,,,,,,,,,,,,,,,,,,,,,,,,,,,,,,,,,,,,,,,,,,,,,,,,,,,,,,,,,,,,,,,,,,,,
,,63039dbefda87c47a91fec04,2022-09-08_13h13.09.282,CGTgamblingSpanTasks,2022.2.1,Win32,60.29181237,,,,,,,,2.7611,,,,,,,,,,,,,,1,v,1.2389,13.1,1,4.2611,1.5,0,46,46,44,1,13.1,7.73,4.68,1,,,,,,,,,,,,,,,,,,,,,,,,,,,,,,,,,,,,,,,,,,,,,,,,,,,,,,,,,,,,,,,,,,,,,,,,,,,,,,,,,,,,,,,,,,,,,,,,,,
,,63039dbefda87c47a91fec04,2022-09-08_13h13.09.282,CGTgamblingSpanTasks,2022.2.1,Win32,60.29181237,,,,,,,,2.9214,,,,,,,,,,,,,,1,n,1.0786,6.88,0,4.4214,1.5,0,47,47,36,1,10.24,0,6.88,0,,,,,,,,,,,,,,,,,,,,,,,,,,,,,,,,,,,,,,,,,,,,,,,,,,,,,,,,,,,,,,,,,,,,,,,,,,,,,,,,,,,,,,,,,,,,,,,,,,
,,63039dbefda87c47a91fec04,2022-09-08_13h13.09.282,CGTgamblingSpanTasks,2022.2.1,Win32,60.29181237,,,,,,,,2.9603,,,,,,,,,,,,,,1,n,1.0397,10.46,0,3.9603,1,0,48,48,39,1,15.09,0,10.46,0,,,,,,,,,,,,,,,,,,,,,,,,,,,,,,,,,,,,,,,,,,,,,,,,,,,,,,,,,,,,,,,,,,,,,,,,,,,,,,,,,,,,,,,,,,,,,,,,,,
,,63039dbefda87c47a91fec04,2022-09-08_13h13.09.282,CGTgamblingSpanTasks,2022.2.1,Win32,60.29181237,,,,,,,,2.9396,,,,,,,,,,,,,,2,v,1.0604,9.36,0,3.9396,1,0,49,49,23,1,17.28,0,9.36,0,,,,,,,,,,,,,,,,,,,,,,,,,,,,,,,,,,,,,,,,,,,,,,,,,,,,,,,,,,,,,,,,,,,,,,,,,,,,,,,,,,,,,,,,,,,,,,,,,,
,,63039dbefda87c47a91fec04,2022-09-08_13h13.09.282,CGTgamblingSpanTasks,2022.2.1,Win32,60.29181237,,,,,,,,,,,,,,,,,,,,,,,,,,,,,,,,,,,,,,bespoke_choiceset_rhoInd056_muInd004.csv,bespoke_choicesets/bespoke_choiceset_rhoInd056_muInd004.csv,56,4,0,0,0,0,1,,,,,,,,,,,,,,,,,,,,,,,,,,,,,,,,,,,,,,,,,,,,,,,,,,,,,,,,,,,,,,,,,,,,,,,,,,,,,,,,,,,,,,,,,
,,63039dbefda87c47a91fec04,2022-09-08_13h13.09.282,CGTgamblingSpanTasks,2022.2.1,Win32,60.29181237,,,,,,,,,,,,,,,,,,,,,,,,,,,,,,,,,,,,,,,,,,,,,,,,,,,,,,,,,,,,,,,,,,,,,,,,,,,,,,,,,,,,,,,,,,,,,,,,,,,,,,,,,,,,,,,,,,,,,,,,,,,,,,,,,,,,,,,
,,63039dbefda87c47a91fec04,2022-09-08_13h13.09.282,CGTgamblingSpanTasks,2022.2.1,Win32,60.29181237,,,,,,,,,,,,,,,,,,,,,,,,,,,,,,,,,,,,,,,,,,,,,,,v,103.8717,,,,,,,,,,,,,,,,,,,,,,,,,,,,,,,,,,,,,,,,,,,,,,,,,,,,,,,,,,,,,,,,,,,,,,,,,,,,,,,,,,,,,,,
,,63039dbefda87c47a91fec04,2022-09-08_13h13.09.282,CGTgamblingSpanTasks,2022.2.1,Win32,60.29181237,,,,,,,,3.0153,,,,,,,,,,,,,,2,n,0.9847,0,1,4.0153,1,,,,,,15.43649625,0,1.65459324,,,,,,,,,,,,,0,0,0,33,1,0.479480163,1,,,,,,,,,,,,,,,,,,,,,,,,,,,,,,,,,,,,,,,,,,,,,,,,,,,,,,,,,,,,,,,,,,,,,,,,,,,,,,,,
,,63039dbefda87c47a91fec04,2022-09-08_13h13.09.282,CGTgamblingSpanTasks,2022.2.1,Win32,60.29181237,,,,,,,,3.0308,,,,,,,,,,,,,,1,v,0.9692,0,1,4.0308,1,,,,,,27.7711693,0,2.320849632,,,,,,,,,,,,,0,1,1,94,1,0.543786368,1,,,,,,,,,,,,,,,,,,,,,,,,,,,,,,,,,,,,,,,,,,,,,,,,,,,,,,,,,,,,,,,,,,,,,,,,,,,,,,,,
,,63039dbefda87c47a91fec04,2022-09-08_13h13.09.282,CGTgamblingSpanTasks,2022.2.1,Win32,60.29181237,,,,,,,,3.0161,,,,,,,,,,,,,,2,n,0.9839,0,1,4.5161,1.5,,,,,,21.2188881,0,2.067660742,,,,,,,,,,,,,0,2,2,107,1,0.50470775,1,,,,,,,,,,,,,,,,,,,,,,,,,,,,,,,,,,,,,,,,,,,,,,,,,,,,,,,,,,,,,,,,,,,,,,,,,,,,,,,,
,,63039dbefda87c47a91fec04,2022-09-08_13h13.09.282,CGTgamblingSpanTasks,2022.2.1,Win32,60.29181237,,,,,,,,3.0939,,,,,,,,,,,,,,1,v,0.9061,0,1,4.5939,1.5,,,,,,27.93093084,0,0.050207531,,,,,,,,,,,,,0,3,3,83,1,0.920505936,0,,,,,,,,,,,,,,,,,,,,,,,,,,,,,,,,,,,,,,,,,,,,,,,,,,,,,,,,,,,,,,,,,,,,,,,,,,,,,,,,
,,63039dbefda87c47a91fec04,2022-09-08_13h13.09.282,CGTgamblingSpanTasks,2022.2.1,Win32,60.29181237,,,,,,,,2.918,,,,,,,,,,,,,,2,n,1.082,0,1,4.418,1.5,,,,,,28.94627214,0,2.701896413,,,,,,,,,,,,,0,4,4,111,1,0.515860759,1,,,,,,,,,,,,,,,,,,,,,,,,,,,,,,,,,,,,,,,,,,,,,,,,,,,,,,,,,,,,,,,,,,,,,,,,,,,,,,,,
,,63039dbefda87c47a91fec04,2022-09-08_13h13.09.282,CGTgamblingSpanTasks,2022.2.1,Win32,60.29181237,,,,,,,,3.0158,,,,,,,,,,,,,,2,v,0.9842,1.966229494,0,4.0158,1,,,,,,19.36415485,0,1.966229494,,,,,,,,,,,,,0,5,5,96,1,0.493893111,1,,,,,,,,,,,,,,,,,,,,,,,,,,,,,,,,,,,,,,,,,,,,,,,,,,,,,,,,,,,,,,,,,,,,,,,,,,,,,,,,
,,63039dbefda87c47a91fec04,2022-09-08_13h13.09.282,CGTgamblingSpanTasks,2022.2.1,Win32,60.29181237,,,,,,,,2.8512,,,,,,,,,,,,,,2,v,1.1488,2.765426402,0,3.8512,1,,,,,,24.66627941,0,2.765426402,,,,,,,,,,,,,0,6,6,24,1,0.467360588,1,,,,,,,,,,,,,,,,,,,,,,,,,,,,,,,,,,,,,,,,,,,,,,,,,,,,,,,,,,,,,,,,,,,,,,,,,,,,,,,,
,,63039dbefda87c47a91fec04,2022-09-08_13h13.09.282,CGTgamblingSpanTasks,2022.2.1,Win32,60.29181237,,,,,,,,3.0017,,,,,,,,,,,,,,2,v,0.9983,1.878232496,0,4.0017,1,,,,,,17.92584289,0,1.878232496,,,,,,,,,,,,,0,7,7,5,1,0.485559263,1,,,,,,,,,,,,,,,,,,,,,,,,,,,,,,,,,,,,,,,,,,,,,,,,,,,,,,,,,,,,,,,,,,,,,,,,,,,,,,,,
,,63039dbefda87c47a91fec04,2022-09-08_13h13.09.282,CGTgamblingSpanTasks,2022.2.1,Win32,60.29181237,,,,,,,,2.8648,,,,,,,,,,,,,,2,n,1.1352,0,1,3.8648,1,,,,,,27.76752685,0,0.083968035,,,,,,,,,,,,,0,8,8,13,1,0.906513967,0,,,,,,,,,,,,,,,,,,,,,,,,,,,,,,,,,,,,,,,,,,,,,,,,,,,,,,,,,,,,,,,,,,,,,,,,,,,,,,,,
,,63039dbefda87c47a91fec04,2022-09-08_13h13.09.282,CGTgamblingSpanTasks,2022.2.1,Win32,60.29181237,,,,,,,,2.7967,,,,,,,,,,,,,,1,v,1.2033,0,1,3.7967,1,,,,,,23.24777057,0,2.003482335,,,,,,,,,,,,,0,9,9,59,1,0.536135174,1,,,,,,,,,,,,,,,,,,,,,,,,,,,,,,,,,,,,,,,,,,,,,,,,,,,,,,,,,,,,,,,,,,,,,,,,,,,,,,,,
,,63039dbefda87c47a91fec04,2022-09-08_13h13.09.282,CGTgamblingSpanTasks,2022.2.1,Win32,60.29181237,,,,,,,,2.9973,,,,,,,,,,,,,,1,n,1.0027,0.081942421,0,4.4973,1.5,,,,,,26.11188619,0,0.081942421,,,,,,,,,,,,,0,10,10,105,1,0.905343856,0,,,,,,,,,,,,,,,,,,,,,,,,,,,,,,,,,,,,,,,,,,,,,,,,,,,,,,,,,,,,,,,,,,,,,,,,,,,,,,,,
,,63039dbefda87c47a91fec04,2022-09-08_13h13.09.282,CGTgamblingSpanTasks,2022.2.1,Win32,60.29181237,,,,,,,,2.8489,,,,,,,,,,,,,,2,n,1.1511,20.31034258,1,4.3489,1.5,,,,,,20.31034258,0,1.870404296,,,,,,,,,,,,,0,11,11,85,1,0.519325853,1,,,,,,,,,,,,,,,,,,,,,,,,,,,,,,,,,,,,,,,,,,,,,,,,,,,,,,,,,,,,,,,,,,,,,,,,,,,,,,,,
,,63039dbefda87c47a91fec04,2022-09-08_13h13.09.282,CGTgamblingSpanTasks,2022.2.1,Win32,60.29181237,,,,,,,,2.9806,,,,,,,,,,,,,,2,n,1.0194,28.9381277,1,3.9806,1,,,,,,28.9381277,0,2.663622024,,,,,,,,,,,,,0,12,12,103,1,0.519453367,1,,,,,,,,,,,,,,,,,,,,,,,,,,,,,,,,,,,,,,,,,,,,,,,,,,,,,,,,,,,,,,,,,,,,,,,,,,,,,,,,
,,63039dbefda87c47a91fec04,2022-09-08_13h13.09.282,CGTgamblingSpanTasks,2022.2.1,Win32,60.29181237,,,,,,,,2.7981,,,,,,,,,,,,,,2,n,1.2019,15.73000491,1,4.2981,1.5,,,,,,15.73000491,0,8.830252162,,,,,,,,,,,,,0,13,13,95,1,0.084193143,0,,,,,,,,,,,,,,,,,,,,,,,,,,,,,,,,,,,,,,,,,,,,,,,,,,,,,,,,,,,,,,,,,,,,,,,,,,,,,,,,
,,63039dbefda87c47a91fec04,2022-09-08_13h13.09.282,CGTgamblingSpanTasks,2022.2.1,Win32,60.29181237,,,,,,,,2.5263,,,,,,,,,,,,,,2,n,1.4737,25.76582409,1,3.5263,1,,,,,,25.76582409,0,2.393193076,,,,,,,,,,,,,0,14,14,46,1,0.517129855,1,,,,,,,,,,,,,,,,,,,,,,,,,,,,,,,,,,,,,,,,,,,,,,,,,,,,,,,,,,,,,,,,,,,,,,,,,,,,,,,,
,,63039dbefda87c47a91fec04,2022-09-08_13h13.09.282,CGTgamblingSpanTasks,2022.2.1,Win32,60.29181237,,,,,,,,3.0651,,,,,,,,,,,,,,2,n,0.9349,0,1,4.5651,1.5,,,,,,14.3363647,0,1.396635362,,,,,,,,,,,,,0,15,15,78,1,0.504775474,1,,,,,,,,,,,,,,,,,,,,,,,,,,,,,,,,,,,,,,,,,,,,,,,,,,,,,,,,,,,,,,,,,,,,,,,,,,,,,,,,
,,63039dbefda87c47a91fec04,2022-09-08_13h13.09.282,CGTgamblingSpanTasks,2022.2.1,Win32,60.29181237,,,,,,,,2.8322,,,,,,,,,,,,,,2,n,1.1678,0,1,3.8322,1,,,,,,19.58698544,0,9.936178001,,,,,,,,,,,,,0,16,16,77,1,0.098812204,0,,,,,,,,,,,,,,,,,,,,,,,,,,,,,,,,,,,,,,,,,,,,,,,,,,,,,,,,,,,,,,,,,,,,,,,,,,,,,,,,
,,63039dbefda87c47a91fec04,2022-09-08_13h13.09.282,CGTgamblingSpanTasks,2022.2.1,Win32,60.29181237,,,,,,,,2.7293,,,,,,,,,,,,,,2,n,1.2707,28.13634754,1,3.7293,1,,,,,,28.13634754,0,2.532806323,,,,,,,,,,,,,0,17,17,28,1,0.525136524,1,,,,,,,,,,,,,,,,,,,,,,,,,,,,,,,,,,,,,,,,,,,,,,,,,,,,,,,,,,,,,,,,,,,,,,,,,,,,,,,,
,,63039dbefda87c47a91fec04,2022-09-08_13h13.09.282,CGTgamblingSpanTasks,2022.2.1,Win32,60.29181237,,,,,,,,2.7526,,,,,,,,,,,,,,1,v,1.2474,0,1,4.2526,1.5,,,,,,17.4320197,0,1.448620949,,,,,,,,,,,,,0,18,18,30,1,0.545178213,1,,,,,,,,,,,,,,,,,,,,,,,,,,,,,,,,,,,,,,,,,,,,,,,,,,,,,,,,,,,,,,,,,,,,,,,,,,,,,,,,
,,63039dbefda87c47a91fec04,2022-09-08_13h13.09.282,CGTgamblingSpanTasks,2022.2.1,Win32,60.29181237,,,,,,,,3.1407,,,,,,,,,,,,,,1,n,0.8593,2.99133314,0,4.1407,1,,,,,,27.57491653,0,2.99133314,,,,,,,,,,,,,0,19,19,10,1,0.47625893,1,,,,,,,,,,,,,,,,,,,,,,,,,,,,,,,,,,,,,,,,,,,,,,,,,,,,,,,,,,,,,,,,,,,,,,,,,,,,,,,,
,,63039dbefda87c47a91fec04,2022-09-08_13h13.09.282,CGTgamblingSpanTasks,2022.2.1,Win32,60.29181237,,,,,,,,3.2313,,,,,,,,,,,,,,1,v,0.7687,0,1,4.7313,1.5,,,,,,9.725876653,0,5.526483034,,,,,,,,,,,,,0,20,20,44,1,0.082550696,0,,,,,,,,,,,,,,,,,,,,,,,,,,,,,,,,,,,,,,,,,,,,,,,,,,,,,,,,,,,,,,,,,,,,,,,,,,,,,,,,
,,63039dbefda87c47a91fec04,2022-09-08_13h13.09.282,CGTgamblingSpanTasks,2022.2.1,Win32,60.29181237,,,,,,,,3.0988,,,,,,,,,,,,,,2,n,0.9012,24.8002852,1,4.5988,1.5,,,,,,24.8002852,0,0.071848086,,,,,,,,,,,,,0,21,21,16,1,0.90783559,0,,,,,,,,,,,,,,,,,,,,,,,,,,,,,,,,,,,,,,,,,,,,,,,,,,,,,,,,,,,,,,,,,,,,,,,,,,,,,,,,
,,63039dbefda87c47a91fec04,2022-09-08_13h13.09.282,CGTgamblingSpanTasks,2022.2.1,Win32,60.29181237,,,,,,,,3.0162,,,,,,,,,,,,,,1,v,0.9838,21.39646914,1,4.5162,1.5,,,,,,21.39646914,0,0.072474078,,,,,,,,,,,,,0,22,22,3,1,0.902848133,0,,,,,,,,,,,,,,,,,,,,,,,,,,,,,,,,,,,,,,,,,,,,,,,,,,,,,,,,,,,,,,,,,,,,,,,,,,,,,,,,
,,63039dbefda87c47a91fec04,2022-09-08_13h13.09.282,CGTgamblingSpanTasks,2022.2.1,Win32,60.29181237,,,,,,,,3.1499,,,,,,,,,,,,,,2,n,0.8501,17.85020524,1,4.1499,1,,,,,,17.85020524,0,2.058701084,,,,,,,,,,,,,0,23,23,25,1,0.459662216,1,,,,,,,,,,,,,,,,,,,,,,,,,,,,,,,,,,,,,,,,,,,,,,,,,,,,,,,,,,,,,,,,,,,,,,,,,,,,,,,,
,,63039dbefda87c47a91fec04,2022-09-08_13h13.09.282,CGTgamblingSpanTasks,2022.2.1,Win32,60.29181237,,,,,,,,3.0987,,,,,,,,,,,,,,2,n,0.9013,0,1,4.0987,1,,,,,,18.20422443,0,1.635040165,,,,,,,,,,,,,0,24,24,82,1,0.525708991,1,,,,,,,,,,,,,,,,,,,,,,,,,,,,,,,,,,,,,,,,,,,,,,,,,,,,,,,,,,,,,,,,,,,,,,,,,,,,,,,,
,,63039dbefda87c47a91fec04,2022-09-08_13h13.09.282,CGTgamblingSpanTasks,2022.2.1,Win32,60.29181237,,,,,,,,3.0993,,,,,,,,,,,,,,2,n,0.9007,0,1,4.5993,1.5,,,,,,12.9904115,0,11.42134125,,,,,,,,,,,,,0,25,25,118,1,0.037876033,0,,,,,,,,,,,,,,,,,,,,,,,,,,,,,,,,,,,,,,,,,,,,,,,,,,,,,,,,,,,,,,,,,,,,,,,,,,,,,,,,
,,63039dbefda87c47a91fec04,2022-09-08_13h13.09.282,CGTgamblingSpanTasks,2022.2.1,Win32,60.29181237,,,,,,,,3.0153,,,,,,,,,,,,,,1,v,0.9847,0,1,4.5153,1.5,,,,,,27.38828234,0,0.0639233,,,,,,,,,,,,,0,26,26,43,1,0.914010176,0,,,,,,,,,,,,,,,,,,,,,,,,,,,,,,,,,,,,,,,,,,,,,,,,,,,,,,,,,,,,,,,,,,,,,,,,,,,,,,,,
,,63039dbefda87c47a91fec04,2022-09-08_13h13.09.282,CGTgamblingSpanTasks,2022.2.1,Win32,60.29181237,,,,,,,,2.6629,,,,,,,,,,,,,,2,v,1.3371,10.68505773,0,4.1629,1.5,,,,,,17.64114152,0,10.68505773,,,,,,,,,,,,,0,27,27,98,1,0.074299362,0,,,,,,,,,,,,,,,,,,,,,,,,,,,,,,,,,,,,,,,,,,,,,,,,,,,,,,,,,,,,,,,,,,,,,,,,,,,,,,,,
,,63039dbefda87c47a91fec04,2022-09-08_13h13.09.282,CGTgamblingSpanTasks,2022.2.1,Win32,60.29181237,,,,,,,,2.765,,,,,,,,,,,,,,2,n,1.235,22.62475578,1,4.265,1.5,,,,,,22.62475578,0,2.397643354,,,,,,,,,,,,,0,28,28,93,1,0.482527609,1,,,,,,,,,,,,,,,,,,,,,,,,,,,,,,,,,,,,,,,,,,,,,,,,,,,,,,,,,,,,,,,,,,,,,,,,,,,,,,,,
,,63039dbefda87c47a91fec04,2022-09-08_13h13.09.282,CGTgamblingSpanTasks,2022.2.1,Win32,60.29181237,,,,,,,,2.8494,,,,,,,,,,,,,,2,n,1.1506,0,1,3.8494,1,,,,,,17.23907308,0,2.055848574,,,,,,,,,,,,,0,29,29,66,1,0.450504458,1,,,,,,,,,,,,,,,,,,,,,,,,,,,,,,,,,,,,,,,,,,,,,,,,,,,,,,,,,,,,,,,,,,,,,,,,,,,,,,,,
,,63039dbefda87c47a91fec04,2022-09-08_13h13.09.282,CGTgamblingSpanTasks,2022.2.1,Win32,60.29181237,,,,,,,,2.8762,,,,,,,,,,,,,,1,n,1.1238,1.591282699,0,4.3762,1.5,,,,,,13.96521039,0,1.591282699,,,,,,,,,,,,,0,30,30,49,1,0.462956344,1,,,,,,,,,,,,,,,,,,,,,,,,,,,,,,,,,,,,,,,,,,,,,,,,,,,,,,,,,,,,,,,,,,,,,,,,,,,,,,,,
,,63039dbefda87c47a91fec04,2022-09-08_13h13.09.282,CGTgamblingSpanTasks,2022.2.1,Win32,60.29181237,,,,,,,,3.0081,,,,,,,,,,,,,,1,v,0.9919,0,1,4.5081,1.5,,,,,,13.84410806,0,1.535873964,,,,,,,,,,,,,0,31,31,88,1,0.470209002,1,,,,,,,,,,,,,,,,,,,,,,,,,,,,,,,,,,,,,,,,,,,,,,,,,,,,,,,,,,,,,,,,,,,,,,,,,,,,,,,,
,,63039dbefda87c47a91fec04,2022-09-08_13h13.09.282,CGTgamblingSpanTasks,2022.2.1,Win32,60.29181237,,,,,,,,2.8888,,,,,,,,,,,,,,1,n,1.1112,2.201057101,0,4.3888,1.5,,,,,,26.36733703,0,2.201057101,,,,,,,,,,,,,0,32,32,90,1,0.544064207,1,,,,,,,,,,,,,,,,,,,,,,,,,,,,,,,,,,,,,,,,,,,,,,,,,,,,,,,,,,,,,,,,,,,,,,,,,,,,,,,,
,,63039dbefda87c47a91fec04,2022-09-08_13h13.09.282,CGTgamblingSpanTasks,2022.2.1,Win32,60.29181237,,,,,,,,2.6225,,,,,,,,,,,,,,1,v,1.3775,23.59556381,1,3.6225,1,,,,,,23.59556381,0,2.464662219,,,,,,,,,,,,,0,33,33,22,1,0.486383205,1,,,,,,,,,,,,,,,,,,,,,,,,,,,,,,,,,,,,,,,,,,,,,,,,,,,,,,,,,,,,,,,,,,,,,,,,,,,,,,,,
,,63039dbefda87c47a91fec04,2022-09-08_13h13.09.282,CGTgamblingSpanTasks,2022.2.1,Win32,60.29181237,,,,,,,,2.5704,,,,,,,,,,,,,,1,n,1.4296,2.387726776,0,3.5704,1,,,,,,23.0613391,0,2.387726776,,,,,,,,,,,,,0,34,34,69,1,0.488727763,1,,,,,,,,,,,,,,,,,,,,,,,,,,,,,,,,,,,,,,,,,,,,,,,,,,,,,,,,,,,,,,,,,,,,,,,,,,,,,,,,
,,63039dbefda87c47a91fec04,2022-09-08_13h13.09.282,CGTgamblingSpanTasks,2022.2.1,Win32,60.29181237,,,,,,,,2.5278,,,,,,,,,,,,,,2,n,1.4722,0,1,4.0278,1.5,,,,,,21.7711579,0,2.502728921,,,,,,,,,,,,,0,35,35,101,1,0.460552621,1,,,,,,,,,,,,,,,,,,,,,,,,,,,,,,,,,,,,,,,,,,,,,,,,,,,,,,,,,,,,,,,,,,,,,,,,,,,,,,,,
,,63039dbefda87c47a91fec04,2022-09-08_13h13.09.282,CGTgamblingSpanTasks,2022.2.1,Win32,60.29181237,,,,,,,,2.9821,,,,,,,,,,,,,,1,v,1.0179,28.33977875,1,3.9821,1,,,,,,28.33977875,0,2.768313633,,,,,,,,,,,,,0,36,36,116,1,0.50406901,1,,,,,,,,,,,,,,,,,,,,,,,,,,,,,,,,,,,,,,,,,,,,,,,,,,,,,,,,,,,,,,,,,,,,,,,,,,,,,,,,
,,63039dbefda87c47a91fec04,2022-09-08_13h13.09.282,CGTgamblingSpanTasks,2022.2.1,Win32,60.29181237,,,,,,,,3.0101,,,,,,,,,,,,,,2,v,0.9899,8.42547829,0,4.0101,1,,,,,,15.87668502,0,8.42547829,,,,,,,,,,,,,0,37,37,56,1,0.092099462,0,,,,,,,,,,,,,,,,,,,,,,,,,,,,,,,,,,,,,,,,,,,,,,,,,,,,,,,,,,,,,,,,,,,,,,,,,,,,,,,,
,,63039dbefda87c47a91fec04,2022-09-08_13h13.09.282,CGTgamblingSpanTasks,2022.2.1,Win32,60.29181237,,,,,,,,2.6348,,,,,,,,,,,,,,1,v,1.3652,21.46599803,1,4.1348,1.5,,,,,,21.46599803,0,0.059789256,,,,,,,,,,,,,0,38,38,8,1,0.909019081,0,,,,,,,,,,,,,,,,,,,,,,,,,,,,,,,,,,,,,,,,,,,,,,,,,,,,,,,,,,,,,,,,,,,,,,,,,,,,,,,,
,,63039dbefda87c47a91fec04,2022-09-08_13h13.09.282,CGTgamblingSpanTasks,2022.2.1,Win32,60.29181237,,,,,,,,2.9728,,,,,,,,,,,,,,1,n,1.0272,11.41737518,0,3.9728,1,,,,,,18.11029021,0,11.41737518,,,,,,,,,,,,,0,39,39,48,1,0.069445859,0,,,,,,,,,,,,,,,,,,,,,,,,,,,,,,,,,,,,,,,,,,,,,,,,,,,,,,,,,,,,,,,,,,,,,,,,,,,,,,,,
,,63039dbefda87c47a91fec04,2022-09-08_13h13.09.282,CGTgamblingSpanTasks,2022.2.1,Win32,60.29181237,,,,,,,,3.1194,,,,,,,,,,,,,,2,n,0.8806,20.5726842,1,4.1194,1,,,,,,20.5726842,0,0.073558523,,,,,,,,,,,,,0,40,40,26,1,0.901008565,0,,,,,,,,,,,,,,,,,,,,,,,,,,,,,,,,,,,,,,,,,,,,,,,,,,,,,,,,,,,,,,,,,,,,,,,,,,,,,,,,
,,63039dbefda87c47a91fec04,2022-09-08_13h13.09.282,CGTgamblingSpanTasks,2022.2.1,Win32,60.29181237,,,,,,,,3.0277,,,,,,,,,,,,,,2,v,0.9723,4.904872644,0,4.0277,1,,,,,,4.698775357,0,4.904872644,,,,,,,,,,,,,0,41,41,75,1,0.028064484,0,,,,,,,,,,,,,,,,,,,,,,,,,,,,,,,,,,,,,,,,,,,,,,,,,,,,,,,,,,,,,,,,,,,,,,,,,,,,,,,,
,,63039dbefda87c47a91fec04,2022-09-08_13h13.09.282,CGTgamblingSpanTasks,2022.2.1,Win32,60.29181237,,,,,,,,3.0086,,,,,,,,,,,,,,1,v,0.9914,28.68598705,1,4.5086,1.5,,,,,,28.68598705,0,0.050674956,,,,,,,,,,,,,0,42,42,62,1,0.920905497,0,,,,,,,,,,,,,,,,,,,,,,,,,,,,,,,,,,,,,,,,,,,,,,,,,,,,,,,,,,,,,,,,,,,,,,,,,,,,,,,,
,,63039dbefda87c47a91fec04,2022-09-08_13h13.09.282,CGTgamblingSpanTasks,2022.2.1,Win32,60.29181237,,,,,,,,2.9794,,,,,,,,,,,,,,2,n,1.0206,0,1,4.4794,1.5,,,,,,27.39221343,0,2.743407746,,,,,,,,,,,,,0,43,43,47,1,0.49752044,1,,,,,,,,,,,,,,,,,,,,,,,,,,,,,,,,,,,,,,,,,,,,,,,,,,,,,,,,,,,,,,,,,,,,,,,,,,,,,,,,
,,63039dbefda87c47a91fec04,2022-09-08_13h13.09.282,CGTgamblingSpanTasks,2022.2.1,Win32,60.29181237,,,,,,,,2.9703,,,,,,,,,,,,,,1,v,1.0297,0,1,3.9703,1,,,,,,27.53810185,0,0.097022401,,,,,,,,,,,,,0,44,44,50,1,0.901515865,0,,,,,,,,,,,,,,,,,,,,,,,,,,,,,,,,,,,,,,,,,,,,,,,,,,,,,,,,,,,,,,,,,,,,,,,,,,,,,,,,
,,63039dbefda87c47a91fec04,2022-09-08_13h13.09.282,CGTgamblingSpanTasks,2022.2.1,Win32,60.29181237,,,,,,,,3.0832,,,,,,,,,,,,,,2,n,0.9168,0,1,4.0832,1,,,,,,27.12325385,0,0.080932047,,,,,,,,,,,,,0,45,45,14,1,0.906929184,0,,,,,,,,,,,,,,,,,,,,,,,,,,,,,,,,,,,,,,,,,,,,,,,,,,,,,,,,,,,,,,,,,,,,,,,,,,,,,,,,
,,63039dbefda87c47a91fec04,2022-09-08_13h13.09.282,CGTgamblingSpanTasks,2022.2.1,Win32,60.29181237,,,,,,,,3.2268,,,,,,,,,,,,,,2,n,0.7732,22.25959835,1,4.2268,1,,,,,,22.25959835,0,0.065383587,,,,,,,,,,,,,0,46,46,97,1,0.907413875,0,,,,,,,,,,,,,,,,,,,,,,,,,,,,,,,,,,,,,,,,,,,,,,,,,,,,,,,,,,,,,,,,,,,,,,,,,,,,,,,,
,,63039dbefda87c47a91fec04,2022-09-08_13h13.09.282,CGTgamblingSpanTasks,2022.2.1,Win32,60.29181237,,,,,,,,2.9746,,,,,,,,,,,,,,1,v,1.0254,0,1,3.9746,1,,,,,,11.16819157,0,0.941456753,,,,,,,,,,,,,0,47,47,45,1,0.54163803,1,,,,,,,,,,,,,,,,,,,,,,,,,,,,,,,,,,,,,,,,,,,,,,,,,,,,,,,,,,,,,,,,,,,,,,,,,,,,,,,,
,,63039dbefda87c47a91fec04,2022-09-08_13h13.09.282,CGTgamblingSpanTasks,2022.2.1,Win32,60.29181237,,,,,,,,3.1223,,,,,,,,,,,,,,2,v,0.8777,6.781500919,0,4.1223,1,,,,,,8.363821911,0,6.781500919,,,,,,,,,,,,,0,48,48,61,1,0.044227959,0,,,,,,,,,,,,,,,,,,,,,,,,,,,,,,,,,,,,,,,,,,,,,,,,,,,,,,,,,,,,,,,,,,,,,,,,,,,,,,,,
,,63039dbefda87c47a91fec04,2022-09-08_13h13.09.282,CGTgamblingSpanTasks,2022.2.1,Win32,60.29181237,,,,,,,,3.0542,,,,,,,,,,,,,,2,n,0.9458,19.68065872,1,4.0542,1,,,,,,19.68065872,0,1.843597162,,,,,,,,,,,,,0,49,49,80,1,0.514941058,1,,,,,,,,,,,,,,,,,,,,,,,,,,,,,,,,,,,,,,,,,,,,,,,,,,,,,,,,,,,,,,,,,,,,,,,,,,,,,,,,
,,63039dbefda87c47a91fec04,2022-09-08_13h13.09.282,CGTgamblingSpanTasks,2022.2.1,Win32,60.29181237,,,,,,,,2.9843,,,,,,,,,,,,,,1,v,1.0157,25.54604005,1,3.9843,1,,,,,,25.54604005,0,0.088845411,,,,,,,,,,,,,0,50,50,79,1,0.901957831,0,,,,,,,,,,,,,,,,,,,,,,,,,,,,,,,,,,,,,,,,,,,,,,,,,,,,,,,,,,,,,,,,,,,,,,,,,,,,,,,,
,,63039dbefda87c47a91fec04,2022-09-08_13h13.09.282,CGTgamblingSpanTasks,2022.2.1,Win32,60.29181237,,,,,,,,2.8558,,,,,,,,,,,,,,1,n,1.1442,5.683635938,0,4.3558,1.5,,,,,,4.941039335,0,5.683635938,,,,,,,,,,,,,0,51,51,9,1,0.025481984,0,,,,,,,,,,,,,,,,,,,,,,,,,,,,,,,,,,,,,,,,,,,,,,,,,,,,,,,,,,,,,,,,,,,,,,,,,,,,,,,,
,,63039dbefda87c47a91fec04,2022-09-08_13h13.09.282,CGTgamblingSpanTasks,2022.2.1,Win32,60.29181237,,,,,,,,3.2111,,,,,,,,,,,,,,2,v,0.7889,10.31611309,0,4.2111,1,,,,,,19.30622782,0,10.31611309,,,,,,,,,,,,,0,52,52,1,1,0.091105656,0,,,,,,,,,,,,,,,,,,,,,,,,,,,,,,,,,,,,,,,,,,,,,,,,,,,,,,,,,,,,,,,,,,,,,,,,,,,,,,,,
,,63039dbefda87c47a91fec04,2022-09-08_13h13.09.282,CGTgamblingSpanTasks,2022.2.1,Win32,60.29181237,,,,,,,,2.5185,,,,,,,,,,,,,,2,n,1.4815,29.30724159,1,4.0185,1.5,,,,,,29.30724159,0,3.247012935,,,,,,,,,,,,,0,53,53,71,1,0.470571125,1,,,,,,,,,,,,,,,,,,,,,,,,,,,,,,,,,,,,,,,,,,,,,,,,,,,,,,,,,,,,,,,,,,,,,,,,,,,,,,,,
,,63039dbefda87c47a91fec04,2022-09-08_13h13.09.282,CGTgamblingSpanTasks,2022.2.1,Win32,60.29181237,,,,,,,,2.9612,,,,,,,,,,,,,,1,v,1.0388,27.94544945,1,3.9612,1,,,,,,27.94544945,0,2.32030209,,,,,,,,,,,,,0,54,54,115,1,0.545390564,1,,,,,,,,,,,,,,,,,,,,,,,,,,,,,,,,,,,,,,,,,,,,,,,,,,,,,,,,,,,,,,,,,,,,,,,,,,,,,,,,
,,63039dbefda87c47a91fec04,2022-09-08_13h13.09.282,CGTgamblingSpanTasks,2022.2.1,Win32,60.29181237,,,,,,,,2.9739,,,,,,,,,,,,,,2,v,1.0261,7.646213173,0,4.4739,1.5,,,,,,2.042350179,0,7.646213173,,,,,,,,,,,,,0,55,55,53,1,0.009522273,0,,,,,,,,,,,,,,,,,,,,,,,,,,,,,,,,,,,,,,,,,,,,,,,,,,,,,,,,,,,,,,,,,,,,,,,,,,,,,,,,
,,63039dbefda87c47a91fec04,2022-09-08_13h13.09.282,CGTgamblingSpanTasks,2022.2.1,Win32,60.29181237,,,,,,,,2.6488,,,,,,,,,,,,,,2,n,1.3512,28.14876717,1,3.6488,1,,,,,,28.14876717,0,3.117906378,,,,,,,,,,,,,0,56,56,76,1,0.470636736,1,,,,,,,,,,,,,,,,,,,,,,,,,,,,,,,,,,,,,,,,,,,,,,,,,,,,,,,,,,,,,,,,,,,,,,,,,,,,,,,,
,,63039dbefda87c47a91fec04,2022-09-08_13h13.09.282,CGTgamblingSpanTasks,2022.2.1,Win32,60.29181237,,,,,,,,2.8017,,,,,,,,,,,,,,1,n,1.1983,11.19311486,0,4.3017,1.5,,,,,,8.17598802,0,11.19311486,,,,,,,,,,,,,0,57,57,110,1,0.021568003,0,,,,,,,,,,,,,,,,,,,,,,,,,,,,,,,,,,,,,,,,,,,,,,,,,,,,,,,,,,,,,,,,,,,,,,,,,,,,,,,,
,,63039dbefda87c47a91fec04,2022-09-08_13h13.09.282,CGTgamblingSpanTasks,2022.2.1,Win32,60.29181237,,,,,,,,2.9878,,,,,,,,,,,,,,1,v,1.0122,25.0707644,1,4.4878,1.5,,,,,,25.0707644,0,0.067651625,,,,,,,,,,,,,0,58,58,70,1,0.909952349,0,,,,,,,,,,,,,,,,,,,,,,,,,,,,,,,,,,,,,,,,,,,,,,,,,,,,,,,,,,,,,,,,,,,,,,,,,,,,,,,,
,,63039dbefda87c47a91fec04,2022-09-08_13h13.09.282,CGTgamblingSpanTasks,2022.2.1,Win32,60.29181237,,,,,,,,2.9586,,,,,,,,,,,,,,2,v,1.0414,3.877530383,0,4.4586,1.5,,,,,,3.471484939,0,3.877530383,,,,,,,,,,,,,0,59,59,40,1,0.02623078,0,,,,,,,,,,,,,,,,,,,,,,,,,,,,,,,,,,,,,,,,,,,,,,,,,,,,,,,,,,,,,,,,,,,,,,,,,,,,,,,,
,,63039dbefda87c47a91fec04,2022-09-08_13h13.09.282,CGTgamblingSpanTasks,2022.2.1,Win32,60.29181237,,,,,,,,2.8708,,,,,,,,,,,,,,2,v,1.1292,4.251676631,0,3.8708,1,,,,,,3.395192929,0,4.251676631,,,,,,,,,,,,,0,60,60,7,1,0.023467153,0,,,,,,,,,,,,,,,,,,,,,,,,,,,,,,,,,,,,,,,,,,,,,,,,,,,,,,,,,,,,,,,,,,,,,,,,,,,,,,,,
,,63039dbefda87c47a91fec04,2022-09-08_13h13.09.282,CGTgamblingSpanTasks,2022.2.1,Win32,60.29181237,,,,,,,,2.9962,,,,,,,,,,,,,,1,v,1.0038,0,1,3.9962,1,,,,,,25.56803059,0,2.543951743,,,,,,,,,,,,,0,61,61,41,1,0.499247217,1,,,,,,,,,,,,,,,,,,,,,,,,,,,,,,,,,,,,,,,,,,,,,,,,,,,,,,,,,,,,,,,,,,,,,,,,,,,,,,,,
,,63039dbefda87c47a91fec04,2022-09-08_13h13.09.282,CGTgamblingSpanTasks,2022.2.1,Win32,60.29181237,,,,,,,,3.1146,,,,,,,,,,,,,,1,v,0.8854,0,1,4.1146,1,,,,,,24.479109,0,0.089582697,,,,,,,,,,,,,0,62,62,89,1,0.900200232,0,,,,,,,,,,,,,,,,,,,,,,,,,,,,,,,,,,,,,,,,,,,,,,,,,,,,,,,,,,,,,,,,,,,,,,,,,,,,,,,,
,,63039dbefda87c47a91fec04,2022-09-08_13h13.09.282,CGTgamblingSpanTasks,2022.2.1,Win32,60.29181237,,,,,,,,2.8019,,,,,,,,,,,,,,2,n,1.1981,0,1,4.3019,1.5,,,,,,23.4214135,0,2.485985001,,,,,,,,,,,,,0,63,63,81,1,0.482105905,1,,,,,,,,,,,,,,,,,,,,,,,,,,,,,,,,,,,,,,,,,,,,,,,,,,,,,,,,,,,,,,,,,,,,,,,,,,,,,,,,
,,63039dbefda87c47a91fec04,2022-09-08_13h13.09.282,CGTgamblingSpanTasks,2022.2.1,Win32,60.29181237,,,,,,,,3.0182,,,,,,,,,,,,,,1,v,0.9818,0,1,4.0182,1,,,,,,22.87092517,0,0.059276504,,,,,,,,,,,,,0,64,64,27,1,0.911114935,0,,,,,,,,,,,,,,,,,,,,,,,,,,,,,,,,,,,,,,,,,,,,,,,,,,,,,,,,,,,,,,,,,,,,,,,,,,,,,,,,
,,63039dbefda87c47a91fec04,2022-09-08_13h13.09.282,CGTgamblingSpanTasks,2022.2.1,Win32,60.29181237,,,,,,,,3.0168,,,,,,,,,,,,,,1,v,0.9832,22.72923833,1,4.5168,1.5,,,,,,22.72923833,0,0.067170781,,,,,,,,,,,,,0,65,65,86,1,0.907226703,0,,,,,,,,,,,,,,,,,,,,,,,,,,,,,,,,,,,,,,,,,,,,,,,,,,,,,,,,,,,,,,,,,,,,,,,,,,,,,,,,
,,63039dbefda87c47a91fec04,2022-09-08_13h13.09.282,CGTgamblingSpanTasks,2022.2.1,Win32,60.29181237,,,,,,,,2.8317,,,,,,,,,,,,,,1,v,1.1683,0,1,4.3317,1.5,,,,,,17.5608285,0,1.825111303,,,,,,,,,,,,,0,66,66,104,1,0.487721116,1,,,,,,,,,,,,,,,,,,,,,,,,,,,,,,,,,,,,,,,,,,,,,,,,,,,,,,,,,,,,,,,,,,,,,,,,,,,,,,,,
,,63039dbefda87c47a91fec04,2022-09-08_13h13.09.282,CGTgamblingSpanTasks,2022.2.1,Win32,60.29181237,,,,,,,,3.1713,,,,,,,,,,,,,,2,v,0.8287,10.3417501,0,4.6713,1.5,,,,,,15.21435748,0,10.3417501,,,,,,,,,,,,,0,67,67,72,1,0.060969226,0,,,,,,,,,,,,,,,,,,,,,,,,,,,,,,,,,,,,,,,,,,,,,,,,,,,,,,,,,,,,,,,,,,,,,,,,,,,,,,,,
,,63039dbefda87c47a91fec04,2022-09-08_13h13.09.282,CGTgamblingSpanTasks,2022.2.1,Win32,60.29181237,,,,,,,,2.9523,,,,,,,,,,,,,,2,n,1.0477,0,1,4.4523,1.5,,,,,,25.65316415,0,0.079652925,,,,,,,,,,,,,0,68,68,109,1,0.90568168,0,,,,,,,,,,,,,,,,,,,,,,,,,,,,,,,,,,,,,,,,,,,,,,,,,,,,,,,,,,,,,,,,,,,,,,,,,,,,,,,,
,,63039dbefda87c47a91fec04,2022-09-08_13h13.09.282,CGTgamblingSpanTasks,2022.2.1,Win32,60.29181237,,,,,,,,3.2072,,,,,,,,,,,,,,2,n,0.7928,24.57684014,1,4.2072,1,,,,,,24.57684014,0,0.061756244,,,,,,,,,,,,,0,69,69,68,1,0.911988903,0,,,,,,,,,,,,,,,,,,,,,,,,,,,,,,,,,,,,,,,,,,,,,,,,,,,,,,,,,,,,,,,,,,,,,,,,,,,,,,,,
,,63039dbefda87c47a91fec04,2022-09-08_13h13.09.282,CGTgamblingSpanTasks,2022.2.1,Win32,60.29181237,,,,,,,,3.1527,,,,,,,,,,,,,,2,n,0.8473,0,1,4.6527,1.5,,,,,,26.4985979,0,0.051324376,,,,,,,,,,,,,0,70,70,106,1,0.918747215,0,,,,,,,,,,,,,,,,,,,,,,,,,,,,,,,,,,,,,,,,,,,,,,,,,,,,,,,,,,,,,,,,,,,,,,,,,,,,,,,,
,,63039dbefda87c47a91fec04,2022-09-08_13h13.09.282,CGTgamblingSpanTasks,2022.2.1,Win32,60.29181237,,,,,,,,3.1637,,,,,,,,,,,,,,2,v,0.8363,8.653432553,0,4.6637,1.5,,,,,,15.13999312,0,8.653432553,,,,,,,,,,,,,0,71,71,54,1,0.081767484,0,,,,,,,,,,,,,,,,,,,,,,,,,,,,,,,,,,,,,,,,,,,,,,,,,,,,,,,,,,,,,,,,,,,,,,,,,,,,,,,,
,,63039dbefda87c47a91fec04,2022-09-08_13h13.09.282,CGTgamblingSpanTasks,2022.2.1,Win32,60.29181237,,,,,,,,2.9804,,,,,,,,,,,,,,1,v,1.0196,0,1,4.4804,1.5,,,,,,27.2532142,0,0.08089327,,,,,,,,,,,,,0,72,72,119,1,0.907091845,0,,,,,,,,,,,,,,,,,,,,,,,,,,,,,,,,,,,,,,,,,,,,,,,,,,,,,,,,,,,,,,,,,,,,,,,,,,,,,,,,
,,63039dbefda87c47a91fec04,2022-09-08_13h13.09.282,CGTgamblingSpanTasks,2022.2.1,Win32,60.29181237,,,,,,,,2.9544,,,,,,,,,,,,,,2,n,1.0456,0,1,4.4544,1.5,,,,,,9.012590634,0,1.002188111,,,,,,,,,,,,,0,73,73,12,1,0.46958041,1,,,,,,,,,,,,,,,,,,,,,,,,,,,,,,,,,,,,,,,,,,,,,,,,,,,,,,,,,,,,,,,,,,,,,,,,,,,,,,,,
,,63039dbefda87c47a91fec04,2022-09-08_13h13.09.282,CGTgamblingSpanTasks,2022.2.1,Win32,60.29181237,,,,,,,,3.2037,,,,,,,,,,,,,,2,v,0.7963,11.39288827,0,4.2037,1,,,,,,20.97851654,0,11.39288827,,,,,,,,,,,,,0,74,74,2,1,0.088791079,0,,,,,,,,,,,,,,,,,,,,,,,,,,,,,,,,,,,,,,,,,,,,,,,,,,,,,,,,,,,,,,,,,,,,,,,,,,,,,,,,
,,63039dbefda87c47a91fec04,2022-09-08_13h13.09.282,CGTgamblingSpanTasks,2022.2.1,Win32,60.29181237,,,,,,,,2.9983,,,,,,,,,,,,,,2,n,1.0017,0,1,3.9983,1,,,,,,21.03408097,0,2.208275162,,,,,,,,,,,,,0,75,75,0,1,0.485031246,1,,,,,,,,,,,,,,,,,,,,,,,,,,,,,,,,,,,,,,,,,,,,,,,,,,,,,,,,,,,,,,,,,,,,,,,,,,,,,,,,
,,63039dbefda87c47a91fec04,2022-09-08_13h13.09.282,CGTgamblingSpanTasks,2022.2.1,Win32,60.29181237,,,,,,,,3.2858,,,,,,,,,,,,,,2,v,0.7142,2.860319095,0,4.7858,1.5,,,,,,27.37527992,0,2.860319095,,,,,,,,,,,,,0,76,76,39,1,0.486304156,1,,,,,,,,,,,,,,,,,,,,,,,,,,,,,,,,,,,,,,,,,,,,,,,,,,,,,,,,,,,,,,,,,,,,,,,,,,,,,,,,
,,63039dbefda87c47a91fec04,2022-09-08_13h13.09.282,CGTgamblingSpanTasks,2022.2.1,Win32,60.29181237,,,,,,,,2.9517,,,,,,,,,,,,,,1,v,1.0483,29.77342428,1,3.9517,1,,,,,,29.77342428,0,2.838865588,,,,,,,,,,,,,0,77,77,57,1,0.510363415,1,,,,,,,,,,,,,,,,,,,,,,,,,,,,,,,,,,,,,,,,,,,,,,,,,,,,,,,,,,,,,,,,,,,,,,,,,,,,,,,,
,,63039dbefda87c47a91fec04,2022-09-08_13h13.09.282,CGTgamblingSpanTasks,2022.2.1,Win32,60.29181237,,,,,,,,3.2464,,,,,,,,,,,,,,2,n,0.7536,27.77179191,1,4.7464,1.5,,,,,,27.77179191,0,0.074524436,,,,,,,,,,,,,0,78,78,99,1,0.910114387,0,,,,,,,,,,,,,,,,,,,,,,,,,,,,,,,,,,,,,,,,,,,,,,,,,,,,,,,,,,,,,,,,,,,,,,,,,,,,,,,,
,,63039dbefda87c47a91fec04,2022-09-08_13h13.09.282,CGTgamblingSpanTasks,2022.2.1,Win32,60.29181237,,,,,,,,3.004,,,,,,,,,,,,,,2,v,0.996,2.030232342,0,4.004,1,,,,,,19.3050342,0,2.030232342,,,,,,,,,,,,,0,79,79,73,1,0.484573227,1,,,,,,,,,,,,,,,,,,,,,,,,,,,,,,,,,,,,,,,,,,,,,,,,,,,,,,,,,,,,,,,,,,,,,,,,,,,,,,,,
,,63039dbefda87c47a91fec04,2022-09-08_13h13.09.282,CGTgamblingSpanTasks,2022.2.1,Win32,60.29181237,,,,,,,,2.9183,,,,,,,,,,,,,,1,n,1.0817,8.512335864,0,3.9183,1,,,,,,10.05300841,0,8.512335864,,,,,,,,,,,,,0,80,80,74,1,0.040729225,0,,,,,,,,,,,,,,,,,,,,,,,,,,,,,,,,,,,,,,,,,,,,,,,,,,,,,,,,,,,,,,,,,,,,,,,,,,,,,,,,
,,63039dbefda87c47a91fec04,2022-09-08_13h13.09.282,CGTgamblingSpanTasks,2022.2.1,Win32,60.29181237,,,,,,,,2.7556,,,,,,,,,,,,,,1,v,1.2444,0,1,4.2556,1.5,,,,,,22.0050376,0,2.257683666,,,,,,,,,,,,,0,81,81,4,1,0.491147312,1,,,,,,,,,,,,,,,,,,,,,,,,,,,,,,,,,,,,,,,,,,,,,,,,,,,,,,,,,,,,,,,,,,,,,,,,,,,,,,,,
,,63039dbefda87c47a91fec04,2022-09-08_13h13.09.282,CGTgamblingSpanTasks,2022.2.1,Win32,60.29181237,,,,,,,,3.1708,,,,,,,,,,,,,,2,v,0.8292,7.50753835,0,4.6708,1.5,,,,,,2.231316635,0,7.50753835,,,,,,,,,,,,,0,82,82,29,1,0.010273427,0,,,,,,,,,,,,,,,,,,,,,,,,,,,,,,,,,,,,,,,,,,,,,,,,,,,,,,,,,,,,,,,,,,,,,,,,,,,,,,,,
,,63039dbefda87c47a91fec04,2022-09-08_13h13.09.282,CGTgamblingSpanTasks,2022.2.1,Win32,60.29181237,,,,,,,,3.0223,,,,,,,,,,,,,,2,n,0.9777,7.534278541,1,4.5223,1.5,,,,,,7.534278541,0,0.747140182,,,,,,,,,,,,,0,83,83,37,1,0.50012466,1,,,,,,,,,,,,,,,,,,,,,,,,,,,,,,,,,,,,,,,,,,,,,,,,,,,,,,,,,,,,,,,,,,,,,,,,,,,,,,,,
,,63039dbefda87c47a91fec04,2022-09-08_13h13.09.282,CGTgamblingSpanTasks,2022.2.1,Win32,60.29181237,,,,,,,,2.538,,,,,,,,,,,,,,1,v,1.462,7.066129113,1,4.038,1.5,,,,,,7.066129113,0,0.585581699,,,,,,,,,,,,,0,84,84,19,1,0.545860632,1,,,,,,,,,,,,,,,,,,,,,,,,,,,,,,,,,,,,,,,,,,,,,,,,,,,,,,,,,,,,,,,,,,,,,,,,,,,,,,,,
,,63039dbefda87c47a91fec04,2022-09-08_13h13.09.282,CGTgamblingSpanTasks,2022.2.1,Win32,60.29181237,,,,,,,,3.0501,,,,,,,,,,,,,,2,n,0.9499,0,1,4.5501,1.5,,,,,,17.30137174,0,1.716380842,,,,,,,,,,,,,0,85,85,20,1,0.500020285,1,,,,,,,,,,,,,,,,,,,,,,,,,,,,,,,,,,,,,,,,,,,,,,,,,,,,,,,,,,,,,,,,,,,,,,,,,,,,,,,,
,,63039dbefda87c47a91fec04,2022-09-08_13h13.09.282,CGTgamblingSpanTasks,2022.2.1,Win32,60.29181237,,,,,,,,2.916,,,,,,,,,,,,,,1,n,1.084,10.41201161,0,3.916,1,,,,,,6.307062696,0,10.41201161,,,,,,,,,,,,,0,86,86,23,1,0.018187109,0,,,,,,,,,,,,,,,,,,,,,,,,,,,,,,,,,,,,,,,,,,,,,,,,,,,,,,,,,,,,,,,,,,,,,,,,,,,,,,,,
,,63039dbefda87c47a91fec04,2022-09-08_13h13.09.282,CGTgamblingSpanTasks,2022.2.1,Win32,60.29181237,,,,,,,,3.014,,,,,,,,,,,,,,1,n,0.986,2.469465385,0,4.014,1,,,,,,21.16780451,0,2.469465385,,,,,,,,,,,,,0,87,87,32,1,0.456531699,1,,,,,,,,,,,,,,,,,,,,,,,,,,,,,,,,,,,,,,,,,,,,,,,,,,,,,,,,,,,,,,,,,,,,,,,,,,,,,,,,
,,63039dbefda87c47a91fec04,2022-09-08_13h13.09.282,CGTgamblingSpanTasks,2022.2.1,Win32,60.29181237,,,,,,,,2.905,,,,,,,,,,,,,,2,n,1.095,28.18900855,1,4.405,1.5,,,,,,28.18900855,0,0.05384276,,,,,,,,,,,,,0,88,88,55,1,0.919081308,0,,,,,,,,,,,,,,,,,,,,,,,,,,,,,,,,,,,,,,,,,,,,,,,,,,,,,,,,,,,,,,,,,,,,,,,,,,,,,,,,
,,63039dbefda87c47a91fec04,2022-09-08_13h13.09.282,CGTgamblingSpanTasks,2022.2.1,Win32,60.29181237,,,,,,,,2.8036,,,,,,,,,,,,,,2,v,1.1964,7.850775577,0,3.8036,1,,,,,,4.622707531,0,7.850775577,,,,,,,,,,,,,0,89,89,6,1,0.017737407,0,,,,,,,,,,,,,,,,,,,,,,,,,,,,,,,,,,,,,,,,,,,,,,,,,,,,,,,,,,,,,,,,,,,,,,,,,,,,,,,,
,,63039dbefda87c47a91fec04,2022-09-08_13h13.09.282,CGTgamblingSpanTasks,2022.2.1,Win32,60.29181237,,,,,,,,3.0458,,,,,,,,,,,,,,2,n,0.9542,28.9323758,1,4.5458,1.5,,,,,,28.9323758,0,2.893007023,,,,,,,,,,,,,0,90,90,11,1,0.497943321,1,,,,,,,,,,,,,,,,,,,,,,,,,,,,,,,,,,,,,,,,,,,,,,,,,,,,,,,,,,,,,,,,,,,,,,,,,,,,,,,,
,,63039dbefda87c47a91fec04,2022-09-08_13h13.09.282,CGTgamblingSpanTasks,2022.2.1,Win32,60.29181237,,,,,,,,3.1384,,,,,,,,,,,,,,2,n,0.8616,0,1,4.6384,1.5,,,,,,26.16821818,0,0.093528069,,,,,,,,,,,,,0,91,91,42,1,0.901022427,0,,,,,,,,,,,,,,,,,,,,,,,,,,,,,,,,,,,,,,,,,,,,,,,,,,,,,,,,,,,,,,,,,,,,,,,,,,,,,,,,
,,63039dbefda87c47a91fec04,2022-09-08_13h13.09.282,CGTgamblingSpanTasks,2022.2.1,Win32,60.29181237,,,,,,,,2.9695,,,,,,,,,,,,,,2,n,1.0305,0,1,3.9695,1,,,,,,27.88092897,0,2.771762788,,,,,,,,,,,,,0,92,92,117,1,0.499466648,1,,,,,,,,,,,,,,,,,,,,,,,,,,,,,,,,,,,,,,,,,,,,,,,,,,,,,,,,,,,,,,,,,,,,,,,,,,,,,,,,
,,63039dbefda87c47a91fec04,2022-09-08_13h13.09.282,CGTgamblingSpanTasks,2022.2.1,Win32,60.29181237,,,,,,,,3.0367,,,,,,,,,,,,,,1,n,0.9633,4.462262453,0,4.5367,1.5,,,,,,0.192759042,0,4.462262453,,,,,,,,,,,,,0,93,93,52,1,0.003553223,0,,,,,,,,,,,,,,,,,,,,,,,,,,,,,,,,,,,,,,,,,,,,,,,,,,,,,,,,,,,,,,,,,,,,,,,,,,,,,,,,
,,63039dbefda87c47a91fec04,2022-09-08_13h13.09.282,CGTgamblingSpanTasks,2022.2.1,Win32,60.29181237,,,,,,,,3.0191,,,,,,,,,,,,,,2,n,0.9809,0,1,4.0191,1,,,,,,29.75778644,0,2.810531415,,,,,,,,,,,,,0,94,94,113,1,0.512824233,1,,,,,,,,,,,,,,,,,,,,,,,,,,,,,,,,,,,,,,,,,,,,,,,,,,,,,,,,,,,,,,,,,,,,,,,,,,,,,,,,
,,63039dbefda87c47a91fec04,2022-09-08_13h13.09.282,CGTgamblingSpanTasks,2022.2.1,Win32,60.29181237,,,,,,,,2.9847,,,,,,,,,,,,,,1,n,1.0153,11.35147481,0,4.4847,1.5,,,,,,17.67865084,0,11.35147481,,,,,,,,,,,,,0,95,95,91,1,0.067304606,0,,,,,,,,,,,,,,,,,,,,,,,,,,,,,,,,,,,,,,,,,,,,,,,,,,,,,,,,,,,,,,,,,,,,,,,,,,,,,,,,
,,63039dbefda87c47a91fec04,2022-09-08_13h13.09.282,CGTgamblingSpanTasks,2022.2.1,Win32,60.29181237,,,,,,,,2.6707,,,,,,,,,,,,,,2,v,1.3293,1.317368801,0,4.1707,1.5,,,,,,13.4287264,0,1.317368801,,,,,,,,,,,,,0,96,96,100,1,0.502953125,1,,,,,,,,,,,,,,,,,,,,,,,,,,,,,,,,,,,,,,,,,,,,,,,,,,,,,,,,,,,,,,,,,,,,,,,,,,,,,,,,
,,63039dbefda87c47a91fec04,2022-09-08_13h13.09.282,CGTgamblingSpanTasks,2022.2.1,Win32,60.29181237,,,,,,,,3.1429,,,,,,,,,,,,,,1,v,0.8571,27.60724521,1,4.6429,1.5,,,,,,27.60724521,0,0.088432325,,,,,,,,,,,,,0,97,97,17,1,0.904684186,0,,,,,,,,,,,,,,,,,,,,,,,,,,,,,,,,,,,,,,,,,,,,,,,,,,,,,,,,,,,,,,,,,,,,,,,,,,,,,,,,
,,63039dbefda87c47a91fec04,2022-09-08_13h13.09.282,CGTgamblingSpanTasks,2022.2.1,Win32,60.29181237,,,,,,,,2.9185,,,,,,,,,,,,,,1,n,1.0815,1.207538756,0,4.4185,1.5,,,,,,11.08143071,0,1.207538756,,,,,,,,,,,,,0,98,98,84,1,0.475047453,1,,,,,,,,,,,,,,,,,,,,,,,,,,,,,,,,,,,,,,,,,,,,,,,,,,,,,,,,,,,,,,,,,,,,,,,,,,,,,,,,
,,63039dbefda87c47a91fec04,2022-09-08_13h13.09.282,CGTgamblingSpanTasks,2022.2.1,Win32,60.29181237,,,,,,,,3.2942,,,,,,,,,,,,,,2,v,0.7058,8.579385201,0,4.2942,1,,,,,,14.11762686,0,8.579385201,,,,,,,,,,,,,0,99,99,60,1,0.073886959,0,,,,,,,,,,,,,,,,,,,,,,,,,,,,,,,,,,,,,,,,,,,,,,,,,,,,,,,,,,,,,,,,,,,,,,,,,,,,,,,,
,,63039dbefda87c47a91fec04,2022-09-08_13h13.09.282,CGTgamblingSpanTasks,2022.2.1,Win32,60.29181237,,,,,,,,2.9555,,,,,,,,,,,,,,1,n,1.0445,1.932334278,0,3.9555,1,,,,,,18.51345298,0,1.932334278,,,,,,,,,,,,,0,100,100,31,1,0.48658696,1,,,,,,,,,,,,,,,,,,,,,,,,,,,,,,,,,,,,,,,,,,,,,,,,,,,,,,,,,,,,,,,,,,,,,,,,,,,,,,,,
,,63039dbefda87c47a91fec04,2022-09-08_13h13.09.282,CGTgamblingSpanTasks,2022.2.1,Win32,60.29181237,,,,,,,,2.9528,,,,,,,,,,,,,,1,v,1.0472,21.17800335,1,3.9528,1,,,,,,21.17800335,0,0.059830985,,,,,,,,,,,,,0,101,101,67,1,0.908594974,0,,,,,,,,,,,,,,,,,,,,,,,,,,,,,,,,,,,,,,,,,,,,,,,,,,,,,,,,,,,,,,,,,,,,,,,,,,,,,,,,
,,63039dbefda87c47a91fec04,2022-09-08_13h13.09.282,CGTgamblingSpanTasks,2022.2.1,Win32,60.29181237,,,,,,,,2.8873,,,,,,,,,,,,,,1,v,1.1127,29.76099779,1,3.8873,1,,,,,,29.76099779,0,0.095763086,,,,,,,,,,,,,0,102,102,35,1,0.904537896,0,,,,,,,,,,,,,,,,,,,,,,,,,,,,,,,,,,,,,,,,,,,,,,,,,,,,,,,,,,,,,,,,,,,,,,,,,,,,,,,,
,,63039dbefda87c47a91fec04,2022-09-08_13h13.09.282,CGTgamblingSpanTasks,2022.2.1,Win32,60.29181237,,,,,,,,3.0718,,,,,,,,,,,,,,1,n,0.9282,2.229247341,0,4.0718,1,,,,,,21.48443242,0,2.229247341,,,,,,,,,,,,,0,103,103,63,1,0.488155912,1,,,,,,,,,,,,,,,,,,,,,,,,,,,,,,,,,,,,,,,,,,,,,,,,,,,,,,,,,,,,,,,,,,,,,,,,,,,,,,,,
,,63039dbefda87c47a91fec04,2022-09-08_13h13.09.282,CGTgamblingSpanTasks,2022.2.1,Win32,60.29181237,,,,,,,,3.0555,,,,,,,,,,,,,,2,n,0.9445,25.21882231,1,4.0555,1,,,,,,25.21882231,0,0.085746782,,,,,,,,,,,,,0,104,104,64,1,0.90272076,0,,,,,,,,,,,,,,,,,,,,,,,,,,,,,,,,,,,,,,,,,,,,,,,,,,,,,,,,,,,,,,,,,,,,,,,,,,,,,,,,
,,63039dbefda87c47a91fec04,2022-09-08_13h13.09.282,CGTgamblingSpanTasks,2022.2.1,Win32,60.29181237,,,,,,,,3.0723,,,,,,,,,,,,,,2,v,0.9277,6.091504705,0,4.0723,1,,,,,,6.662965216,0,6.091504705,,,,,,,,,,,,,0,105,105,102,1,0.035087099,0,,,,,,,,,,,,,,,,,,,,,,,,,,,,,,,,,,,,,,,,,,,,,,,,,,,,,,,,,,,,,,,,,,,,,,,,,,,,,,,,
,,63039dbefda87c47a91fec04,2022-09-08_13h13.09.282,CGTgamblingSpanTasks,2022.2.1,Win32,60.29181237,,,,,,,,2.806,,,,,,,,,,,,,,1,v,1.194,19.5450126,1,3.806,1,,,,,,19.5450126,0,2.123581464,,,,,,,,,,,,,0,106,106,65,1,0.475836144,1,,,,,,,,,,,,,,,,,,,,,,,,,,,,,,,,,,,,,,,,,,,,,,,,,,,,,,,,,,,,,,,,,,,,,,,,,,,,,,,,
,,63039dbefda87c47a91fec04,2022-09-08_13h13.09.282,CGTgamblingSpanTasks,2022.2.1,Win32,60.29181237,,,,,,,,2.9202,,,,,,,,,,,,,,1,v,1.0798,8.217594828,1,3.9202,1,,,,,,8.217594828,0,0.951019374,,,,,,,,,,,,,0,107,107,87,1,0.458722936,1,,,,,,,,,,,,,,,,,,,,,,,,,,,,,,,,,,,,,,,,,,,,,,,,,,,,,,,,,,,,,,,,,,,,,,,,,,,,,,,,
,,63039dbefda87c47a91fec04,2022-09-08_13h13.09.282,CGTgamblingSpanTasks,2022.2.1,Win32,60.29181237,,,,,,,,3.1697,,,,,,,,,,,,,,2,v,0.8303,11.6744431,0,4.6697,1.5,,,,,,10.43004651,0,11.6744431,,,,,,,,,,,,,0,108,108,15,1,0.026176489,0,,,,,,,,,,,,,,,,,,,,,,,,,,,,,,,,,,,,,,,,,,,,,,,,,,,,,,,,,,,,,,,,,,,,,,,,,,,,,,,,
,,63039dbefda87c47a91fec04,2022-09-08_13h13.09.282,CGTgamblingSpanTasks,2022.2.1,Win32,60.29181237,,,,,,,,3.1386,,,,,,,,,,,,,,2,n,0.8614,0,1,4.6386,1.5,,,,,,18.50662664,0,0.052546026,,,,,,,,,,,,,0,109,109,112,1,0.908444837,0,,,,,,,,,,,,,,,,,,,,,,,,,,,,,,,,,,,,,,,,,,,,,,,,,,,,,,,,,,,,,,,,,,,,,,,,,,,,,,,,
,,63039dbefda87c47a91fec04,2022-09-08_13h13.09.282,CGTgamblingSpanTasks,2022.2.1,Win32,60.29181237,,,,,,,,2.9749,,,,,,,,,,,,,,2,n,1.0251,0,1,3.9749,1,,,,,,18.16238569,0,1.540604093,,,,,,,,,,,,,0,110,110,34,1,0.540092491,1,,,,,,,,,,,,,,,,,,,,,,,,,,,,,,,,,,,,,,,,,,,,,,,,,,,,,,,,,,,,,,,,,,,,,,,,,,,,,,,,
,,63039dbefda87c47a91fec04,2022-09-08_13h13.09.282,CGTgamblingSpanTasks,2022.2.1,Win32,60.29181237,,,,,,,,2.8017,,,,,,,,,,,,,,1,n,1.1983,11.93550497,0,3.8017,1,,,,,,14.20587264,0,11.93550497,,,,,,,,,,,,,0,111,111,21,1,0.041340301,0,,,,,,,,,,,,,,,,,,,,,,,,,,,,,,,,,,,,,,,,,,,,,,,,,,,,,,,,,,,,,,,,,,,,,,,,,,,,,,,,
,,63039dbefda87c47a91fec04,2022-09-08_13h13.09.282,CGTgamblingSpanTasks,2022.2.1,Win32,60.29181237,,,,,,,,2.7401,,,,,,,,,,,,,,1,v,1.2599,0,1,4.2401,1.5,,,,,,25.26994993,0,2.78925142,,,,,,,,,,,,,0,112,112,108,1,0.471582922,1,,,,,,,,,,,,,,,,,,,,,,,,,,,,,,,,,,,,,,,,,,,,,,,,,,,,,,,,,,,,,,,,,,,,,,,,,,,,,,,,
,,63039dbefda87c47a91fec04,2022-09-08_13h13.09.282,CGTgamblingSpanTasks,2022.2.1,Win32,60.29181237,,,,,,,,2.8558,,,,,,,,,,,,,,1,v,1.1442,0,1,4.3558,1.5,,,,,,24.35708027,0,2.738695417,,,,,,,,,,,,,0,113,113,114,1,0.466573634,1,,,,,,,,,,,,,,,,,,,,,,,,,,,,,,,,,,,,,,,,,,,,,,,,,,,,,,,,,,,,,,,,,,,,,,,,,,,,,,,,
,,63039dbefda87c47a91fec04,2022-09-08_13h13.09.282,CGTgamblingSpanTasks,2022.2.1,Win32,60.29181237,,,,,,,,2.9944,,,,,,,,,,,,,,2,n,1.0056,0,1,3.9944,1,,,,,,22.86604061,0,2.293289792,,,,,,,,,,,,,0,114,114,51,1,0.49715382,1,,,,,,,,,,,,,,,,,,,,,,,,,,,,,,,,,,,,,,,,,,,,,,,,,,,,,,,,,,,,,,,,,,,,,,,,,,,,,,,,
,,63039dbefda87c47a91fec04,2022-09-08_13h13.09.282,CGTgamblingSpanTasks,2022.2.1,Win32,60.29181237,,,,,,,,2.74,,,,,,,,,,,,,,2,n,1.26,27.4965044,1,4.24,1.5,,,,,,27.4965044,0,2.461467004,,,,,,,,,,,,,0,115,115,36,1,0.526550878,1,,,,,,,,,,,,,,,,,,,,,,,,,,,,,,,,,,,,,,,,,,,,,,,,,,,,,,,,,,,,,,,,,,,,,,,,,,,,,,,,
,,63039dbefda87c47a91fec04,2022-09-08_13h13.09.282,CGTgamblingSpanTasks,2022.2.1,Win32,60.29181237,,,,,,,,3.1137,,,,,,,,,,,,,,2,v,0.8863,11.61882862,0,4.6137,1.5,,,,,,4.022743614,0,11.61882862,,,,,,,,,,,,,0,116,116,38,1,0.011499376,0,,,,,,,,,,,,,,,,,,,,,,,,,,,,,,,,,,,,,,,,,,,,,,,,,,,,,,,,,,,,,,,,,,,,,,,,,,,,,,,,
,,63039dbefda87c47a91fec04,2022-09-08_13h13.09.282,CGTgamblingSpanTasks,2022.2.1,Win32,60.29181237,,,,,,,,2.9521,,,,,,,,,,,,,,2,n,1.0479,0,1,4.4521,1.5,,,,,,21.00799273,0,0.067969053,,,,,,,,,,,,,0,117,117,92,1,0.904360262,0,,,,,,,,,,,,,,,,,,,,,,,,,,,,,,,,,,,,,,,,,,,,,,,,,,,,,,,,,,,,,,,,,,,,,,,,,,,,,,,,
,,63039dbefda87c47a91fec04,2022-09-08_13h13.09.282,CGTgamblingSpanTasks,2022.2.1,Win32,60.29181237,,,,,,,,2.7389,,,,,,,,,,,,,,1,v,1.2611,0,1,3.7389,1,,,,,,8.670591867,0,1.025847652,,,,,,,,,,,,,0,118,118,18,1,0.452680459,1,,,,,,,,,,,,,,,,,,,,,,,,,,,,,,,,,,,,,,,,,,,,,,,,,,,,,,,,,,,,,,,,,,,,,,,,,,,,,,,,
,,63039dbefda87c47a91fec04,2022-09-08_13h13.09.282,CGTgamblingSpanTasks,2022.2.1,Win32,60.29181237,,,,,,,,2.7537,,,,,,,,,,,,,,1,n,1.2463,6.833409611,0,4.2537,1.5,,,,,,6.325091157,0,6.833409611,,,,,,,,,,,,,0,119,119,58,1,0.027113638,0,,,,,,,,,,,,,,,,,,,,,,,,,,,,,,,,,,,,,,,,,,,,,,,,,,,,,,,,,,,,,,,,,,,,,,,,,,,,,,,,
,,63039dbefda87c47a91fec04,2022-09-08_13h13.09.282,CGTgamblingSpanTasks,2022.2.1,Win32,60.29181237,,,,,,,,,,,,,,,,,,,,,,,,,,,,,,,,,,,,,,,,,,,,,,,,,,,,,,,,return,354.4121,,,,,,,,,,,,,,,,,,,,,,,,,,,,,,,,,,,,,,,,,,,,,,,,,,,,,,,,,,,,,,,,,,,,,,,,,,,,,,
,,63039dbefda87c47a91fec04,2022-09-08_13h13.09.282,CGTgamblingSpanTasks,2022.2.1,Win32,60.29181237,,,,,,,,,,,,,,,,,,,,,,,,,,,,,,,,,,,,,,,,,,,,,,,,,,,,,,,,,,return,141.9908,,,,,,,,,,,,,,,,,,,,,,,,,,,,,,,,,,,,,,,,,,,,,,,,,,,,,,,,,,,,,,,,,,,,,,,,,,,,
,,63039dbefda87c47a91fec04,2022-09-08_13h13.09.282,CGTgamblingSpanTasks,2022.2.1,Win32,60.29181237,,,,,,,,,,,,,,,,,,,,,,,,,,,,,,,,,,,,,,,,,,,,,,,,,,,,,,,,,,,,return,47.21,,,,,,,,,,,,,,,,,,,,,,,,,,,,,,,,,,,,,,,,,,,,,,,,,,,,,,,,,,,,,,,,,,,,,,,,,,
,,63039dbefda87c47a91fec04,2022-09-08_13h13.09.282,CGTgamblingSpanTasks,2022.2.1,Win32,60.29181237,,,,,,,,,,,,,,,,,,,,,,,,,,,,,,,,,,,,,,,,,,,,,,,,,,,,,,,,,,,,,,342,1,0.009259259,-0.389814801,1,0,0,cont_buttonPractice,0,0,0,0,1,3,342,24,2,42,,,,,,,,,,,,,,,,,,,,,,,,,,,,,,,,,,,,,,,,,,,,,,,,,,,,,,,,
,,63039dbefda87c47a91fec04,2022-09-08_13h13.09.282,CGTgamblingSpanTasks,2022.2.1,Win32,60.29181237,,,,,,,,,,,,,,,,,,,,,,,,,,,,,,,,,,,,,,,,,,,,,,,,,,,,,,,,,,,,,,937,1,0.007407436,-0.398148148,1,0,0,cont_buttonPractice,0,1,1,1,1,3,937,73,2,37,,,,,,,,,,,,,,,,,,,,,,,,,,,,,,,,,,,,,,,,,,,,,,,,,,,,,,,,
,,63039dbefda87c47a91fec04,2022-09-08_13h13.09.282,CGTgamblingSpanTasks,2022.2.1,Win32,60.29181237,,,,,,,,,,,,,,,,,,,,,,,,,,,,,,,,,,,,,,,,,,,,,,,,,,,,,,,,,,,,,,,,,,,,,,,,,,,,,,,,return,14.5618,,,,,,,,,,,,,,,,,,,,,,,,,,,,,,,,,,,,,,,,,,,,,,,,,,,,,,
,,63039dbefda87c47a91fec04,2022-09-08_13h13.09.282,CGTgamblingSpanTasks,2022.2.1,Win32,60.29181237,,,,,,,,,,,,,,,,,,,,,,,,,,,,,,,,,,,,,,,,,,,,,,,,,,,,,,,,,,,,,,,,,,,,,,,,,,,,,,,,,,"[7,3,1]",0,0,0,0,1,,,,,,,,,,,,,,,,,,,,,,,,,,,,,,,,,,,,,,,,,,,,,,,,
,,63039dbefda87c47a91fec04,2022-09-08_13h13.09.282,CGTgamblingSpanTasks,2022.2.1,Win32,60.29181237,,,,,,,,,,,,,,,,,,,,,,,,,,,,,,,,,,,,,,,,,,,,,,,,,,,,,,,,,,,,,,,,,,,,,,,,,,,,,,,,,,"[7,3,1]",1,0,1,0,1,,,,,,,,,,,,,,,,,,,,,,,,,,,,,,,,,,,,,,,,,,,,,,,,
,,63039dbefda87c47a91fec04,2022-09-08_13h13.09.282,CGTgamblingSpanTasks,2022.2.1,Win32,60.29181237,,,,,,,,,,,,,,,,,,,,,,,,,,,,,,,,,,,,,,,,,,,,,,,,,,,,,,,,,,,,,,,,,,,,,,,,,,,,,,,,,,"[7,3,1]",2,0,2,0,1,,,,,,,,,,,,,,,,,,,,,,,,,,,,,,,,,,,,,,,,,,,,,,,,
,,63039dbefda87c47a91fec04,2022-09-08_13h13.09.282,CGTgamblingSpanTasks,2022.2.1,Win32,60.29181237,,,,,,,,,,,,,,,,,,,,,,,,,,,,,,,,,,,,,,,,,,,,,,,,,,,,,,,,,,,,,,,1,,,,,,,,,,,,,,,,,,,,,,,,,731,0.016666695,-0.407407407,1,0,0,cont_button,0,0,0,0,1,1,,,,,,,,,,,,,,,,,,,,,,,,,,,,,,,,,,,
,,63039dbefda87c47a91fec04,2022-09-08_13h13.09.282,CGTgamblingSpanTasks,2022.2.1,Win32,60.29181237,,,,,,,,,,,,,,,,,,,,,,,,,,,,,,,,,,,,,,,,,,,,,,,,,,,,,,,,,,,,,,,,,,,,,,,,,,,,,,,,,,"[8,7,4,2]",0,0,0,0,1,,,,,,,,,,,,,,,,,,,,,,,,,,,,,,,,,,,,,,,,,,,,,,,,
,,63039dbefda87c47a91fec04,2022-09-08_13h13.09.282,CGTgamblingSpanTasks,2022.2.1,Win32,60.29181237,,,,,,,,,,,,,,,,,,,,,,,,,,,,,,,,,,,,,,,,,,,,,,,,,,,,,,,,,,,,,,,,,,,,,,,,,,,,,,,,,,"[8,7,4,2]",1,0,1,0,1,,,,,,,,,,,,,,,,,,,,,,,,,,,,,,,,,,,,,,,,,,,,,,,,
,,63039dbefda87c47a91fec04,2022-09-08_13h13.09.282,CGTgamblingSpanTasks,2022.2.1,Win32,60.29181237,,,,,,,,,,,,,,,,,,,,,,,,,,,,,,,,,,,,,,,,,,,,,,,,,,,,,,,,,,,,,,,,,,,,,,,,,,,,,,,,,,"[8,7,4,2]",2,0,2,0,1,,,,,,,,,,,,,,,,,,,,,,,,,,,,,,,,,,,,,,,,,,,,,,,,
,,63039dbefda87c47a91fec04,2022-09-08_13h13.09.282,CGTgamblingSpanTasks,2022.2.1,Win32,60.29181237,,,,,,,,,,,,,,,,,,,,,,,,,,,,,,,,,,,,,,,,,,,,,,,,,,,,,,,,,,,,,,,,,,,,,,,,,,,,,,,,,,"[8,7,4,2]",3,0,3,0,1,,,,,,,,,,,,,,,,,,,,,,,,,,,,,,,,,,,,,,,,,,,,,,,,
,,63039dbefda87c47a91fec04,2022-09-08_13h13.09.282,CGTgamblingSpanTasks,2022.2.1,Win32,60.29181237,,,,,,,,,,,,,,,,,,,,,,,,,,,,,,,,,,,,,,,,,,,,,,,,,,,,,,,,,,,,,,,1,,,,,,,,,,,,,,,,,,,,,,,,,8742,0.016666695,-0.407407407,1,0,0,cont_button,0,1,1,1,1,2,,,,,,,,,,,,,,,,,,,,,,,,,,,,,,,,,,,
,,63039dbefda87c47a91fec04,2022-09-08_13h13.09.282,CGTgamblingSpanTasks,2022.2.1,Win32,60.29181237,,,,,,,,,,,,,,,,,,,,,,,,,,,,,,,,,,,,,,,,,,,,,,,,,,,,,,,,,,,,,,,,,,,,,,,,,,,,,,,,,,"[4,6,5,7,1]",0,0,0,0,1,,,,,,,,,,,,,,,,,,,,,,,,,,,,,,,,,,,,,,,,,,,,,,,,
,,63039dbefda87c47a91fec04,2022-09-08_13h13.09.282,CGTgamblingSpanTasks,2022.2.1,Win32,60.29181237,,,,,,,,,,,,,,,,,,,,,,,,,,,,,,,,,,,,,,,,,,,,,,,,,,,,,,,,,,,,,,,,,,,,,,,,,,,,,,,,,,"[4,6,5,7,1]",1,0,1,0,1,,,,,,,,,,,,,,,,,,,,,,,,,,,,,,,,,,,,,,,,,,,,,,,,
,,63039dbefda87c47a91fec04,2022-09-08_13h13.09.282,CGTgamblingSpanTasks,2022.2.1,Win32,60.29181237,,,,,,,,,,,,,,,,,,,,,,,,,,,,,,,,,,,,,,,,,,,,,,,,,,,,,,,,,,,,,,,,,,,,,,,,,,,,,,,,,,"[4,6,5,7,1]",2,0,2,0,1,,,,,,,,,,,,,,,,,,,,,,,,,,,,,,,,,,,,,,,,,,,,,,,,
,,63039dbefda87c47a91fec04,2022-09-08_13h13.09.282,CGTgamblingSpanTasks,2022.2.1,Win32,60.29181237,,,,,,,,,,,,,,,,,,,,,,,,,,,,,,,,,,,,,,,,,,,,,,,,,,,,,,,,,,,,,,,,,,,,,,,,,,,,,,,,,,"[4,6,5,7,1]",3,0,3,0,1,,,,,,,,,,,,,,,,,,,,,,,,,,,,,,,,,,,,,,,,,,,,,,,,
,,63039dbefda87c47a91fec04,2022-09-08_13h13.09.282,CGTgamblingSpanTasks,2022.2.1,Win32,60.29181237,,,,,,,,,,,,,,,,,,,,,,,,,,,,,,,,,,,,,,,,,,,,,,,,,,,,,,,,,,,,,,,,,,,,,,,,,,,,,,,,,,"[4,6,5,7,1]",4,0,4,0,1,,,,,,,,,,,,,,,,,,,,,,,,,,,,,,,,,,,,,,,,,,,,,,,,
,,63039dbefda87c47a91fec04,2022-09-08_13h13.09.282,CGTgamblingSpanTasks,2022.2.1,Win32,60.29181237,,,,,,,,,,,,,,,,,,,,,,,,,,,,,,,,,,,,,,,,,,,,,,,,,,,,,,,,,,,,,,,1,,,,,,,,,,,,,,,,,,,,,,,,,46571,0.020370413,-0.376851894,1,0,0,cont_button,0,2,2,2,1,3,,,,,,,,,,,,,,,,,,,,,,,,,,,,,,,,,,,
,,63039dbefda87c47a91fec04,2022-09-08_13h13.09.282,CGTgamblingSpanTasks,2022.2.1,Win32,60.29181237,,,,,,,,,,,,,,,,,,,,,,,,,,,,,,,,,,,,,,,,,,,,,,,,,,,,,,,,,,,,,,,,,,,,,,,,,,,,,,,,,,"[4,7,9,1,2,6]",0,0,0,0,1,,,,,,,,,,,,,,,,,,,,,,,,,,,,,,,,,,,,,,,,,,,,,,,,
,,63039dbefda87c47a91fec04,2022-09-08_13h13.09.282,CGTgamblingSpanTasks,2022.2.1,Win32,60.29181237,,,,,,,,,,,,,,,,,,,,,,,,,,,,,,,,,,,,,,,,,,,,,,,,,,,,,,,,,,,,,,,,,,,,,,,,,,,,,,,,,,"[4,7,9,1,2,6]",1,0,1,0,1,,,,,,,,,,,,,,,,,,,,,,,,,,,,,,,,,,,,,,,,,,,,,,,,
,,63039dbefda87c47a91fec04,2022-09-08_13h13.09.282,CGTgamblingSpanTasks,2022.2.1,Win32,60.29181237,,,,,,,,,,,,,,,,,,,,,,,,,,,,,,,,,,,,,,,,,,,,,,,,,,,,,,,,,,,,,,,,,,,,,,,,,,,,,,,,,,"[4,7,9,1,2,6]",2,0,2,0,1,,,,,,,,,,,,,,,,,,,,,,,,,,,,,,,,,,,,,,,,,,,,,,,,
,,63039dbefda87c47a91fec04,2022-09-08_13h13.09.282,CGTgamblingSpanTasks,2022.2.1,Win32,60.29181237,,,,,,,,,,,,,,,,,,,,,,,,,,,,,,,,,,,,,,,,,,,,,,,,,,,,,,,,,,,,,,,,,,,,,,,,,,,,,,,,,,"[4,7,9,1,2,6]",3,0,3,0,1,,,,,,,,,,,,,,,,,,,,,,,,,,,,,,,,,,,,,,,,,,,,,,,,
,,63039dbefda87c47a91fec04,2022-09-08_13h13.09.282,CGTgamblingSpanTasks,2022.2.1,Win32,60.29181237,,,,,,,,,,,,,,,,,,,,,,,,,,,,,,,,,,,,,,,,,,,,,,,,,,,,,,,,,,,,,,,,,,,,,,,,,,,,,,,,,,"[4,7,9,1,2,6]",4,0,4,0,1,,,,,,,,,,,,,,,,,,,,,,,,,,,,,,,,,,,,,,,,,,,,,,,,
,,63039dbefda87c47a91fec04,2022-09-08_13h13.09.282,CGTgamblingSpanTasks,2022.2.1,Win32,60.29181237,,,,,,,,,,,,,,,,,,,,,,,,,,,,,,,,,,,,,,,,,,,,,,,,,,,,,,,,,,,,,,,,,,,,,,,,,,,,,,,,,,"[4,7,9,1,2,6]",5,0,5,0,1,,,,,,,,,,,,,,,,,,,,,,,,,,,,,,,,,,,,,,,,,,,,,,,,
,,63039dbefda87c47a91fec04,2022-09-08_13h13.09.282,CGTgamblingSpanTasks,2022.2.1,Win32,60.29181237,,,,,,,,,,,,,,,,,,,,,,,,,,,,,,,,,,,,,,,,,,,,,,,,,,,,,,,,,,,,,,,0,,,,,,,,,,,,,,,,,,,,,,,,,479216,0.020370413,-0.384259259,1,0,0,cont_button,0,3,3,3,1,4,,,,,,,,,,,,,,,,,,,,,,,,,,,,,,,,,,,
,,63039dbefda87c47a91fec04,2022-09-08_13h13.09.282,CGTgamblingSpanTasks,2022.2.1,Win32,60.29181237,,,,,,,,,,,,,,,,,,,,,,,,,,,,,,,,,,,,,,,,,,,,,,,,,,,,,,,,,,,,,,,,,,,,,,,,,,,,,,,,,,"[3,2,8,7,9,4]",0,0,0,0,1,,,,,,,,,,,,,,,,,,,,,,,,,,,,,,,,,,,,,,,,,,,,,,,,
,,63039dbefda87c47a91fec04,2022-09-08_13h13.09.282,CGTgamblingSpanTasks,2022.2.1,Win32,60.29181237,,,,,,,,,,,,,,,,,,,,,,,,,,,,,,,,,,,,,,,,,,,,,,,,,,,,,,,,,,,,,,,,,,,,,,,,,,,,,,,,,,"[3,2,8,7,9,4]",1,0,1,0,1,,,,,,,,,,,,,,,,,,,,,,,,,,,,,,,,,,,,,,,,,,,,,,,,
,,63039dbefda87c47a91fec04,2022-09-08_13h13.09.282,CGTgamblingSpanTasks,2022.2.1,Win32,60.29181237,,,,,,,,,,,,,,,,,,,,,,,,,,,,,,,,,,,,,,,,,,,,,,,,,,,,,,,,,,,,,,,,,,,,,,,,,,,,,,,,,,"[3,2,8,7,9,4]",2,0,2,0,1,,,,,,,,,,,,,,,,,,,,,,,,,,,,,,,,,,,,,,,,,,,,,,,,
,,63039dbefda87c47a91fec04,2022-09-08_13h13.09.282,CGTgamblingSpanTasks,2022.2.1,Win32,60.29181237,,,,,,,,,,,,,,,,,,,,,,,,,,,,,,,,,,,,,,,,,,,,,,,,,,,,,,,,,,,,,,,,,,,,,,,,,,,,,,,,,,"[3,2,8,7,9,4]",3,0,3,0,1,,,,,,,,,,,,,,,,,,,,,,,,,,,,,,,,,,,,,,,,,,,,,,,,
,,63039dbefda87c47a91fec04,2022-09-08_13h13.09.282,CGTgamblingSpanTasks,2022.2.1,Win32,60.29181237,,,,,,,,,,,,,,,,,,,,,,,,,,,,,,,,,,,,,,,,,,,,,,,,,,,,,,,,,,,,,,,,,,,,,,,,,,,,,,,,,,"[3,2,8,7,9,4]",4,0,4,0,1,,,,,,,,,,,,,,,,,,,,,,,,,,,,,,,,,,,,,,,,,,,,,,,,
,,63039dbefda87c47a91fec04,2022-09-08_13h13.09.282,CGTgamblingSpanTasks,2022.2.1,Win32,60.29181237,,,,,,,,,,,,,,,,,,,,,,,,,,,,,,,,,,,,,,,,,,,,,,,,,,,,,,,,,,,,,,,,,,,,,,,,,,,,,,,,,,"[3,2,8,7,9,4]",5,0,5,0,1,,,,,,,,,,,,,,,,,,,,,,,,,,,,,,,,,,,,,,,,,,,,,,,,
,,63039dbefda87c47a91fec04,2022-09-08_13h13.09.282,CGTgamblingSpanTasks,2022.2.1,Win32,60.29181237,,,,,,,,,,,,,,,,,,,,,,,,,,,,,,,,,,,,,,,,,,,,,,,,,,,,,,,,,,,,,,,1,,,,,,,,,,,,,,,,,,,,,,,,,328794,0.016666695,-0.39907406,1,0,0,cont_button,0,4,4,4,1,5,,,,,,,,,,,,,,,,,,,,,,,,,,,,,,,,,,,
,,63039dbefda87c47a91fec04,2022-09-08_13h13.09.282,CGTgamblingSpanTasks,2022.2.1,Win32,60.29181237,,,,,,,,,,,,,,,,,,,,,,,,,,,,,,,,,,,,,,,,,,,,,,,,,,,,,,,,,,,,,,,,,,,,,,,,,,,,,,,,,,"[8,6,7,5,3,2,9]",0,0,0,0,1,,,,,,,,,,,,,,,,,,,,,,,,,,,,,,,,,,,,,,,,,,,,,,,,
,,63039dbefda87c47a91fec04,2022-09-08_13h13.09.282,CGTgamblingSpanTasks,2022.2.1,Win32,60.29181237,,,,,,,,,,,,,,,,,,,,,,,,,,,,,,,,,,,,,,,,,,,,,,,,,,,,,,,,,,,,,,,,,,,,,,,,,,,,,,,,,,"[8,6,7,5,3,2,9]",1,0,1,0,1,,,,,,,,,,,,,,,,,,,,,,,,,,,,,,,,,,,,,,,,,,,,,,,,
,,63039dbefda87c47a91fec04,2022-09-08_13h13.09.282,CGTgamblingSpanTasks,2022.2.1,Win32,60.29181237,,,,,,,,,,,,,,,,,,,,,,,,,,,,,,,,,,,,,,,,,,,,,,,,,,,,,,,,,,,,,,,,,,,,,,,,,,,,,,,,,,"[8,6,7,5,3,2,9]",2,0,2,0,1,,,,,,,,,,,,,,,,,,,,,,,,,,,,,,,,,,,,,,,,,,,,,,,,
,,63039dbefda87c47a91fec04,2022-09-08_13h13.09.282,CGTgamblingSpanTasks,2022.2.1,Win32,60.29181237,,,,,,,,,,,,,,,,,,,,,,,,,,,,,,,,,,,,,,,,,,,,,,,,,,,,,,,,,,,,,,,,,,,,,,,,,,,,,,,,,,"[8,6,7,5,3,2,9]",3,0,3,0,1,,,,,,,,,,,,,,,,,,,,,,,,,,,,,,,,,,,,,,,,,,,,,,,,
,,63039dbefda87c47a91fec04,2022-09-08_13h13.09.282,CGTgamblingSpanTasks,2022.2.1,Win32,60.29181237,,,,,,,,,,,,,,,,,,,,,,,,,,,,,,,,,,,,,,,,,,,,,,,,,,,,,,,,,,,,,,,,,,,,,,,,,,,,,,,,,,"[8,6,7,5,3,2,9]",4,0,4,0,1,,,,,,,,,,,,,,,,,,,,,,,,,,,,,,,,,,,,,,,,,,,,,,,,
,,63039dbefda87c47a91fec04,2022-09-08_13h13.09.282,CGTgamblingSpanTasks,2022.2.1,Win32,60.29181237,,,,,,,,,,,,,,,,,,,,,,,,,,,,,,,,,,,,,,,,,,,,,,,,,,,,,,,,,,,,,,,,,,,,,,,,,,,,,,,,,,"[8,6,7,5,3,2,9]",5,0,5,0,1,,,,,,,,,,,,,,,,,,,,,,,,,,,,,,,,,,,,,,,,,,,,,,,,
,,63039dbefda87c47a91fec04,2022-09-08_13h13.09.282,CGTgamblingSpanTasks,2022.2.1,Win32,60.29181237,,,,,,,,,,,,,,,,,,,,,,,,,,,,,,,,,,,,,,,,,,,,,,,,,,,,,,,,,,,,,,,,,,,,,,,,,,,,,,,,,,"[8,6,7,5,3,2,9]",6,0,6,0,1,,,,,,,,,,,,,,,,,,,,,,,,,,,,,,,,,,,,,,,,,,,,,,,,
,,63039dbefda87c47a91fec04,2022-09-08_13h13.09.282,CGTgamblingSpanTasks,2022.2.1,Win32,60.29181237,,,,,,,,,,,,,,,,,,,,,,,,,,,,,,,,,,,,,,,,,,,,,,,,,,,,,,,,,,,,,,,0,,,,,,,,,,,,,,,,,,,,,,,,,8657329,0.016666695,-0.39907406,1,0,0,cont_button,0,5,5,5,1,6,,,,,,,,,,,,,,,,,,,,,,,,,,,,,,,,,,,
,,63039dbefda87c47a91fec04,2022-09-08_13h13.09.282,CGTgamblingSpanTasks,2022.2.1,Win32,60.29181237,,,,,,,,,,,,,,,,,,,,,,,,,,,,,,,,,,,,,,,,,,,,,,,,,,,,,,,,,,,,,,,,,,,,,,,,,,,,,,,,,,"[5,3,4,6,8,9,1]",0,0,0,0,1,,,,,,,,,,,,,,,,,,,,,,,,,,,,,,,,,,,,,,,,,,,,,,,,
,,63039dbefda87c47a91fec04,2022-09-08_13h13.09.282,CGTgamblingSpanTasks,2022.2.1,Win32,60.29181237,,,,,,,,,,,,,,,,,,,,,,,,,,,,,,,,,,,,,,,,,,,,,,,,,,,,,,,,,,,,,,,,,,,,,,,,,,,,,,,,,,"[5,3,4,6,8,9,1]",1,0,1,0,1,,,,,,,,,,,,,,,,,,,,,,,,,,,,,,,,,,,,,,,,,,,,,,,,
,,63039dbefda87c47a91fec04,2022-09-08_13h13.09.282,CGTgamblingSpanTasks,2022.2.1,Win32,60.29181237,,,,,,,,,,,,,,,,,,,,,,,,,,,,,,,,,,,,,,,,,,,,,,,,,,,,,,,,,,,,,,,,,,,,,,,,,,,,,,,,,,"[5,3,4,6,8,9,1]",2,0,2,0,1,,,,,,,,,,,,,,,,,,,,,,,,,,,,,,,,,,,,,,,,,,,,,,,,
,,63039dbefda87c47a91fec04,2022-09-08_13h13.09.282,CGTgamblingSpanTasks,2022.2.1,Win32,60.29181237,,,,,,,,,,,,,,,,,,,,,,,,,,,,,,,,,,,,,,,,,,,,,,,,,,,,,,,,,,,,,,,,,,,,,,,,,,,,,,,,,,"[5,3,4,6,8,9,1]",3,0,3,0,1,,,,,,,,,,,,,,,,,,,,,,,,,,,,,,,,,,,,,,,,,,,,,,,,
,,63039dbefda87c47a91fec04,2022-09-08_13h13.09.282,CGTgamblingSpanTasks,2022.2.1,Win32,60.29181237,,,,,,,,,,,,,,,,,,,,,,,,,,,,,,,,,,,,,,,,,,,,,,,,,,,,,,,,,,,,,,,,,,,,,,,,,,,,,,,,,,"[5,3,4,6,8,9,1]",4,0,4,0,1,,,,,,,,,,,,,,,,,,,,,,,,,,,,,,,,,,,,,,,,,,,,,,,,
,,63039dbefda87c47a91fec04,2022-09-08_13h13.09.282,CGTgamblingSpanTasks,2022.2.1,Win32,60.29181237,,,,,,,,,,,,,,,,,,,,,,,,,,,,,,,,,,,,,,,,,,,,,,,,,,,,,,,,,,,,,,,,,,,,,,,,,,,,,,,,,,"[5,3,4,6,8,9,1]",5,0,5,0,1,,,,,,,,,,,,,,,,,,,,,,,,,,,,,,,,,,,,,,,,,,,,,,,,
,,63039dbefda87c47a91fec04,2022-09-08_13h13.09.282,CGTgamblingSpanTasks,2022.2.1,Win32,60.29181237,,,,,,,,,,,,,,,,,,,,,,,,,,,,,,,,,,,,,,,,,,,,,,,,,,,,,,,,,,,,,,,,,,,,,,,,,,,,,,,,,,"[5,3,4,6,8,9,1]",6,0,6,0,1,,,,,,,,,,,,,,,,,,,,,,,,,,,,,,,,,,,,,,,,,,,,,,,,
,,63039dbefda87c47a91fec04,2022-09-08_13h13.09.282,CGTgamblingSpanTasks,2022.2.1,Win32,60.29181237,,,,,,,,,,,,,,,,,,,,,,,,,,,,,,,,,,,,,,,,,,,,,,,,,,,,,,,,,,,,,,,1,,,,,,,,,,,,,,,,,,,,,,,,,5346891,0.016666695,-0.39907406,1,0,0,cont_button,0,6,6,6,1,7,,,,,,,,,,,,,,,,,,,,,,,,,,,,,,,,,,,
,,63039dbefda87c47a91fec04,2022-09-08_13h13.09.282,CGTgamblingSpanTasks,2022.2.1,Win32,60.29181237,,,,,,,,,,,,,,,,,,,,,,,,,,,,,,,,,,,,,,,,,,,,,,,,,,,,,,,,,,,,,,,,,,,,,,,,,,,,,,,,,,"[7,9,5,4,8,6,2,1]",0,0,0,0,1,,,,,,,,,,,,,,,,,,,,,,,,,,,,,,,,,,,,,,,,,,,,,,,,
,,63039dbefda87c47a91fec04,2022-09-08_13h13.09.282,CGTgamblingSpanTasks,2022.2.1,Win32,60.29181237,,,,,,,,,,,,,,,,,,,,,,,,,,,,,,,,,,,,,,,,,,,,,,,,,,,,,,,,,,,,,,,,,,,,,,,,,,,,,,,,,,"[7,9,5,4,8,6,2,1]",1,0,1,0,1,,,,,,,,,,,,,,,,,,,,,,,,,,,,,,,,,,,,,,,,,,,,,,,,
,,63039dbefda87c47a91fec04,2022-09-08_13h13.09.282,CGTgamblingSpanTasks,2022.2.1,Win32,60.29181237,,,,,,,,,,,,,,,,,,,,,,,,,,,,,,,,,,,,,,,,,,,,,,,,,,,,,,,,,,,,,,,,,,,,,,,,,,,,,,,,,,"[7,9,5,4,8,6,2,1]",2,0,2,0,1,,,,,,,,,,,,,,,,,,,,,,,,,,,,,,,,,,,,,,,,,,,,,,,,
,,63039dbefda87c47a91fec04,2022-09-08_13h13.09.282,CGTgamblingSpanTasks,2022.2.1,Win32,60.29181237,,,,,,,,,,,,,,,,,,,,,,,,,,,,,,,,,,,,,,,,,,,,,,,,,,,,,,,,,,,,,,,,,,,,,,,,,,,,,,,,,,"[7,9,5,4,8,6,2,1]",3,0,3,0,1,,,,,,,,,,,,,,,,,,,,,,,,,,,,,,,,,,,,,,,,,,,,,,,,
,,63039dbefda87c47a91fec04,2022-09-08_13h13.09.282,CGTgamblingSpanTasks,2022.2.1,Win32,60.29181237,,,,,,,,,,,,,,,,,,,,,,,,,,,,,,,,,,,,,,,,,,,,,,,,,,,,,,,,,,,,,,,,,,,,,,,,,,,,,,,,,,"[7,9,5,4,8,6,2,1]",4,0,4,0,1,,,,,,,,,,,,,,,,,,,,,,,,,,,,,,,,,,,,,,,,,,,,,,,,
,,63039dbefda87c47a91fec04,2022-09-08_13h13.09.282,CGTgamblingSpanTasks,2022.2.1,Win32,60.29181237,,,,,,,,,,,,,,,,,,,,,,,,,,,,,,,,,,,,,,,,,,,,,,,,,,,,,,,,,,,,,,,,,,,,,,,,,,,,,,,,,,"[7,9,5,4,8,6,2,1]",5,0,5,0,1,,,,,,,,,,,,,,,,,,,,,,,,,,,,,,,,,,,,,,,,,,,,,,,,
,,63039dbefda87c47a91fec04,2022-09-08_13h13.09.282,CGTgamblingSpanTasks,2022.2.1,Win32,60.29181237,,,,,,,,,,,,,,,,,,,,,,,,,,,,,,,,,,,,,,,,,,,,,,,,,,,,,,,,,,,,,,,,,,,,,,,,,,,,,,,,,,"[7,9,5,4,8,6,2,1]",6,0,6,0,1,,,,,,,,,,,,,,,,,,,,,,,,,,,,,,,,,,,,,,,,,,,,,,,,
,,63039dbefda87c47a91fec04,2022-09-08_13h13.09.282,CGTgamblingSpanTasks,2022.2.1,Win32,60.29181237,,,,,,,,,,,,,,,,,,,,,,,,,,,,,,,,,,,,,,,,,,,,,,,,,,,,,,,,,,,,,,,,,,,,,,,,,,,,,,,,,,"[7,9,5,4,8,6,2,1]",7,0,7,0,1,,,,,,,,,,,,,,,,,,,,,,,,,,,,,,,,,,,,,,,,,,,,,,,,
,,63039dbefda87c47a91fec04,2022-09-08_13h13.09.282,CGTgamblingSpanTasks,2022.2.1,Win32,60.29181237,,,,,,,,,,,,,,,,,,,,,,,,,,,,,,,,,,,,,,,,,,,,,,,,,,,,,,,,,,,,,,,0,,,,,,,,,,,,,,,,,,,,,,,,,75948621,0.016666695,-0.39907406,1,0,0,cont_button,0,7,7,7,1,8,,,,,,,,,,,,,,,,,,,,,,,,,,,,,,,,,,,
,,63039dbefda87c47a91fec04,2022-09-08_13h13.09.282,CGTgamblingSpanTasks,2022.2.1,Win32,60.29181237,,,,,,,,,,,,,,,,,,,,,,,,,,,,,,,,,,,,,,,,,,,,,,,,,,,,,,,,,,,,,,,,,,,,,,,,,,,,,,,,,,"[1,5,9,2,7,6,8,3]",0,0,0,0,1,,,,,,,,,,,,,,,,,,,,,,,,,,,,,,,,,,,,,,,,,,,,,,,,
,,63039dbefda87c47a91fec04,2022-09-08_13h13.09.282,CGTgamblingSpanTasks,2022.2.1,Win32,60.29181237,,,,,,,,,,,,,,,,,,,,,,,,,,,,,,,,,,,,,,,,,,,,,,,,,,,,,,,,,,,,,,,,,,,,,,,,,,,,,,,,,,"[1,5,9,2,7,6,8,3]",1,0,1,0,1,,,,,,,,,,,,,,,,,,,,,,,,,,,,,,,,,,,,,,,,,,,,,,,,
,,63039dbefda87c47a91fec04,2022-09-08_13h13.09.282,CGTgamblingSpanTasks,2022.2.1,Win32,60.29181237,,,,,,,,,,,,,,,,,,,,,,,,,,,,,,,,,,,,,,,,,,,,,,,,,,,,,,,,,,,,,,,,,,,,,,,,,,,,,,,,,,"[1,5,9,2,7,6,8,3]",2,0,2,0,1,,,,,,,,,,,,,,,,,,,,,,,,,,,,,,,,,,,,,,,,,,,,,,,,
,,63039dbefda87c47a91fec04,2022-09-08_13h13.09.282,CGTgamblingSpanTasks,2022.2.1,Win32,60.29181237,,,,,,,,,,,,,,,,,,,,,,,,,,,,,,,,,,,,,,,,,,,,,,,,,,,,,,,,,,,,,,,,,,,,,,,,,,,,,,,,,,"[1,5,9,2,7,6,8,3]",3,0,3,0,1,,,,,,,,,,,,,,,,,,,,,,,,,,,,,,,,,,,,,,,,,,,,,,,,
,,63039dbefda87c47a91fec04,2022-09-08_13h13.09.282,CGTgamblingSpanTasks,2022.2.1,Win32,60.29181237,,,,,,,,,,,,,,,,,,,,,,,,,,,,,,,,,,,,,,,,,,,,,,,,,,,,,,,,,,,,,,,,,,,,,,,,,,,,,,,,,,"[1,5,9,2,7,6,8,3]",4,0,4,0,1,,,,,,,,,,,,,,,,,,,,,,,,,,,,,,,,,,,,,,,,,,,,,,,,
,,63039dbefda87c47a91fec04,2022-09-08_13h13.09.282,CGTgamblingSpanTasks,2022.2.1,Win32,60.29181237,,,,,,,,,,,,,,,,,,,,,,,,,,,,,,,,,,,,,,,,,,,,,,,,,,,,,,,,,,,,,,,,,,,,,,,,,,,,,,,,,,"[1,5,9,2,7,6,8,3]",5,0,5,0,1,,,,,,,,,,,,,,,,,,,,,,,,,,,,,,,,,,,,,,,,,,,,,,,,
,,63039dbefda87c47a91fec04,2022-09-08_13h13.09.282,CGTgamblingSpanTasks,2022.2.1,Win32,60.29181237,,,,,,,,,,,,,,,,,,,,,,,,,,,,,,,,,,,,,,,,,,,,,,,,,,,,,,,,,,,,,,,,,,,,,,,,,,,,,,,,,,"[1,5,9,2,7,6,8,3]",6,0,6,0,1,,,,,,,,,,,,,,,,,,,,,,,,,,,,,,,,,,,,,,,,,,,,,,,,
,,63039dbefda87c47a91fec04,2022-09-08_13h13.09.282,CGTgamblingSpanTasks,2022.2.1,Win32,60.29181237,,,,,,,,,,,,,,,,,,,,,,,,,,,,,,,,,,,,,,,,,,,,,,,,,,,,,,,,,,,,,,,,,,,,,,,,,,,,,,,,,,"[1,5,9,2,7,6,8,3]",7,0,7,0,1,,,,,,,,,,,,,,,,,,,,,,,,,,,,,,,,,,,,,,,,,,,,,,,,
,,63039dbefda87c47a91fec04,2022-09-08_13h13.09.282,CGTgamblingSpanTasks,2022.2.1,Win32,60.29181237,,,,,,,,,,,,,,,,,,,,,,,,,,,,,,,,,,,,,,,,,,,,,,,,,,,,,,,,,,,,,,,0,,,,,,,,,,,,,,,,,,,,,,,,,1527683,-0.018518519,-0.422222208,1,0,0,cont_button,0,8,8,8,1,9,,,,,,,,,,,,,,,,,,,,,,,,,,,,,,,,,,,
,,63039dbefda87c47a91fec04,2022-09-08_13h13.09.282,CGTgamblingSpanTasks,2022.2.1,Win32,60.29181237,,,,,,,,,,,,,,,,,,,,,,,,,,,,,,,,,,,,,,,,,,,,,,,,,,,,,,,,,,,,,,,,,,,,,,,,,,,,,,,,,,"[1,7,3,2,8,5,9]",0,0,0,0,1,,,,,,,,,,,,,,,,,,,,,,,,,,,,,,,,,,,,,,,,,,,,,,,,
,,63039dbefda87c47a91fec04,2022-09-08_13h13.09.282,CGTgamblingSpanTasks,2022.2.1,Win32,60.29181237,,,,,,,,,,,,,,,,,,,,,,,,,,,,,,,,,,,,,,,,,,,,,,,,,,,,,,,,,,,,,,,,,,,,,,,,,,,,,,,,,,"[1,7,3,2,8,5,9]",1,0,1,0,1,,,,,,,,,,,,,,,,,,,,,,,,,,,,,,,,,,,,,,,,,,,,,,,,
,,63039dbefda87c47a91fec04,2022-09-08_13h13.09.282,CGTgamblingSpanTasks,2022.2.1,Win32,60.29181237,,,,,,,,,,,,,,,,,,,,,,,,,,,,,,,,,,,,,,,,,,,,,,,,,,,,,,,,,,,,,,,,,,,,,,,,,,,,,,,,,,"[1,7,3,2,8,5,9]",2,0,2,0,1,,,,,,,,,,,,,,,,,,,,,,,,,,,,,,,,,,,,,,,,,,,,,,,,
,,63039dbefda87c47a91fec04,2022-09-08_13h13.09.282,CGTgamblingSpanTasks,2022.2.1,Win32,60.29181237,,,,,,,,,,,,,,,,,,,,,,,,,,,,,,,,,,,,,,,,,,,,,,,,,,,,,,,,,,,,,,,,,,,,,,,,,,,,,,,,,,"[1,7,3,2,8,5,9]",3,0,3,0,1,,,,,,,,,,,,,,,,,,,,,,,,,,,,,,,,,,,,,,,,,,,,,,,,
,,63039dbefda87c47a91fec04,2022-09-08_13h13.09.282,CGTgamblingSpanTasks,2022.2.1,Win32,60.29181237,,,,,,,,,,,,,,,,,,,,,,,,,,,,,,,,,,,,,,,,,,,,,,,,,,,,,,,,,,,,,,,,,,,,,,,,,,,,,,,,,,"[1,7,3,2,8,5,9]",4,0,4,0,1,,,,,,,,,,,,,,,,,,,,,,,,,,,,,,,,,,,,,,,,,,,,,,,,
,,63039dbefda87c47a91fec04,2022-09-08_13h13.09.282,CGTgamblingSpanTasks,2022.2.1,Win32,60.29181237,,,,,,,,,,,,,,,,,,,,,,,,,,,,,,,,,,,,,,,,,,,,,,,,,,,,,,,,,,,,,,,,,,,,,,,,,,,,,,,,,,"[1,7,3,2,8,5,9]",5,0,5,0,1,,,,,,,,,,,,,,,,,,,,,,,,,,,,,,,,,,,,,,,,,,,,,,,,
,,63039dbefda87c47a91fec04,2022-09-08_13h13.09.282,CGTgamblingSpanTasks,2022.2.1,Win32,60.29181237,,,,,,,,,,,,,,,,,,,,,,,,,,,,,,,,,,,,,,,,,,,,,,,,,,,,,,,,,,,,,,,,,,,,,,,,,,,,,,,,,,"[1,7,3,2,8,5,9]",6,0,6,0,1,,,,,,,,,,,,,,,,,,,,,,,,,,,,,,,,,,,,,,,,,,,,,,,,
,,63039dbefda87c47a91fec04,2022-09-08_13h13.09.282,CGTgamblingSpanTasks,2022.2.1,Win32,60.29181237,,,,,,,,,,,,,,,,,,,,,,,,,,,,,,,,,,,,,,,,,,,,,,,,,,,,,,,,,,,,,,,1,,,,,,,,,,,,,,,,,,,,,,,,,1732859,-0.031481496,-0.412962949,1,0,0,cont_button,0,9,9,9,1,10,,,,,,,,,,,,,,,,,,,,,,,,,,,,,,,,,,,
,,63039dbefda87c47a91fec04,2022-09-08_13h13.09.282,CGTgamblingSpanTasks,2022.2.1,Win32,60.29181237,,,,,,,,,,,,,,,,,,,,,,,,,,,,,,,,,,,,,,,,,,,,,,,,,,,,,,,,,,,,,,,,,,,,,,,,,,,,,,,,,,"[4,8,3,6,7,2,5,9]",0,0,0,0,1,,,,,,,,,,,,,,,,,,,,,,,,,,,,,,,,,,,,,,,,,,,,,,,,
,,63039dbefda87c47a91fec04,2022-09-08_13h13.09.282,CGTgamblingSpanTasks,2022.2.1,Win32,60.29181237,,,,,,,,,,,,,,,,,,,,,,,,,,,,,,,,,,,,,,,,,,,,,,,,,,,,,,,,,,,,,,,,,,,,,,,,,,,,,,,,,,"[4,8,3,6,7,2,5,9]",1,0,1,0,1,,,,,,,,,,,,,,,,,,,,,,,,,,,,,,,,,,,,,,,,,,,,,,,,
,,63039dbefda87c47a91fec04,2022-09-08_13h13.09.282,CGTgamblingSpanTasks,2022.2.1,Win32,60.29181237,,,,,,,,,,,,,,,,,,,,,,,,,,,,,,,,,,,,,,,,,,,,,,,,,,,,,,,,,,,,,,,,,,,,,,,,,,,,,,,,,,"[4,8,3,6,7,2,5,9]",2,0,2,0,1,,,,,,,,,,,,,,,,,,,,,,,,,,,,,,,,,,,,,,,,,,,,,,,,
,,63039dbefda87c47a91fec04,2022-09-08_13h13.09.282,CGTgamblingSpanTasks,2022.2.1,Win32,60.29181237,,,,,,,,,,,,,,,,,,,,,,,,,,,,,,,,,,,,,,,,,,,,,,,,,,,,,,,,,,,,,,,,,,,,,,,,,,,,,,,,,,"[4,8,3,6,7,2,5,9]",3,0,3,0,1,,,,,,,,,,,,,,,,,,,,,,,,,,,,,,,,,,,,,,,,,,,,,,,,
,,63039dbefda87c47a91fec04,2022-09-08_13h13.09.282,CGTgamblingSpanTasks,2022.2.1,Win32,60.29181237,,,,,,,,,,,,,,,,,,,,,,,,,,,,,,,,,,,,,,,,,,,,,,,,,,,,,,,,,,,,,,,,,,,,,,,,,,,,,,,,,,"[4,8,3,6,7,2,5,9]",4,0,4,0,1,,,,,,,,,,,,,,,,,,,,,,,,,,,,,,,,,,,,,,,,,,,,,,,,
,,63039dbefda87c47a91fec04,2022-09-08_13h13.09.282,CGTgamblingSpanTasks,2022.2.1,Win32,60.29181237,,,,,,,,,,,,,,,,,,,,,,,,,,,,,,,,,,,,,,,,,,,,,,,,,,,,,,,,,,,,,,,,,,,,,,,,,,,,,,,,,,"[4,8,3,6,7,2,5,9]",5,0,5,0,1,,,,,,,,,,,,,,,,,,,,,,,,,,,,,,,,,,,,,,,,,,,,,,,,
,,63039dbefda87c47a91fec04,2022-09-08_13h13.09.282,CGTgamblingSpanTasks,2022.2.1,Win32,60.29181237,,,,,,,,,,,,,,,,,,,,,,,,,,,,,,,,,,,,,,,,,,,,,,,,,,,,,,,,,,,,,,,,,,,,,,,,,,,,,,,,,,"[4,8,3,6,7,2,5,9]",6,0,6,0,1,,,,,,,,,,,,,,,,,,,,,,,,,,,,,,,,,,,,,,,,,,,,,,,,
,,63039dbefda87c47a91fec04,2022-09-08_13h13.09.282,CGTgamblingSpanTasks,2022.2.1,Win32,60.29181237,,,,,,,,,,,,,,,,,,,,,,,,,,,,,,,,,,,,,,,,,,,,,,,,,,,,,,,,,,,,,,,,,,,,,,,,,,,,,,,,,,"[4,8,3,6,7,2,5,9]",7,0,7,0,1,,,,,,,,,,,,,,,,,,,,,,,,,,,,,,,,,,,,,,,,,,,,,,,,
,,63039dbefda87c47a91fec04,2022-09-08_13h13.09.282,CGTgamblingSpanTasks,2022.2.1,Win32,60.29181237,,,,,,,,,,,,,,,,,,,,,,,,,,,,,,,,,,,,,,,,,,,,,,,,,,,,,,,,,,,,,,,0,,,,,,,,,,,,,,,,,,,,,,,,,43687259,-0.031481496,-0.412962949,1,0,0,cont_button,0,10,10,10,1,11,,,,,,,,,,,,,,,,,,,,,,,,,,,,,,,,,,,
,,63039dbefda87c47a91fec04,2022-09-08_13h13.09.282,CGTgamblingSpanTasks,2022.2.1,Win32,60.29181237,,,,,,,,,,,,,,,,,,,,,,,,,,,,,,,,,,,,,,,,,,,,,,,,,,,,,,,,,,,,,,,,,,,,,,,,,,,,,,,,,,"[1,6,7,9,3,4,2,5]",0,0,0,0,1,,,,,,,,,,,,,,,,,,,,,,,,,,,,,,,,,,,,,,,,,,,,,,,,
,,63039dbefda87c47a91fec04,2022-09-08_13h13.09.282,CGTgamblingSpanTasks,2022.2.1,Win32,60.29181237,,,,,,,,,,,,,,,,,,,,,,,,,,,,,,,,,,,,,,,,,,,,,,,,,,,,,,,,,,,,,,,,,,,,,,,,,,,,,,,,,,"[1,6,7,9,3,4,2,5]",1,0,1,0,1,,,,,,,,,,,,,,,,,,,,,,,,,,,,,,,,,,,,,,,,,,,,,,,,
,,63039dbefda87c47a91fec04,2022-09-08_13h13.09.282,CGTgamblingSpanTasks,2022.2.1,Win32,60.29181237,,,,,,,,,,,,,,,,,,,,,,,,,,,,,,,,,,,,,,,,,,,,,,,,,,,,,,,,,,,,,,,,,,,,,,,,,,,,,,,,,,"[1,6,7,9,3,4,2,5]",2,0,2,0,1,,,,,,,,,,,,,,,,,,,,,,,,,,,,,,,,,,,,,,,,,,,,,,,,
,,63039dbefda87c47a91fec04,2022-09-08_13h13.09.282,CGTgamblingSpanTasks,2022.2.1,Win32,60.29181237,,,,,,,,,,,,,,,,,,,,,,,,,,,,,,,,,,,,,,,,,,,,,,,,,,,,,,,,,,,,,,,,,,,,,,,,,,,,,,,,,,"[1,6,7,9,3,4,2,5]",3,0,3,0,1,,,,,,,,,,,,,,,,,,,,,,,,,,,,,,,,,,,,,,,,,,,,,,,,
,,63039dbefda87c47a91fec04,2022-09-08_13h13.09.282,CGTgamblingSpanTasks,2022.2.1,Win32,60.29181237,,,,,,,,,,,,,,,,,,,,,,,,,,,,,,,,,,,,,,,,,,,,,,,,,,,,,,,,,,,,,,,,,,,,,,,,,,,,,,,,,,"[1,6,7,9,3,4,2,5]",4,0,4,0,1,,,,,,,,,,,,,,,,,,,,,,,,,,,,,,,,,,,,,,,,,,,,,,,,
,,63039dbefda87c47a91fec04,2022-09-08_13h13.09.282,CGTgamblingSpanTasks,2022.2.1,Win32,60.29181237,,,,,,,,,,,,,,,,,,,,,,,,,,,,,,,,,,,,,,,,,,,,,,,,,,,,,,,,,,,,,,,,,,,,,,,,,,,,,,,,,,"[1,6,7,9,3,4,2,5]",5,0,5,0,1,,,,,,,,,,,,,,,,,,,,,,,,,,,,,,,,,,,,,,,,,,,,,,,,
,,63039dbefda87c47a91fec04,2022-09-08_13h13.09.282,CGTgamblingSpanTasks,2022.2.1,Win32,60.29181237,,,,,,,,,,,,,,,,,,,,,,,,,,,,,,,,,,,,,,,,,,,,,,,,,,,,,,,,,,,,,,,,,,,,,,,,,,,,,,,,,,"[1,6,7,9,3,4,2,5]",6,0,6,0,1,,,,,,,,,,,,,,,,,,,,,,,,,,,,,,,,,,,,,,,,,,,,,,,,
,,63039dbefda87c47a91fec04,2022-09-08_13h13.09.282,CGTgamblingSpanTasks,2022.2.1,Win32,60.29181237,,,,,,,,,,,,,,,,,,,,,,,,,,,,,,,,,,,,,,,,,,,,,,,,,,,,,,,,,,,,,,,,,,,,,,,,,,,,,,,,,,"[1,6,7,9,3,4,2,5]",7,0,7,0,1,,,,,,,,,,,,,,,,,,,,,,,,,,,,,,,,,,,,,,,,,,,,,,,,
,,63039dbefda87c47a91fec04,2022-09-08_13h13.09.282,CGTgamblingSpanTasks,2022.2.1,Win32,60.29181237,,,,,,,,,,,,,,,,,,,,,,,,,,,,,,,,,,,,,,,,,,,,,,,,,,,,,,,,,,,,,,,1,,,,,,,,,,,,,,,,,,,,,,,,,16793425,-0.031481496,-0.391666695,1,0,0,cont_button,0,11,11,11,1,12,,,,,,,,,,,,,,,,,,,,,,,,,,,,,,,,,,,
,,63039dbefda87c47a91fec04,2022-09-08_13h13.09.282,CGTgamblingSpanTasks,2022.2.1,Win32,60.29181237,,,,,,,,,,,,,,,,,,,,,,,,,,,,,,,,,,,,,,,,,,,,,,,,,,,,,,,,,,,,,,,,,,,,,,,,,,,,,,,,,,"[6,5,1,3,9,2,8,4,7]",0,0,0,0,1,,,,,,,,,,,,,,,,,,,,,,,,,,,,,,,,,,,,,,,,,,,,,,,,
,,63039dbefda87c47a91fec04,2022-09-08_13h13.09.282,CGTgamblingSpanTasks,2022.2.1,Win32,60.29181237,,,,,,,,,,,,,,,,,,,,,,,,,,,,,,,,,,,,,,,,,,,,,,,,,,,,,,,,,,,,,,,,,,,,,,,,,,,,,,,,,,"[6,5,1,3,9,2,8,4,7]",1,0,1,0,1,,,,,,,,,,,,,,,,,,,,,,,,,,,,,,,,,,,,,,,,,,,,,,,,
,,63039dbefda87c47a91fec04,2022-09-08_13h13.09.282,CGTgamblingSpanTasks,2022.2.1,Win32,60.29181237,,,,,,,,,,,,,,,,,,,,,,,,,,,,,,,,,,,,,,,,,,,,,,,,,,,,,,,,,,,,,,,,,,,,,,,,,,,,,,,,,,"[6,5,1,3,9,2,8,4,7]",2,0,2,0,1,,,,,,,,,,,,,,,,,,,,,,,,,,,,,,,,,,,,,,,,,,,,,,,,
,,63039dbefda87c47a91fec04,2022-09-08_13h13.09.282,CGTgamblingSpanTasks,2022.2.1,Win32,60.29181237,,,,,,,,,,,,,,,,,,,,,,,,,,,,,,,,,,,,,,,,,,,,,,,,,,,,,,,,,,,,,,,,,,,,,,,,,,,,,,,,,,"[6,5,1,3,9,2,8,4,7]",3,0,3,0,1,,,,,,,,,,,,,,,,,,,,,,,,,,,,,,,,,,,,,,,,,,,,,,,,
,,63039dbefda87c47a91fec04,2022-09-08_13h13.09.282,CGTgamblingSpanTasks,2022.2.1,Win32,60.29181237,,,,,,,,,,,,,,,,,,,,,,,,,,,,,,,,,,,,,,,,,,,,,,,,,,,,,,,,,,,,,,,,,,,,,,,,,,,,,,,,,,"[6,5,1,3,9,2,8,4,7]",4,0,4,0,1,,,,,,,,,,,,,,,,,,,,,,,,,,,,,,,,,,,,,,,,,,,,,,,,
,,63039dbefda87c47a91fec04,2022-09-08_13h13.09.282,CGTgamblingSpanTasks,2022.2.1,Win32,60.29181237,,,,,,,,,,,,,,,,,,,,,,,,,,,,,,,,,,,,,,,,,,,,,,,,,,,,,,,,,,,,,,,,,,,,,,,,,,,,,,,,,,"[6,5,1,3,9,2,8,4,7]",5,0,5,0,1,,,,,,,,,,,,,,,,,,,,,,,,,,,,,,,,,,,,,,,,,,,,,,,,
,,63039dbefda87c47a91fec04,2022-09-08_13h13.09.282,CGTgamblingSpanTasks,2022.2.1,Win32,60.29181237,,,,,,,,,,,,,,,,,,,,,,,,,,,,,,,,,,,,,,,,,,,,,,,,,,,,,,,,,,,,,,,,,,,,,,,,,,,,,,,,,,"[6,5,1,3,9,2,8,4,7]",6,0,6,0,1,,,,,,,,,,,,,,,,,,,,,,,,,,,,,,,,,,,,,,,,,,,,,,,,
,,63039dbefda87c47a91fec04,2022-09-08_13h13.09.282,CGTgamblingSpanTasks,2022.2.1,Win32,60.29181237,,,,,,,,,,,,,,,,,,,,,,,,,,,,,,,,,,,,,,,,,,,,,,,,,,,,,,,,,,,,,,,,,,,,,,,,,,,,,,,,,,"[6,5,1,3,9,2,8,4,7]",7,0,7,0,1,,,,,,,,,,,,,,,,,,,,,,,,,,,,,,,,,,,,,,,,,,,,,,,,
,,63039dbefda87c47a91fec04,2022-09-08_13h13.09.282,CGTgamblingSpanTasks,2022.2.1,Win32,60.29181237,,,,,,,,,,,,,,,,,,,,,,,,,,,,,,,,,,,,,,,,,,,,,,,,,,,,,,,,,,,,,,,,,,,,,,,,,,,,,,,,,,"[6,5,1,3,9,2,8,4,7]",8,0,8,0,1,,,,,,,,,,,,,,,,,,,,,,,,,,,,,,,,,,,,,,,,,,,,,,,,
,,63039dbefda87c47a91fec04,2022-09-08_13h13.09.282,CGTgamblingSpanTasks,2022.2.1,Win32,60.29181237,,,,,,,,,,,,,,,,,,,,,,,,,,,,,,,,,,,,,,,,,,,,,,,,,,,,,,,,,,,,,,,0,,,,,,,,,,,,,,,,,,,,,,,,,6912847,-0.04351849,-0.400000042,1,0,0,cont_button,0,12,12,12,1,13,,,,,,,,,,,,,,,,,,,,,,,,,,,,,,,,,,,
,,63039dbefda87c47a91fec04,2022-09-08_13h13.09.282,CGTgamblingSpanTasks,2022.2.1,Win32,60.29181237,,,,,,,,,,,,,,,,,,,,,,,,,,,,,,,,,,,,,,,,,,,,,,,,,,,,,,,,,,,,,,,,,,,,,,,,,,,,,,,,,,"[2,1,3,4,7,9,6,8,5]",0,0,0,0,1,,,,,,,,,,,,,,,,,,,,,,,,,,,,,,,,,,,,,,,,,,,,,,,,
,,63039dbefda87c47a91fec04,2022-09-08_13h13.09.282,CGTgamblingSpanTasks,2022.2.1,Win32,60.29181237,,,,,,,,,,,,,,,,,,,,,,,,,,,,,,,,,,,,,,,,,,,,,,,,,,,,,,,,,,,,,,,,,,,,,,,,,,,,,,,,,,"[2,1,3,4,7,9,6,8,5]",1,0,1,0,1,,,,,,,,,,,,,,,,,,,,,,,,,,,,,,,,,,,,,,,,,,,,,,,,
,,63039dbefda87c47a91fec04,2022-09-08_13h13.09.282,CGTgamblingSpanTasks,2022.2.1,Win32,60.29181237,,,,,,,,,,,,,,,,,,,,,,,,,,,,,,,,,,,,,,,,,,,,,,,,,,,,,,,,,,,,,,,,,,,,,,,,,,,,,,,,,,"[2,1,3,4,7,9,6,8,5]",2,0,2,0,1,,,,,,,,,,,,,,,,,,,,,,,,,,,,,,,,,,,,,,,,,,,,,,,,
,,63039dbefda87c47a91fec04,2022-09-08_13h13.09.282,CGTgamblingSpanTasks,2022.2.1,Win32,60.29181237,,,,,,,,,,,,,,,,,,,,,,,,,,,,,,,,,,,,,,,,,,,,,,,,,,,,,,,,,,,,,,,,,,,,,,,,,,,,,,,,,,"[2,1,3,4,7,9,6,8,5]",3,0,3,0,1,,,,,,,,,,,,,,,,,,,,,,,,,,,,,,,,,,,,,,,,,,,,,,,,
,,63039dbefda87c47a91fec04,2022-09-08_13h13.09.282,CGTgamblingSpanTasks,2022.2.1,Win32,60.29181237,,,,,,,,,,,,,,,,,,,,,,,,,,,,,,,,,,,,,,,,,,,,,,,,,,,,,,,,,,,,,,,,,,,,,,,,,,,,,,,,,,"[2,1,3,4,7,9,6,8,5]",4,0,4,0,1,,,,,,,,,,,,,,,,,,,,,,,,,,,,,,,,,,,,,,,,,,,,,,,,
,,63039dbefda87c47a91fec04,2022-09-08_13h13.09.282,CGTgamblingSpanTasks,2022.2.1,Win32,60.29181237,,,,,,,,,,,,,,,,,,,,,,,,,,,,,,,,,,,,,,,,,,,,,,,,,,,,,,,,,,,,,,,,,,,,,,,,,,,,,,,,,,"[2,1,3,4,7,9,6,8,5]",5,0,5,0,1,,,,,,,,,,,,,,,,,,,,,,,,,,,,,,,,,,,,,,,,,,,,,,,,
,,63039dbefda87c47a91fec04,2022-09-08_13h13.09.282,CGTgamblingSpanTasks,2022.2.1,Win32,60.29181237,,,,,,,,,,,,,,,,,,,,,,,,,,,,,,,,,,,,,,,,,,,,,,,,,,,,,,,,,,,,,,,,,,,,,,,,,,,,,,,,,,"[2,1,3,4,7,9,6,8,5]",6,0,6,0,1,,,,,,,,,,,,,,,,,,,,,,,,,,,,,,,,,,,,,,,,,,,,,,,,
,,63039dbefda87c47a91fec04,2022-09-08_13h13.09.282,CGTgamblingSpanTasks,2022.2.1,Win32,60.29181237,,,,,,,,,,,,,,,,,,,,,,,,,,,,,,,,,,,,,,,,,,,,,,,,,,,,,,,,,,,,,,,,,,,,,,,,,,,,,,,,,,"[2,1,3,4,7,9,6,8,5]",7,0,7,0,1,,,,,,,,,,,,,,,,,,,,,,,,,,,,,,,,,,,,,,,,,,,,,,,,
,,63039dbefda87c47a91fec04,2022-09-08_13h13.09.282,CGTgamblingSpanTasks,2022.2.1,Win32,60.29181237,,,,,,,,,,,,,,,,,,,,,,,,,,,,,,,,,,,,,,,,,,,,,,,,,,,,,,,,,,,,,,,,,,,,,,,,,,,,,,,,,,"[2,1,3,4,7,9,6,8,5]",8,0,8,0,1,,,,,,,,,,,,,,,,,,,,,,,,,,,,,,,,,,,,,,,,,,,,,,,,
,,63039dbefda87c47a91fec04,2022-09-08_13h13.09.282,CGTgamblingSpanTasks,2022.2.1,Win32,60.29181237,,,,,,,,,,,,,,,,,,,,,,,,,,,,,,,,,,,,,,,,,,,,,,,,,,,,,,,,,,,,,,,0,,,,,,,,,,,,,,,,,,,,,,,,,21379865,-0.04351849,-0.400000042,1,0,0,cont_button,0,13,13,13,1,14,,,,,,,,,,,,,,,,,,,,,,,,,,,,,,,,,,,
,,63039dbefda87c47a91fec04,2022-09-08_13h13.09.282,CGTgamblingSpanTasks,2022.2.1,Win32,60.29181237,,,,,,,,,,,,,,,,,,,,,,,,,,,,,,,,,,,,,,,,,,,,,,,,,,,,,,,,,,,,,,,,,,,,,,,,,,,,,,,,,,,,,,,,,,,,,,,,,,,,,return,126.6106,,,,,,,,,,,,,,,,,,,,,,,,,,,,,,,,,
,,63039dbefda87c47a91fec04,2022-09-08_13h13.09.282,CGTgamblingSpanTasks,2022.2.1,Win32,60.29181237,,,,,,,,,,,,,,,,,,,,,,,,,,,,,,,,,,,,,,,,,,,,,,,,,,,,,,,,,,,,,,,,,,,,,,,,,,,,,,,,,,,,,,,,,,,,,,,,,,,,,,,return,48.0298,,,,,,,,,,,,,,,,,,,,,,,,,,,,,,,
,,63039dbefda87c47a91fec04,2022-09-08_13h13.09.282,CGTgamblingSpanTasks,2022.2.1,Win32,60.29181237,,,,,,,,,,,,,,,,,,,,,,,,,,,,,,,,,,,,,,,,,,,,,,,,,,,,,,,,,,,,,,,1,,,,,,,,,,,,3,342,24,2,42,,,,,,,,,,,,,,,,,,,,,,,,,,42,-0.04351849,-0.400000042,1,0,0,cont_buttonPractice_2,0,0,0,0,1,,,,,,,,,,,,,,,,,,,
,,63039dbefda87c47a91fec04,2022-09-08_13h13.09.282,CGTgamblingSpanTasks,2022.2.1,Win32,60.29181237,,,,,,,,,,,,,,,,,,,,,,,,,,,,,,,,,,,,,,,,,,,,,,,,,,,,,,,,,,,,,,,1,,,,,,,,,,,,3,937,73,2,37,,,,,,,,,,,,,,,,,,,,,,,,,,37,-0.04351849,-0.400000042,1,0,0,cont_buttonPractice_2,0,1,1,1,1,,,,,,,,,,,,,,,,,,,
,,63039dbefda87c47a91fec04,2022-09-08_13h13.09.282,CGTgamblingSpanTasks,2022.2.1,Win32,60.29181237,,,,,,,,,,,,,,,,,,,,,,,,,,,,,,,,,,,,,,,,,,,,,,,,,,,,,,,,,,,,,,,,,,,,,,,,,,,,,,,,,,,,,,,,,,,,,,,,,,,,,,,,,,,,,,,,,,,,,return,5.1208,,,,,,,,,,,,,,,,,
,,63039dbefda87c47a91fec04,2022-09-08_13h13.09.282,CGTgamblingSpanTasks,2022.2.1,Win32,60.29181237,,,,,,,,,,,,,,,,,,,,,,,,,,,,,,,,,,,,,,,,,,,,,,,,,,,,,,,,,,,,,,,,,,,,,,,,,,,,,,,,,,"[2,6]",,,,,,,,,,,,,,,,,,,,,,,,,,,,,,,,,,,,,0,0,0,0,1,,,,,,,,,,,,
,,63039dbefda87c47a91fec04,2022-09-08_13h13.09.282,CGTgamblingSpanTasks,2022.2.1,Win32,60.29181237,,,,,,,,,,,,,,,,,,,,,,,,,,,,,,,,,,,,,,,,,,,,,,,,,,,,,,,,,,,,,,,,,,,,,,,,,,,,,,,,,,"[2,6]",,,,,,,,,,,,,,,,,,,,,,,,,,,,,,,,,,,,,1,0,1,0,1,,,,,,,,,,,,
,,63039dbefda87c47a91fec04,2022-09-08_13h13.09.282,CGTgamblingSpanTasks,2022.2.1,Win32,60.29181237,,,,,,,,,,,,,,,,,,,,,,,,,,,,,,,,,,,,,,,,,,,,,,,,,,,,,,,,,,,,,,,1,,,,,,,,,,,,,,,,,,,,,,,,,,,,,,,,,,,,,1,,,,,,,,,,,,,,,,,,,,,,,,62,-0.04351849,-0.400000042,1,0,0,cont_buttonBS,0,0,0,0,1
,,63039dbefda87c47a91fec04,2022-09-08_13h13.09.282,CGTgamblingSpanTasks,2022.2.1,Win32,60.29181237,,,,,,,,,,,,,,,,,,,,,,,,,,,,,,,,,,,,,,,,,,,,,,,,,,,,,,,,,,,,,,,,,,,,,,,,,,,,,,,,,,"[8,6,2]",,,,,,,,,,,,,,,,,,,,,,,,,,,,,,,,,,,,,0,0,0,0,1,,,,,,,,,,,,
,,63039dbefda87c47a91fec04,2022-09-08_13h13.09.282,CGTgamblingSpanTasks,2022.2.1,Win32,60.29181237,,,,,,,,,,,,,,,,,,,,,,,,,,,,,,,,,,,,,,,,,,,,,,,,,,,,,,,,,,,,,,,,,,,,,,,,,,,,,,,,,,"[8,6,2]",,,,,,,,,,,,,,,,,,,,,,,,,,,,,,,,,,,,,1,0,1,0,1,,,,,,,,,,,,
,,63039dbefda87c47a91fec04,2022-09-08_13h13.09.282,CGTgamblingSpanTasks,2022.2.1,Win32,60.29181237,,,,,,,,,,,,,,,,,,,,,,,,,,,,,,,,,,,,,,,,,,,,,,,,,,,,,,,,,,,,,,,,,,,,,,,,,,,,,,,,,,"[8,6,2]",,,,,,,,,,,,,,,,,,,,,,,,,,,,,,,,,,,,,2,0,2,0,1,,,,,,,,,,,,
,,63039dbefda87c47a91fec04,2022-09-08_13h13.09.282,CGTgamblingSpanTasks,2022.2.1,Win32,60.29181237,,,,,,,,,,,,,,,,,,,,,,,,,,,,,,,,,,,,,,,,,,,,,,,,,,,,,,,,,,,,,,,1,,,,,,,,,,,,,,,,,,,,,,,,,,,,,,,,,,,,,2,,,,,,,,,,,,,,,,,,,,,,,,268,-0.04351849,-0.400000042,1,0,0,cont_buttonBS,0,1,1,1,1
,,63039dbefda87c47a91fec04,2022-09-08_13h13.09.282,CGTgamblingSpanTasks,2022.2.1,Win32,60.29181237,,,,,,,,,,,,,,,,,,,,,,,,,,,,,,,,,,,,,,,,,,,,,,,,,,,,,,,,,,,,,,,,,,,,,,,,,,,,,,,,,,"[7,8,4,6]",,,,,,,,,,,,,,,,,,,,,,,,,,,,,,,,,,,,,0,0,0,0,1,,,,,,,,,,,,
,,63039dbefda87c47a91fec04,2022-09-08_13h13.09.282,CGTgamblingSpanTasks,2022.2.1,Win32,60.29181237,,,,,,,,,,,,,,,,,,,,,,,,,,,,,,,,,,,,,,,,,,,,,,,,,,,,,,,,,,,,,,,,,,,,,,,,,,,,,,,,,,"[7,8,4,6]",,,,,,,,,,,,,,,,,,,,,,,,,,,,,,,,,,,,,1,0,1,0,1,,,,,,,,,,,,
,,63039dbefda87c47a91fec04,2022-09-08_13h13.09.282,CGTgamblingSpanTasks,2022.2.1,Win32,60.29181237,,,,,,,,,,,,,,,,,,,,,,,,,,,,,,,,,,,,,,,,,,,,,,,,,,,,,,,,,,,,,,,,,,,,,,,,,,,,,,,,,,"[7,8,4,6]",,,,,,,,,,,,,,,,,,,,,,,,,,,,,,,,,,,,,2,0,2,0,1,,,,,,,,,,,,
,,63039dbefda87c47a91fec04,2022-09-08_13h13.09.282,CGTgamblingSpanTasks,2022.2.1,Win32,60.29181237,,,,,,,,,,,,,,,,,,,,,,,,,,,,,,,,,,,,,,,,,,,,,,,,,,,,,,,,,,,,,,,,,,,,,,,,,,,,,,,,,,"[7,8,4,6]",,,,,,,,,,,,,,,,,,,,,,,,,,,,,,,,,,,,,3,0,3,0,1,,,,,,,,,,,,
,,63039dbefda87c47a91fec04,2022-09-08_13h13.09.282,CGTgamblingSpanTasks,2022.2.1,Win32,60.29181237,,,,,,,,,,,,,,,,,,,,,,,,,,,,,,,,,,,,,,,,,,,,,,,,,,,,,,,,,,,,,,,1,,,,,,,,,,,,,,,,,,,,,,,,,,,,,,,,,,,,,3,,,,,,,,,,,,,,,,,,,,,,,,6487,-0.057407379,-0.398148148,1,0,0,cont_buttonBS,0,2,2,2,1
,,63039dbefda87c47a91fec04,2022-09-08_13h13.09.282,CGTgamblingSpanTasks,2022.2.1,Win32,60.29181237,,,,,,,,,,,,,,,,,,,,,,,,,,,,,,,,,,,,,,,,,,,,,,,,,,,,,,,,,,,,,,,,,,,,,,,,,,,,,,,,,,"[6,2,9,4,3]",,,,,,,,,,,,,,,,,,,,,,,,,,,,,,,,,,,,,0,0,0,0,1,,,,,,,,,,,,
,,63039dbefda87c47a91fec04,2022-09-08_13h13.09.282,CGTgamblingSpanTasks,2022.2.1,Win32,60.29181237,,,,,,,,,,,,,,,,,,,,,,,,,,,,,,,,,,,,,,,,,,,,,,,,,,,,,,,,,,,,,,,,,,,,,,,,,,,,,,,,,,"[6,2,9,4,3]",,,,,,,,,,,,,,,,,,,,,,,,,,,,,,,,,,,,,1,0,1,0,1,,,,,,,,,,,,
,,63039dbefda87c47a91fec04,2022-09-08_13h13.09.282,CGTgamblingSpanTasks,2022.2.1,Win32,60.29181237,,,,,,,,,,,,,,,,,,,,,,,,,,,,,,,,,,,,,,,,,,,,,,,,,,,,,,,,,,,,,,,,,,,,,,,,,,,,,,,,,,"[6,2,9,4,3]",,,,,,,,,,,,,,,,,,,,,,,,,,,,,,,,,,,,,2,0,2,0,1,,,,,,,,,,,,
,,63039dbefda87c47a91fec04,2022-09-08_13h13.09.282,CGTgamblingSpanTasks,2022.2.1,Win32,60.29181237,,,,,,,,,,,,,,,,,,,,,,,,,,,,,,,,,,,,,,,,,,,,,,,,,,,,,,,,,,,,,,,,,,,,,,,,,,,,,,,,,,"[6,2,9,4,3]",,,,,,,,,,,,,,,,,,,,,,,,,,,,,,,,,,,,,3,0,3,0,1,,,,,,,,,,,,
,,63039dbefda87c47a91fec04,2022-09-08_13h13.09.282,CGTgamblingSpanTasks,2022.2.1,Win32,60.29181237,,,,,,,,,,,,,,,,,,,,,,,,,,,,,,,,,,,,,,,,,,,,,,,,,,,,,,,,,,,,,,,,,,,,,,,,,,,,,,,,,,"[6,2,9,4,3]",,,,,,,,,,,,,,,,,,,,,,,,,,,,,,,,,,,,,4,0,4,0,1,,,,,,,,,,,,
,,63039dbefda87c47a91fec04,2022-09-08_13h13.09.282,CGTgamblingSpanTasks,2022.2.1,Win32,60.29181237,,,,,,,,,,,,,,,,,,,,,,,,,,,,,,,,,,,,,,,,,,,,,,,,,,,,,,,,,,,,,,,0,,,,,,,,,,,,,,,,,,,,,,,,,,,,,,,,,,,,,4,,,,,,,,,,,,,,,,,,,,,,,,3426,-0.057407379,-0.398148148,1,0,0,cont_buttonBS,0,3,3,3,1
,,63039dbefda87c47a91fec04,2022-09-08_13h13.09.282,CGTgamblingSpanTasks,2022.2.1,Win32,60.29181237,,,,,,,,,,,,,,,,,,,,,,,,,,,,,,,,,,,,,,,,,,,,,,,,,,,,,,,,,,,,,,,,,,,,,,,,,,,,,,,,,,"[6,2,4,1,5]",,,,,,,,,,,,,,,,,,,,,,,,,,,,,,,,,,,,,0,0,0,0,1,,,,,,,,,,,,
,,63039dbefda87c47a91fec04,2022-09-08_13h13.09.282,CGTgamblingSpanTasks,2022.2.1,Win32,60.29181237,,,,,,,,,,,,,,,,,,,,,,,,,,,,,,,,,,,,,,,,,,,,,,,,,,,,,,,,,,,,,,,,,,,,,,,,,,,,,,,,,,"[6,2,4,1,5]",,,,,,,,,,,,,,,,,,,,,,,,,,,,,,,,,,,,,1,0,1,0,1,,,,,,,,,,,,
,,63039dbefda87c47a91fec04,2022-09-08_13h13.09.282,CGTgamblingSpanTasks,2022.2.1,Win32,60.29181237,,,,,,,,,,,,,,,,,,,,,,,,,,,,,,,,,,,,,,,,,,,,,,,,,,,,,,,,,,,,,,,,,,,,,,,,,,,,,,,,,,"[6,2,4,1,5]",,,,,,,,,,,,,,,,,,,,,,,,,,,,,,,,,,,,,2,0,2,0,1,,,,,,,,,,,,
,,63039dbefda87c47a91fec04,2022-09-08_13h13.09.282,CGTgamblingSpanTasks,2022.2.1,Win32,60.29181237,,,,,,,,,,,,,,,,,,,,,,,,,,,,,,,,,,,,,,,,,,,,,,,,,,,,,,,,,,,,,,,,,,,,,,,,,,,,,,,,,,"[6,2,4,1,5]",,,,,,,,,,,,,,,,,,,,,,,,,,,,,,,,,,,,,3,0,3,0,1,,,,,,,,,,,,
,,63039dbefda87c47a91fec04,2022-09-08_13h13.09.282,CGTgamblingSpanTasks,2022.2.1,Win32,60.29181237,,,,,,,,,,,,,,,,,,,,,,,,,,,,,,,,,,,,,,,,,,,,,,,,,,,,,,,,,,,,,,,,,,,,,,,,,,,,,,,,,,"[6,2,4,1,5]",,,,,,,,,,,,,,,,,,,,,,,,,,,,,,,,,,,,,4,0,4,0,1,,,,,,,,,,,,
,,63039dbefda87c47a91fec04,2022-09-08_13h13.09.282,CGTgamblingSpanTasks,2022.2.1,Win32,60.29181237,,,,,,,,,,,,,,,,,,,,,,,,,,,,,,,,,,,,,,,,,,,,,,,,,,,,,,,,,,,,,,,1,,,,,,,,,,,,,,,,,,,,,,,,,,,,,,,,,,,,,5,,,,,,,,,,,,,,,,,,,,,,,,51426,-0.063888903,-0.371296282,1,0,0,cont_buttonBS,0,4,4,4,1
,,63039dbefda87c47a91fec04,2022-09-08_13h13.09.282,CGTgamblingSpanTasks,2022.2.1,Win32,60.29181237,,,,,,,,,,,,,,,,,,,,,,,,,,,,,,,,,,,,,,,,,,,,,,,,,,,,,,,,,,,,,,,,,,,,,,,,,,,,,,,,,,"[2,9,8,1,4,5]",,,,,,,,,,,,,,,,,,,,,,,,,,,,,,,,,,,,,0,0,0,0,1,,,,,,,,,,,,
,,63039dbefda87c47a91fec04,2022-09-08_13h13.09.282,CGTgamblingSpanTasks,2022.2.1,Win32,60.29181237,,,,,,,,,,,,,,,,,,,,,,,,,,,,,,,,,,,,,,,,,,,,,,,,,,,,,,,,,,,,,,,,,,,,,,,,,,,,,,,,,,"[2,9,8,1,4,5]",,,,,,,,,,,,,,,,,,,,,,,,,,,,,,,,,,,,,1,0,1,0,1,,,,,,,,,,,,
,,63039dbefda87c47a91fec04,2022-09-08_13h13.09.282,CGTgamblingSpanTasks,2022.2.1,Win32,60.29181237,,,,,,,,,,,,,,,,,,,,,,,,,,,,,,,,,,,,,,,,,,,,,,,,,,,,,,,,,,,,,,,,,,,,,,,,,,,,,,,,,,"[2,9,8,1,4,5]",,,,,,,,,,,,,,,,,,,,,,,,,,,,,,,,,,,,,2,0,2,0,1,,,,,,,,,,,,
,,63039dbefda87c47a91fec04,2022-09-08_13h13.09.282,CGTgamblingSpanTasks,2022.2.1,Win32,60.29181237,,,,,,,,,,,,,,,,,,,,,,,,,,,,,,,,,,,,,,,,,,,,,,,,,,,,,,,,,,,,,,,,,,,,,,,,,,,,,,,,,,"[2,9,8,1,4,5]",,,,,,,,,,,,,,,,,,,,,,,,,,,,,,,,,,,,,3,0,3,0,1,,,,,,,,,,,,
,,63039dbefda87c47a91fec04,2022-09-08_13h13.09.282,CGTgamblingSpanTasks,2022.2.1,Win32,60.29181237,,,,,,,,,,,,,,,,,,,,,,,,,,,,,,,,,,,,,,,,,,,,,,,,,,,,,,,,,,,,,,,,,,,,,,,,,,,,,,,,,,"[2,9,8,1,4,5]",,,,,,,,,,,,,,,,,,,,,,,,,,,,,,,,,,,,,4,0,4,0,1,,,,,,,,,,,,
,,63039dbefda87c47a91fec04,2022-09-08_13h13.09.282,CGTgamblingSpanTasks,2022.2.1,Win32,60.29181237,,,,,,,,,,,,,,,,,,,,,,,,,,,,,,,,,,,,,,,,,,,,,,,,,,,,,,,,,,,,,,,,,,,,,,,,,,,,,,,,,,"[2,9,8,1,4,5]",,,,,,,,,,,,,,,,,,,,,,,,,,,,,,,,,,,,,5,0,5,0,1,,,,,,,,,,,,
,,63039dbefda87c47a91fec04,2022-09-08_13h13.09.282,CGTgamblingSpanTasks,2022.2.1,Win32,60.29181237,,,,,,,,,,,,,,,,,,,,,,,,,,,,,,,,,,,,,,,,,,,,,,,,,,,,,,,,,,,,,,,1,,,,,,,,,,,,,,,,,,,,,,,,,,,,,,,,,,,,,6,,,,,,,,,,,,,,,,,,,,,,,,541892,-0.056481467,-0.406481496,1,0,0,cont_buttonBS,0,5,5,5,1
,,63039dbefda87c47a91fec04,2022-09-08_13h13.09.282,CGTgamblingSpanTasks,2022.2.1,Win32,60.29181237,,,,,,,,,,,,,,,,,,,,,,,,,,,,,,,,,,,,,,,,,,,,,,,,,,,,,,,,,,,,,,,,,,,,,,,,,,,,,,,,,,"[6,5,3,4,8,7,9]",,,,,,,,,,,,,,,,,,,,,,,,,,,,,,,,,,,,,0,0,0,0,1,,,,,,,,,,,,
,,63039dbefda87c47a91fec04,2022-09-08_13h13.09.282,CGTgamblingSpanTasks,2022.2.1,Win32,60.29181237,,,,,,,,,,,,,,,,,,,,,,,,,,,,,,,,,,,,,,,,,,,,,,,,,,,,,,,,,,,,,,,,,,,,,,,,,,,,,,,,,,"[6,5,3,4,8,7,9]",,,,,,,,,,,,,,,,,,,,,,,,,,,,,,,,,,,,,1,0,1,0,1,,,,,,,,,,,,
,,63039dbefda87c47a91fec04,2022-09-08_13h13.09.282,CGTgamblingSpanTasks,2022.2.1,Win32,60.29181237,,,,,,,,,,,,,,,,,,,,,,,,,,,,,,,,,,,,,,,,,,,,,,,,,,,,,,,,,,,,,,,,,,,,,,,,,,,,,,,,,,"[6,5,3,4,8,7,9]",,,,,,,,,,,,,,,,,,,,,,,,,,,,,,,,,,,,,2,0,2,0,1,,,,,,,,,,,,
,,63039dbefda87c47a91fec04,2022-09-08_13h13.09.282,CGTgamblingSpanTasks,2022.2.1,Win32,60.29181237,,,,,,,,,,,,,,,,,,,,,,,,,,,,,,,,,,,,,,,,,,,,,,,,,,,,,,,,,,,,,,,,,,,,,,,,,,,,,,,,,,"[6,5,3,4,8,7,9]",,,,,,,,,,,,,,,,,,,,,,,,,,,,,,,,,,,,,3,0,3,0,1,,,,,,,,,,,,
,,63039dbefda87c47a91fec04,2022-09-08_13h13.09.282,CGTgamblingSpanTasks,2022.2.1,Win32,60.29181237,,,,,,,,,,,,,,,,,,,,,,,,,,,,,,,,,,,,,,,,,,,,,,,,,,,,,,,,,,,,,,,,,,,,,,,,,,,,,,,,,,"[6,5,3,4,8,7,9]",,,,,,,,,,,,,,,,,,,,,,,,,,,,,,,,,,,,,4,0,4,0,1,,,,,,,,,,,,
,,63039dbefda87c47a91fec04,2022-09-08_13h13.09.282,CGTgamblingSpanTasks,2022.2.1,Win32,60.29181237,,,,,,,,,,,,,,,,,,,,,,,,,,,,,,,,,,,,,,,,,,,,,,,,,,,,,,,,,,,,,,,,,,,,,,,,,,,,,,,,,,"[6,5,3,4,8,7,9]",,,,,,,,,,,,,,,,,,,,,,,,,,,,,,,,,,,,,5,0,5,0,1,,,,,,,,,,,,
,,63039dbefda87c47a91fec04,2022-09-08_13h13.09.282,CGTgamblingSpanTasks,2022.2.1,Win32,60.29181237,,,,,,,,,,,,,,,,,,,,,,,,,,,,,,,,,,,,,,,,,,,,,,,,,,,,,,,,,,,,,,,,,,,,,,,,,,,,,,,,,,"[6,5,3,4,8,7,9]",,,,,,,,,,,,,,,,,,,,,,,,,,,,,,,,,,,,,6,0,6,0,1,,,,,,,,,,,,
,,63039dbefda87c47a91fec04,2022-09-08_13h13.09.282,CGTgamblingSpanTasks,2022.2.1,Win32,60.29181237,,,,,,,,,,,,,,,,,,,,,,,,,,,,,,,,,,,,,,,,,,,,,,,,,,,,,,,,,,,,,,,0,,,,,,,,,,,,,,,,,,,,,,,,,,,,,,,,,,,,,7,,,,,,,,,,,,,,,,,,,,,,,,987451,-0.071296268,-0.424074102,1,0,0,cont_buttonBS,0,6,6,6,1
,,63039dbefda87c47a91fec04,2022-09-08_13h13.09.282,CGTgamblingSpanTasks,2022.2.1,Win32,60.29181237,,,,,,,,,,,,,,,,,,,,,,,,,,,,,,,,,,,,,,,,,,,,,,,,,,,,,,,,,,,,,,,,,,,,,,,,,,,,,,,,,,"[7,5,6,8,1,9,2]",,,,,,,,,,,,,,,,,,,,,,,,,,,,,,,,,,,,,0,0,0,0,1,,,,,,,,,,,,
,,63039dbefda87c47a91fec04,2022-09-08_13h13.09.282,CGTgamblingSpanTasks,2022.2.1,Win32,60.29181237,,,,,,,,,,,,,,,,,,,,,,,,,,,,,,,,,,,,,,,,,,,,,,,,,,,,,,,,,,,,,,,,,,,,,,,,,,,,,,,,,,"[7,5,6,8,1,9,2]",,,,,,,,,,,,,,,,,,,,,,,,,,,,,,,,,,,,,1,0,1,0,1,,,,,,,,,,,,
,,63039dbefda87c47a91fec04,2022-09-08_13h13.09.282,CGTgamblingSpanTasks,2022.2.1,Win32,60.29181237,,,,,,,,,,,,,,,,,,,,,,,,,,,,,,,,,,,,,,,,,,,,,,,,,,,,,,,,,,,,,,,,,,,,,,,,,,,,,,,,,,"[7,5,6,8,1,9,2]",,,,,,,,,,,,,,,,,,,,,,,,,,,,,,,,,,,,,2,0,2,0,1,,,,,,,,,,,,
,,63039dbefda87c47a91fec04,2022-09-08_13h13.09.282,CGTgamblingSpanTasks,2022.2.1,Win32,60.29181237,,,,,,,,,,,,,,,,,,,,,,,,,,,,,,,,,,,,,,,,,,,,,,,,,,,,,,,,,,,,,,,,,,,,,,,,,,,,,,,,,,"[7,5,6,8,1,9,2]",,,,,,,,,,,,,,,,,,,,,,,,,,,,,,,,,,,,,3,0,3,0,1,,,,,,,,,,,,
,,63039dbefda87c47a91fec04,2022-09-08_13h13.09.282,CGTgamblingSpanTasks,2022.2.1,Win32,60.29181237,,,,,,,,,,,,,,,,,,,,,,,,,,,,,,,,,,,,,,,,,,,,,,,,,,,,,,,,,,,,,,,,,,,,,,,,,,,,,,,,,,"[7,5,6,8,1,9,2]",,,,,,,,,,,,,,,,,,,,,,,,,,,,,,,,,,,,,4,0,4,0,1,,,,,,,,,,,,
,,63039dbefda87c47a91fec04,2022-09-08_13h13.09.282,CGTgamblingSpanTasks,2022.2.1,Win32,60.29181237,,,,,,,,,,,,,,,,,,,,,,,,,,,,,,,,,,,,,,,,,,,,,,,,,,,,,,,,,,,,,,,,,,,,,,,,,,,,,,,,,,"[7,5,6,8,1,9,2]",,,,,,,,,,,,,,,,,,,,,,,,,,,,,,,,,,,,,5,0,5,0,1,,,,,,,,,,,,
