initITIstatic,initITIdynamic,participant,date,expName,psychopyVersion,OS,frameRate,inst1.keys,inst1.rt,startPracResp.keys,startPracResp.rt,choice1.keys,choice1.rt,outcome,extraITI,trials.thisRepN,trials.thisTrialN,trials.thisN,trials.thisIndex,trials.ran,riskyGain,riskyLoss,alternative,isi,iti,loc,postPractResp.keys,postPractResp.rt,realloc,realChoice.keys,realChoice.rt,outcomes,choices,actualITI,init ITI,staticRDM.thisRepN,staticRDM.thisTrialN,staticRDM.thisN,staticRDM.thisIndex,staticRDM.ran,riskyoption1,riskyoption2,safeoption,ischecktrial,dynamicChoiceSetName,dynamicChoiceSetPath,bestRho,bestMu,trials_2.thisRepN,trials_2.thisTrialN,trials_2.thisN,trials_2.thisIndex,trials_2.ran,key_resp.keys,key_resp.rt,dynamicRDM.thisRepN,dynamicRDM.thisTrialN,dynamicRDM.thisN,dynamicRDM.thisIndex,dynamicRDM.ran,choiceP,easy0difficult1,stopBreak.keys,stopBreak.rt,movealong.keys,movealong.rt,startPractice.keys,startPractice.rt,textboxPractice.text,correct,mousePractice.x,mousePractice.y,mousePractice.leftButton,mousePractice.midButton,mousePractice.rightButton,mousePractice.clicked_name,trialFSPractice.thisRepN,trialFSPractice.thisTrialN,trialFSPractice.thisN,trialFSPractice.thisIndex,trialFSPractice.ran,digitSpanForward,digits,digitsReverse,digitSpanReverse,digitsReverseCorrAnswer,startFSreal.keys,startFSreal.rt,digitsForTrial,digitLoop.thisRepN,digitLoop.thisTrialN,digitLoop.thisN,digitLoop.thisIndex,digitLoop.ran,textbox.text,mouse_3.x,mouse_3.y,mouse_3.leftButton,mouse_3.midButton,mouse_3.rightButton,mouse_3.clicked_name,trialsFS.thisRepN,trialsFS.thisTrialN,trialsFS.thisN,trialsFS.thisIndex,trialsFS.ran,trialNumber,moveToBS.keys,moveToBS.rt,startBSprac.keys,startBSprac.rt,textboxPractice_2.text,mousePractice_2.x,mousePractice_2.y,mousePractice_2.leftButton,mousePractice_2.midButton,mousePractice_2.rightButton,mousePractice_2.clicked_name,trialsPracticeBS.thisRepN,trialsPracticeBS.thisTrialN,trialsPracticeBS.thisN,trialsPracticeBS.thisIndex,trialsPracticeBS.ran,startBSreal.keys,startBSreal.rt,digitLoopBS.thisRepN,digitLoopBS.thisTrialN,digitLoopBS.thisN,digitLoopBS.thisIndex,digitLoopBS.ran,textboxBS.text,mouseBS.x,mouseBS.y,mouseBS.leftButton,mouseBS.midButton,mouseBS.rightButton,mouseBS.clicked_name,trialsBS.thisRepN,trialsBS.thisTrialN,trialsBS.thisN,trialsBS.thisIndex,trialsBS.ran
"[1,1.5,1,1.5,1.5,1.5,1.5,1,1,1,1,1.5,1.5,1.5,1,1.5,1.5,1,1,1,1.5,1.5,1,1.5,1,1.5,1,1,1,1.5,1,1,1.5,1,1.5,1,1,1,1.5,1,1.5,1,1,1.5,1.5,1.5,1,1.5,1.5,1.5]","[1,1,1,1,1.5,1.5,1.5,1.5,1,1.5,1,1,1.5,1,1,1.5,1,1.5,1.5,1.5,1,1,1,1,1.5,1,1,1.5,1.5,1,1,1.5,1,1,1.5,1,1.5,1.5,1,1.5,1.5,1.5,1,1,1,1,1.5,1.5,1,1.5,1,1.5,1.5,1.5,1.5,1,1.5,1,1,1,1,1.5,1,1,1.5,1,1,1,1,1.5,1.5,1,1,1.5,1.5,1,1,1.5,1,1.5,1.5,1,1.5,1,1.5,1,1.5,1,1.5,1,1.5,1,1.5,1,1.5,1,1,1.5,1.5,1.5,1.5,1.5,1.5,1,1.5,1,1.5,1.5,1.5,1.5,1,1.5,1.5,1,1.5,1,1,1,1.5,1.5]",5d97f30dbe5c0c00154995fe,2022-09-08_14h03.34.639,CGTgamblingSpanTasks,2022.2.1,Win32,59.90534955,,,,,,,,,,,,,,,,,,,,,,,,,,,,,,,,,,,,,,,,,,,,,,,,,,,,,,,,,,,,,,,,,,,,,,,,,,,,,,,,,,,,,,,,,,,,,,,,,,,,,,,,,,,,,,,,,,,,,,,,,,,,,,,,,,,,,,,
,,5d97f30dbe5c0c00154995fe,2022-09-08_14h03.34.639,CGTgamblingSpanTasks,2022.2.1,Win32,59.90534955,return,4.4702,,,,,,,,,,,,,,,,,,,,,,,,,,,,,,,,,,,,,,,,,,,,,,,,,,,,,,,,,,,,,,,,,,,,,,,,,,,,,,,,,,,,,,,,,,,,,,,,,,,,,,,,,,,,,,,,,,,,,,,,,,,,,,,,,,,,,
,,5d97f30dbe5c0c00154995fe,2022-09-08_14h03.34.639,CGTgamblingSpanTasks,2022.2.1,Win32,59.90534955,,,v,3.3332,,,,,,,,,,,,,,,,,,,,,,,,,,,,,,,,,,,,,,,,,,,,,,,,,,,,,,,,,,,,,,,,,,,,,,,,,,,,,,,,,,,,,,,,,,,,,,,,,,,,,,,,,,,,,,,,,,,,,,,,,,,,,,,,,,,
,,5d97f30dbe5c0c00154995fe,2022-09-08_14h03.34.639,CGTgamblingSpanTasks,2022.2.1,Win32,59.90534955,,,,,n,1.9904,9.45,2.0096,0,0,0,0,1,18.23,0,9.45,2,1,1,,,,,,,,,,,,,,,,,,,,,,,,,,,,,,,,,,,,,,,,,,,,,,,,,,,,,,,,,,,,,,,,,,,,,,,,,,,,,,,,,,,,,,,,,,,,,,,,,,,,,,,,,,,,,,,,,,,,
,,5d97f30dbe5c0c00154995fe,2022-09-08_14h03.34.639,CGTgamblingSpanTasks,2022.2.1,Win32,59.90534955,,,,,n,1.7507,35.16,2.2493,0,1,1,1,1,53.27,0,35.16,1,1.5,1,,,,,,,,,,,,,,,,,,,,,,,,,,,,,,,,,,,,,,,,,,,,,,,,,,,,,,,,,,,,,,,,,,,,,,,,,,,,,,,,,,,,,,,,,,,,,,,,,,,,,,,,,,,,,,,,,,,,
,,5d97f30dbe5c0c00154995fe,2022-09-08_14h03.34.639,CGTgamblingSpanTasks,2022.2.1,Win32,59.90534955,,,,,n,1.6125,8.27,2.3875,0,2,2,2,1,8.27,0,1.15,1,1.5,2,,,,,,,,,,,,,,,,,,,,,,,,,,,,,,,,,,,,,,,,,,,,,,,,,,,,,,,,,,,,,,,,,,,,,,,,,,,,,,,,,,,,,,,,,,,,,,,,,,,,,,,,,,,,,,,,,,,,
,,5d97f30dbe5c0c00154995fe,2022-09-08_14h03.34.639,CGTgamblingSpanTasks,2022.2.1,Win32,59.90534955,,,,,n,1.513,40.41,2.487,0,3,3,3,1,45.88,0,40.41,3,1,1,,,,,,,,,,,,,,,,,,,,,,,,,,,,,,,,,,,,,,,,,,,,,,,,,,,,,,,,,,,,,,,,,,,,,,,,,,,,,,,,,,,,,,,,,,,,,,,,,,,,,,,,,,,,,,,,,,,,
,,5d97f30dbe5c0c00154995fe,2022-09-08_14h03.34.639,CGTgamblingSpanTasks,2022.2.1,Win32,59.90534955,,,,,v,2.0289,11.96,1.9711,0,4,4,4,1,21.56,0,11.96,1,1.5,2,,,,,,,,,,,,,,,,,,,,,,,,,,,,,,,,,,,,,,,,,,,,,,,,,,,,,,,,,,,,,,,,,,,,,,,,,,,,,,,,,,,,,,,,,,,,,,,,,,,,,,,,,,,,,,,,,,,,
,,5d97f30dbe5c0c00154995fe,2022-09-08_14h03.34.639,CGTgamblingSpanTasks,2022.2.1,Win32,59.90534955,,,,,,,,,,,,,,,,,,,,v,1.9522,,,,,,,,,,,,,,,,,,,,,,,,,,,,,,,,,,,,,,,,,,,,,,,,,,,,,,,,,,,,,,,,,,,,,,,,,,,,,,,,,,,,,,,,,,,,,,,,,,,,,,,,,,,,,,,,,,
,,5d97f30dbe5c0c00154995fe,2022-09-08_14h03.34.639,CGTgamblingSpanTasks,2022.2.1,Win32,59.90534955,,,,,,,,3.9991,,,,,,,,,,,,,,1,n,0.0009,5.27,0,4.9991,1,0,0,0,10,1,13.45,0,5.27,0,,,,,,,,,,,,,,,,,,,,,,,,,,,,,,,,,,,,,,,,,,,,,,,,,,,,,,,,,,,,,,,,,,,,,,,,,,,,,,,,,,,,,,,,,,,,,,,,,,
,,5d97f30dbe5c0c00154995fe,2022-09-08_14h03.34.639,CGTgamblingSpanTasks,2022.2.1,Win32,59.90534955,,,,,,,,2.8145,,,,,,,,,,,,,,1,n,1.1855,10.15,0,4.3145,1.5,0,1,1,33,1,15.7,0,10.15,0,,,,,,,,,,,,,,,,,,,,,,,,,,,,,,,,,,,,,,,,,,,,,,,,,,,,,,,,,,,,,,,,,,,,,,,,,,,,,,,,,,,,,,,,,,,,,,,,,,
,,5d97f30dbe5c0c00154995fe,2022-09-08_14h03.34.639,CGTgamblingSpanTasks,2022.2.1,Win32,59.90534955,,,,,,,,3.0512,,,,,,,,,,,,,,2,n,0.9488,0,1,4.0512,1,0,2,2,2,1,17.73,0,3.13,0,,,,,,,,,,,,,,,,,,,,,,,,,,,,,,,,,,,,,,,,,,,,,,,,,,,,,,,,,,,,,,,,,,,,,,,,,,,,,,,,,,,,,,,,,,,,,,,,,,
,,5d97f30dbe5c0c00154995fe,2022-09-08_14h03.34.639,CGTgamblingSpanTasks,2022.2.1,Win32,59.90534955,,,,,,,,3.0373,,,,,,,,,,,,,,1,n,0.9627,6.81,0,4.5373,1.5,0,3,3,34,1,10.39,0,6.81,0,,,,,,,,,,,,,,,,,,,,,,,,,,,,,,,,,,,,,,,,,,,,,,,,,,,,,,,,,,,,,,,,,,,,,,,,,,,,,,,,,,,,,,,,,,,,,,,,,,
,,5d97f30dbe5c0c00154995fe,2022-09-08_14h03.34.639,CGTgamblingSpanTasks,2022.2.1,Win32,59.90534955,,,,,,,,2.5664,,,,,,,,,,,,,,1,n,1.4336,5.82,0,4.0664,1.5,0,4,4,16,1,12.36,0,5.82,0,,,,,,,,,,,,,,,,,,,,,,,,,,,,,,,,,,,,,,,,,,,,,,,,,,,,,,,,,,,,,,,,,,,,,,,,,,,,,,,,,,,,,,,,,,,,,,,,,,
,,5d97f30dbe5c0c00154995fe,2022-09-08_14h03.34.639,CGTgamblingSpanTasks,2022.2.1,Win32,59.90534955,,,,,,,,2.347,,,,,,,,,,,,,,1,n,1.653,9.7,0,3.847,1.5,0,5,5,27,1,16.6,0,9.7,0,,,,,,,,,,,,,,,,,,,,,,,,,,,,,,,,,,,,,,,,,,,,,,,,,,,,,,,,,,,,,,,,,,,,,,,,,,,,,,,,,,,,,,,,,,,,,,,,,,
,,5d97f30dbe5c0c00154995fe,2022-09-08_14h03.34.639,CGTgamblingSpanTasks,2022.2.1,Win32,59.90534955,,,,,,,,2.6689,,,,,,,,,,,,,,2,v,1.3311,6.88,0,4.1689,1.5,0,6,6,36,1,10.24,0,6.88,0,,,,,,,,,,,,,,,,,,,,,,,,,,,,,,,,,,,,,,,,,,,,,,,,,,,,,,,,,,,,,,,,,,,,,,,,,,,,,,,,,,,,,,,,,,,,,,,,,,
,,5d97f30dbe5c0c00154995fe,2022-09-08_14h03.34.639,CGTgamblingSpanTasks,2022.2.1,Win32,59.90534955,,,,,,,,2.8659,,,,,,,,,,,,,,1,n,1.1341,6.63,0,3.8659,1,0,7,7,30,1,10.73,0,6.63,0,,,,,,,,,,,,,,,,,,,,,,,,,,,,,,,,,,,,,,,,,,,,,,,,,,,,,,,,,,,,,,,,,,,,,,,,,,,,,,,,,,,,,,,,,,,,,,,,,,
,,5d97f30dbe5c0c00154995fe,2022-09-08_14h03.34.639,CGTgamblingSpanTasks,2022.2.1,Win32,59.90534955,,,,,,,,3.0407,,,,,,,,,,,,,,1,n,0.9593,6.53,0,4.0407,1,0,8,8,28,1,10.95,0,6.53,0,,,,,,,,,,,,,,,,,,,,,,,,,,,,,,,,,,,,,,,,,,,,,,,,,,,,,,,,,,,,,,,,,,,,,,,,,,,,,,,,,,,,,,,,,,,,,,,,,,
,,5d97f30dbe5c0c00154995fe,2022-09-08_14h03.34.639,CGTgamblingSpanTasks,2022.2.1,Win32,59.90534955,,,,,,,,3.03,,,,,,,,,,,,,,2,v,0.97,6.94,0,4.03,1,0,9,9,38,1,10.12,0,6.94,0,,,,,,,,,,,,,,,,,,,,,,,,,,,,,,,,,,,,,,,,,,,,,,,,,,,,,,,,,,,,,,,,,,,,,,,,,,,,,,,,,,,,,,,,,,,,,,,,,,
,,5d97f30dbe5c0c00154995fe,2022-09-08_14h03.34.639,CGTgamblingSpanTasks,2022.2.1,Win32,59.90534955,,,,,,,,2.5701,,,,,,,,,,,,,,1,v,1.4299,7.73,1,3.5701,1,0,10,10,44,1,13.1,7.73,4.68,1,,,,,,,,,,,,,,,,,,,,,,,,,,,,,,,,,,,,,,,,,,,,,,,,,,,,,,,,,,,,,,,,,,,,,,,,,,,,,,,,,,,,,,,,,,,,,,,,,,
,,5d97f30dbe5c0c00154995fe,2022-09-08_14h03.34.639,CGTgamblingSpanTasks,2022.2.1,Win32,59.90534955,,,,,,,,2.3979,,,,,,,,,,,,,,1,v,1.6021,0,1,3.8979,1.5,0,11,11,42,1,19.86,0,0,1,,,,,,,,,,,,,,,,,,,,,,,,,,,,,,,,,,,,,,,,,,,,,,,,,,,,,,,,,,,,,,,,,,,,,,,,,,,,,,,,,,,,,,,,,,,,,,,,,,
,,5d97f30dbe5c0c00154995fe,2022-09-08_14h03.34.639,CGTgamblingSpanTasks,2022.2.1,Win32,59.90534955,,,,,,,,1.6324,,,,,,,,,,,,,,2,n,2.3676,11.84,1,3.1324,1.5,0,12,12,20,1,11.84,0,6.08,0,,,,,,,,,,,,,,,,,,,,,,,,,,,,,,,,,,,,,,,,,,,,,,,,,,,,,,,,,,,,,,,,,,,,,,,,,,,,,,,,,,,,,,,,,,,,,,,,,,
,,5d97f30dbe5c0c00154995fe,2022-09-08_14h03.34.639,CGTgamblingSpanTasks,2022.2.1,Win32,59.90534955,,,,,,,,2.8964,,,,,,,,,,,,,,2,n,1.1036,6.99,1,4.3964,1.5,0,13,13,43,1,16.11,6.99,6.99,1,,,,,,,,,,,,,,,,,,,,,,,,,,,,,,,,,,,,,,,,,,,,,,,,,,,,,,,,,,,,,,,,,,,,,,,,,,,,,,,,,,,,,,,,,,,,,,,,,,
,,5d97f30dbe5c0c00154995fe,2022-09-08_14h03.34.639,CGTgamblingSpanTasks,2022.2.1,Win32,59.90534955,,,,,,,,1.9592,,,,,,,,,,,,,,1,v,2.0408,0,1,2.9592,1,0,14,14,21,1,17.59,0,9.2,0,,,,,,,,,,,,,,,,,,,,,,,,,,,,,,,,,,,,,,,,,,,,,,,,,,,,,,,,,,,,,,,,,,,,,,,,,,,,,,,,,,,,,,,,,,,,,,,,,,
,,5d97f30dbe5c0c00154995fe,2022-09-08_14h03.34.639,CGTgamblingSpanTasks,2022.2.1,Win32,59.90534955,,,,,,,,3.0066,,,,,,,,,,,,,,2,n,0.9934,0,1,4.5066,1.5,0,15,15,0,1,20.03,0,1.99,0,,,,,,,,,,,,,,,,,,,,,,,,,,,,,,,,,,,,,,,,,,,,,,,,,,,,,,,,,,,,,,,,,,,,,,,,,,,,,,,,,,,,,,,,,,,,,,,,,,
,,5d97f30dbe5c0c00154995fe,2022-09-08_14h03.34.639,CGTgamblingSpanTasks,2022.2.1,Win32,59.90534955,,,,,,,,2.5817,,,,,,,,,,,,,,2,v,1.4183,10.27,0,4.0817,1.5,0,16,16,35,1,15.47,0,10.27,0,,,,,,,,,,,,,,,,,,,,,,,,,,,,,,,,,,,,,,,,,,,,,,,,,,,,,,,,,,,,,,,,,,,,,,,,,,,,,,,,,,,,,,,,,,,,,,,,,,
,,5d97f30dbe5c0c00154995fe,2022-09-08_14h03.34.639,CGTgamblingSpanTasks,2022.2.1,Win32,59.90534955,,,,,,,,2.4837,,,,,,,,,,,,,,2,v,1.5163,10.37,0,3.4837,1,0,17,17,37,1,15.27,0,10.37,0,,,,,,,,,,,,,,,,,,,,,,,,,,,,,,,,,,,,,,,,,,,,,,,,,,,,,,,,,,,,,,,,,,,,,,,,,,,,,,,,,,,,,,,,,,,,,,,,,,
,,5d97f30dbe5c0c00154995fe,2022-09-08_14h03.34.639,CGTgamblingSpanTasks,2022.2.1,Win32,59.90534955,,,,,,,,2.5786,,,,,,,,,,,,,,1,n,1.4214,9.92,0,3.5786,1,0,18,18,49,1,6.79,0,9.92,1,,,,,,,,,,,,,,,,,,,,,,,,,,,,,,,,,,,,,,,,,,,,,,,,,,,,,,,,,,,,,,,,,,,,,,,,,,,,,,,,,,,,,,,,,,,,,,,,,,
,,5d97f30dbe5c0c00154995fe,2022-09-08_14h03.34.639,CGTgamblingSpanTasks,2022.2.1,Win32,59.90534955,,,,,,,,2.6693,,,,,,,,,,,,,,1,v,1.3307,17.28,1,3.6693,1,0,19,19,23,1,17.28,0,9.36,0,,,,,,,,,,,,,,,,,,,,,,,,,,,,,,,,,,,,,,,,,,,,,,,,,,,,,,,,,,,,,,,,,,,,,,,,,,,,,,,,,,,,,,,,,,,,,,,,,,
,,5d97f30dbe5c0c00154995fe,2022-09-08_14h03.34.639,CGTgamblingSpanTasks,2022.2.1,Win32,59.90534955,,,,,,,,1.1156,,,,,,,,,,,,,,2,v,2.8844,5.96,0,2.6156,1.5,0,20,20,18,1,12.08,0,5.96,0,,,,,,,,,,,,,,,,,,,,,,,,,,,,,,,,,,,,,,,,,,,,,,,,,,,,,,,,,,,,,,,,,,,,,,,,,,,,,,,,,,,,,,,,,,,,,,,,,,
,,5d97f30dbe5c0c00154995fe,2022-09-08_14h03.34.639,CGTgamblingSpanTasks,2022.2.1,Win32,59.90534955,,,,,,,,2.3582,,,,,,,,,,,,,,2,n,1.6418,0,1,3.8582,1.5,0,21,21,1,1,28.21,0,3.89,0,,,,,,,,,,,,,,,,,,,,,,,,,,,,,,,,,,,,,,,,,,,,,,,,,,,,,,,,,,,,,,,,,,,,,,,,,,,,,,,,,,,,,,,,,,,,,,,,,,
,,5d97f30dbe5c0c00154995fe,2022-09-08_14h03.34.639,CGTgamblingSpanTasks,2022.2.1,Win32,59.90534955,,,,,,,,2.635,,,,,,,,,,,,,,1,v,1.365,0,1,3.635,1,0,22,22,41,1,14.26,0,0,1,,,,,,,,,,,,,,,,,,,,,,,,,,,,,,,,,,,,,,,,,,,,,,,,,,,,,,,,,,,,,,,,,,,,,,,,,,,,,,,,,,,,,,,,,,,,,,,,,,
,,5d97f30dbe5c0c00154995fe,2022-09-08_14h03.34.639,CGTgamblingSpanTasks,2022.2.1,Win32,59.90534955,,,,,,,,2.6916,,,,,,,,,,,,,,1,v,1.3084,25.2,1,4.1916,1.5,0,23,23,3,1,25.2,0,5.4,0,,,,,,,,,,,,,,,,,,,,,,,,,,,,,,,,,,,,,,,,,,,,,,,,,,,,,,,,,,,,,,,,,,,,,,,,,,,,,,,,,,,,,,,,,,,,,,,,,,
,,5d97f30dbe5c0c00154995fe,2022-09-08_14h03.34.639,CGTgamblingSpanTasks,2022.2.1,Win32,59.90534955,,,,,,,,2.9624,,,,,,,,,,,,,,1,v,1.0376,19.86,1,3.9624,1,0,24,24,11,1,19.86,0,8.07,0,,,,,,,,,,,,,,,,,,,,,,,,,,,,,,,,,,,,,,,,,,,,,,,,,,,,,,,,,,,,,,,,,,,,,,,,,,,,,,,,,,,,,,,,,,,,,,,,,,
,,5d97f30dbe5c0c00154995fe,2022-09-08_14h03.34.639,CGTgamblingSpanTasks,2022.2.1,Win32,59.90534955,,,,,,,,2.8194,,,,,,,,,,,,,,1,v,1.1806,0,1,4.3194,1.5,0,25,25,7,1,21.32,0,7.34,0,,,,,,,,,,,,,,,,,,,,,,,,,,,,,,,,,,,,,,,,,,,,,,,,,,,,,,,,,,,,,,,,,,,,,,,,,,,,,,,,,,,,,,,,,,,,,,,,,,
,,5d97f30dbe5c0c00154995fe,2022-09-08_14h03.34.639,CGTgamblingSpanTasks,2022.2.1,Win32,59.90534955,,,,,,,,2.9482,,,,,,,,,,,,,,1,n,1.0518,10.02,0,3.9482,1,0,26,26,31,1,15.96,0,10.02,0,,,,,,,,,,,,,,,,,,,,,,,,,,,,,,,,,,,,,,,,,,,,,,,,,,,,,,,,,,,,,,,,,,,,,,,,,,,,,,,,,,,,,,,,,,,,,,,,,,
,,5d97f30dbe5c0c00154995fe,2022-09-08_14h03.34.639,CGTgamblingSpanTasks,2022.2.1,Win32,59.90534955,,,,,,,,3.2476,,,,,,,,,,,,,,1,n,0.7524,7.55,0,4.2476,1,0,27,27,45,1,0,0,7.55,1,,,,,,,,,,,,,,,,,,,,,,,,,,,,,,,,,,,,,,,,,,,,,,,,,,,,,,,,,,,,,,,,,,,,,,,,,,,,,,,,,,,,,,,,,,,,,,,,,,
,,5d97f30dbe5c0c00154995fe,2022-09-08_14h03.34.639,CGTgamblingSpanTasks,2022.2.1,Win32,59.90534955,,,,,,,,2.5505,,,,,,,,,,,,,,1,n,1.4495,10.68,0,3.5505,1,0,28,28,48,1,10.68,0,10.68,1,,,,,,,,,,,,,,,,,,,,,,,,,,,,,,,,,,,,,,,,,,,,,,,,,,,,,,,,,,,,,,,,,,,,,,,,,,,,,,,,,,,,,,,,,,,,,,,,,,
,,5d97f30dbe5c0c00154995fe,2022-09-08_14h03.34.639,CGTgamblingSpanTasks,2022.2.1,Win32,59.90534955,,,,,,,,1.8303,,,,,,,,,,,,,,1,n,2.1697,9.87,0,3.3303,1.5,0,29,29,29,1,16.26,0,9.87,0,,,,,,,,,,,,,,,,,,,,,,,,,,,,,,,,,,,,,,,,,,,,,,,,,,,,,,,,,,,,,,,,,,,,,,,,,,,,,,,,,,,,,,,,,,,,,,,,,,
,,5d97f30dbe5c0c00154995fe,2022-09-08_14h03.34.639,CGTgamblingSpanTasks,2022.2.1,Win32,59.90534955,,,,,,,,3.1031,,,,,,,,,,,,,,1,v,0.8969,10.35,1,4.1031,1,0,30,30,40,1,10.35,0,0,1,,,,,,,,,,,,,,,,,,,,,,,,,,,,,,,,,,,,,,,,,,,,,,,,,,,,,,,,,,,,,,,,,,,,,,,,,,,,,,,,,,,,,,,,,,,,,,,,,,
,,5d97f30dbe5c0c00154995fe,2022-09-08_14h03.34.639,CGTgamblingSpanTasks,2022.2.1,Win32,59.90534955,,,,,,,,3.1294,,,,,,,,,,,,,,2,v,0.8706,3.13,0,4.1294,1,0,31,31,47,1,0,0,3.13,1,,,,,,,,,,,,,,,,,,,,,,,,,,,,,,,,,,,,,,,,,,,,,,,,,,,,,,,,,,,,,,,,,,,,,,,,,,,,,,,,,,,,,,,,,,,,,,,,,,
,,5d97f30dbe5c0c00154995fe,2022-09-08_14h03.34.639,CGTgamblingSpanTasks,2022.2.1,Win32,59.90534955,,,,,,,,2.3376,,,,,,,,,,,,,,1,n,1.6624,8.36,0,3.8376,1.5,0,32,32,13,1,19.28,0,8.36,0,,,,,,,,,,,,,,,,,,,,,,,,,,,,,,,,,,,,,,,,,,,,,,,,,,,,,,,,,,,,,,,,,,,,,,,,,,,,,,,,,,,,,,,,,,,,,,,,,,
,,5d97f30dbe5c0c00154995fe,2022-09-08_14h03.34.639,CGTgamblingSpanTasks,2022.2.1,Win32,59.90534955,,,,,,,,2.9637,,,,,,,,,,,,,,1,n,1.0363,10.46,0,3.9637,1,0,33,33,39,1,15.09,0,10.46,0,,,,,,,,,,,,,,,,,,,,,,,,,,,,,,,,,,,,,,,,,,,,,,,,,,,,,,,,,,,,,,,,,,,,,,,,,,,,,,,,,,,,,,,,,,,,,,,,,,
,,5d97f30dbe5c0c00154995fe,2022-09-08_14h03.34.639,CGTgamblingSpanTasks,2022.2.1,Win32,59.90534955,,,,,,,,2.6016,,,,,,,,,,,,,,2,v,1.3984,6.73,0,4.1016,1.5,0,34,34,32,1,10.55,0,6.73,0,,,,,,,,,,,,,,,,,,,,,,,,,,,,,,,,,,,,,,,,,,,,,,,,,,,,,,,,,,,,,,,,,,,,,,,,,,,,,,,,,,,,,,,,,,,,,,,,,,
,,5d97f30dbe5c0c00154995fe,2022-09-08_14h03.34.639,CGTgamblingSpanTasks,2022.2.1,Win32,59.90534955,,,,,,,,2.6872,,,,,,,,,,,,,,2,n,1.3128,0,1,3.6872,1,0,35,35,4,1,16,0,4,0,,,,,,,,,,,,,,,,,,,,,,,,,,,,,,,,,,,,,,,,,,,,,,,,,,,,,,,,,,,,,,,,,,,,,,,,,,,,,,,,,,,,,,,,,,,,,,,,,,
,,5d97f30dbe5c0c00154995fe,2022-09-08_14h03.34.639,CGTgamblingSpanTasks,2022.2.1,Win32,59.90534955,,,,,,,,3.2288,,,,,,,,,,,,,,1,n,0.7712,10.25,0,4.2288,1,0,36,36,46,1,0,0,10.25,1,,,,,,,,,,,,,,,,,,,,,,,,,,,,,,,,,,,,,,,,,,,,,,,,,,,,,,,,,,,,,,,,,,,,,,,,,,,,,,,,,,,,,,,,,,,,,,,,,,
,,5d97f30dbe5c0c00154995fe,2022-09-08_14h03.34.639,CGTgamblingSpanTasks,2022.2.1,Win32,59.90534955,,,,,,,,3.0857,,,,,,,,,,,,,,1,n,0.9143,6.4,0,4.0857,1,0,37,37,26,1,11.2,0,6.4,0,,,,,,,,,,,,,,,,,,,,,,,,,,,,,,,,,,,,,,,,,,,,,,,,,,,,,,,,,,,,,,,,,,,,,,,,,,,,,,,,,,,,,,,,,,,,,,,,,,
,,5d97f30dbe5c0c00154995fe,2022-09-08_14h03.34.639,CGTgamblingSpanTasks,2022.2.1,Win32,59.90534955,,,,,,,,2.5837,,,,,,,,,,,,,,1,v,1.4163,18.77,1,4.0837,1.5,0,38,38,15,1,18.77,0,8.61,0,,,,,,,,,,,,,,,,,,,,,,,,,,,,,,,,,,,,,,,,,,,,,,,,,,,,,,,,,,,,,,,,,,,,,,,,,,,,,,,,,,,,,,,,,,,,,,,,,,
,,5d97f30dbe5c0c00154995fe,2022-09-08_14h03.34.639,CGTgamblingSpanTasks,2022.2.1,Win32,59.90534955,,,,,,,,2.9136,,,,,,,,,,,,,,1,v,1.0864,0,1,3.9136,1,0,39,39,6,1,14.72,0,4.64,0,,,,,,,,,,,,,,,,,,,,,,,,,,,,,,,,,,,,,,,,,,,,,,,,,,,,,,,,,,,,,,,,,,,,,,,,,,,,,,,,,,,,,,,,,,,,,,,,,,
,,5d97f30dbe5c0c00154995fe,2022-09-08_14h03.34.639,CGTgamblingSpanTasks,2022.2.1,Win32,59.90534955,,,,,,,,2.4176,,,,,,,,,,,,,,2,n,1.5824,0,1,3.9176,1.5,0,40,40,12,1,13.04,0,5.48,0,,,,,,,,,,,,,,,,,,,,,,,,,,,,,,,,,,,,,,,,,,,,,,,,,,,,,,,,,,,,,,,,,,,,,,,,,,,,,,,,,,,,,,,,,,,,,,,,,,
,,5d97f30dbe5c0c00154995fe,2022-09-08_14h03.34.639,CGTgamblingSpanTasks,2022.2.1,Win32,59.90534955,,,,,,,,2.9402,,,,,,,,,,,,,,2,v,1.0598,9.5,0,3.9402,1,0,41,41,25,1,17,0,9.5,0,,,,,,,,,,,,,,,,,,,,,,,,,,,,,,,,,,,,,,,,,,,,,,,,,,,,,,,,,,,,,,,,,,,,,,,,,,,,,,,,,,,,,,,,,,,,,,,,,,
,,5d97f30dbe5c0c00154995fe,2022-09-08_14h03.34.639,CGTgamblingSpanTasks,2022.2.1,Win32,59.90534955,,,,,,,,2.4652,,,,,,,,,,,,,,2,n,1.5348,0,1,3.4652,1,0,42,42,17,1,18.33,0,8.84,0,,,,,,,,,,,,,,,,,,,,,,,,,,,,,,,,,,,,,,,,,,,,,,,,,,,,,,,,,,,,,,,,,,,,,,,,,,,,,,,,,,,,,,,,,,,,,,,,,,
,,5d97f30dbe5c0c00154995fe,2022-09-08_14h03.34.639,CGTgamblingSpanTasks,2022.2.1,Win32,59.90534955,,,,,,,,2.8214,,,,,,,,,,,,,,1,v,1.1786,20.53,1,4.3214,1.5,0,43,43,9,1,20.53,0,7.73,0,,,,,,,,,,,,,,,,,,,,,,,,,,,,,,,,,,,,,,,,,,,,,,,,,,,,,,,,,,,,,,,,,,,,,,,,,,,,,,,,,,,,,,,,,,,,,,,,,,
,,5d97f30dbe5c0c00154995fe,2022-09-08_14h03.34.639,CGTgamblingSpanTasks,2022.2.1,Win32,59.90534955,,,,,,,,2.8645,,,,,,,,,,,,,,2,n,1.1355,0,1,4.3645,1.5,0,44,44,5,1,22.97,0,6.51,0,,,,,,,,,,,,,,,,,,,,,,,,,,,,,,,,,,,,,,,,,,,,,,,,,,,,,,,,,,,,,,,,,,,,,,,,,,,,,,,,,,,,,,,,,,,,,,,,,,
,,5d97f30dbe5c0c00154995fe,2022-09-08_14h03.34.639,CGTgamblingSpanTasks,2022.2.1,Win32,59.90534955,,,,,,,,2.6473,,,,,,,,,,,,,,1,n,1.3527,6.19,0,4.1473,1.5,0,45,45,22,1,11.62,0,6.19,0,,,,,,,,,,,,,,,,,,,,,,,,,,,,,,,,,,,,,,,,,,,,,,,,,,,,,,,,,,,,,,,,,,,,,,,,,,,,,,,,,,,,,,,,,,,,,,,,,,
,,5d97f30dbe5c0c00154995fe,2022-09-08_14h03.34.639,CGTgamblingSpanTasks,2022.2.1,Win32,59.90534955,,,,,,,,3.0882,,,,,,,,,,,,,,2,v,0.9118,6.29,0,4.0882,1,0,46,46,24,1,11.43,0,6.29,0,,,,,,,,,,,,,,,,,,,,,,,,,,,,,,,,,,,,,,,,,,,,,,,,,,,,,,,,,,,,,,,,,,,,,,,,,,,,,,,,,,,,,,,,,,,,,,,,,,
,,5d97f30dbe5c0c00154995fe,2022-09-08_14h03.34.639,CGTgamblingSpanTasks,2022.2.1,Win32,59.90534955,,,,,,,,2.3134,,,,,,,,,,,,,,1,n,1.6866,5.66,0,3.8134,1.5,0,47,47,14,1,12.68,0,5.66,0,,,,,,,,,,,,,,,,,,,,,,,,,,,,,,,,,,,,,,,,,,,,,,,,,,,,,,,,,,,,,,,,,,,,,,,,,,,,,,,,,,,,,,,,,,,,,,,,,,
,,5d97f30dbe5c0c00154995fe,2022-09-08_14h03.34.639,CGTgamblingSpanTasks,2022.2.1,Win32,59.90534955,,,,,,,,2.8044,,,,,,,,,,,,,,2,n,1.1956,0,1,4.3044,1.5,0,48,48,8,1,13.94,0,5.03,0,,,,,,,,,,,,,,,,,,,,,,,,,,,,,,,,,,,,,,,,,,,,,,,,,,,,,,,,,,,,,,,,,,,,,,,,,,,,,,,,,,,,,,,,,,,,,,,,,,
,,5d97f30dbe5c0c00154995fe,2022-09-08_14h03.34.639,CGTgamblingSpanTasks,2022.2.1,Win32,59.90534955,,,,,,,,3.1142,,,,,,,,,,,,,,2,v,0.8858,9.03,0,4.6142,1.5,0,49,49,19,1,17.94,0,9.03,0,,,,,,,,,,,,,,,,,,,,,,,,,,,,,,,,,,,,,,,,,,,,,,,,,,,,,,,,,,,,,,,,,,,,,,,,,,,,,,,,,,,,,,,,,,,,,,,,,,
,,5d97f30dbe5c0c00154995fe,2022-09-08_14h03.34.639,CGTgamblingSpanTasks,2022.2.1,Win32,59.90534955,,,,,,,,,,,,,,,,,,,,,,,,,,,,,,,,,,,,,,bespoke_choiceset_rhoInd065_muInd079.csv,bespoke_choicesets/bespoke_choiceset_rhoInd065_muInd079.csv,65,79,0,0,0,0,1,,,,,,,,,,,,,,,,,,,,,,,,,,,,,,,,,,,,,,,,,,,,,,,,,,,,,,,,,,,,,,,,,,,,,,,,,,,,,,,,,,,,,,,,,
,,5d97f30dbe5c0c00154995fe,2022-09-08_14h03.34.639,CGTgamblingSpanTasks,2022.2.1,Win32,59.90534955,,,,,,,,,,,,,,,,,,,,,,,,,,,,,,,,,,,,,,,,,,,,,,,,,,,,,,,,,,,,,,,,,,,,,,,,,,,,,,,,,,,,,,,,,,,,,,,,,,,,,,,,,,,,,,,,,,,,,,,,,,,,,,,,,,,,,,,
,,5d97f30dbe5c0c00154995fe,2022-09-08_14h03.34.639,CGTgamblingSpanTasks,2022.2.1,Win32,59.90534955,,,,,,,,,,,,,,,,,,,,,,,,,,,,,,,,,,,,,,,,,,,,,,,v,17.5456,,,,,,,,,,,,,,,,,,,,,,,,,,,,,,,,,,,,,,,,,,,,,,,,,,,,,,,,,,,,,,,,,,,,,,,,,,,,,,,,,,,,,,,
,,5d97f30dbe5c0c00154995fe,2022-09-08_14h03.34.639,CGTgamblingSpanTasks,2022.2.1,Win32,59.90534955,,,,,,,,2.6424,,,,,,,,,,,,,,2,n,1.3576,9.012590634,1,3.6424,1,,,,,,9.012590634,0,1.002188111,,,,,,,,,,,,,0,0,0,12,1,0.46958041,1,,,,,,,,,,,,,,,,,,,,,,,,,,,,,,,,,,,,,,,,,,,,,,,,,,,,,,,,,,,,,,,,,,,,,,,,,,,,,,,,
,,5d97f30dbe5c0c00154995fe,2022-09-08_14h03.34.639,CGTgamblingSpanTasks,2022.2.1,Win32,59.90534955,,,,,,,,2.9841,,,,,,,,,,,,,,1,v,1.0159,0,1,3.9841,1,,,,,,27.60724521,0,0.088432325,,,,,,,,,,,,,0,1,1,17,1,0.904684186,0,,,,,,,,,,,,,,,,,,,,,,,,,,,,,,,,,,,,,,,,,,,,,,,,,,,,,,,,,,,,,,,,,,,,,,,,,,,,,,,,
,,5d97f30dbe5c0c00154995fe,2022-09-08_14h03.34.639,CGTgamblingSpanTasks,2022.2.1,Win32,59.90534955,,,,,,,,3.1073,,,,,,,,,,,,,,2,n,0.8927,19.68065872,1,4.1073,1,,,,,,19.68065872,0,1.843597162,,,,,,,,,,,,,0,2,2,80,1,0.514941058,1,,,,,,,,,,,,,,,,,,,,,,,,,,,,,,,,,,,,,,,,,,,,,,,,,,,,,,,,,,,,,,,,,,,,,,,,,,,,,,,,
,,5d97f30dbe5c0c00154995fe,2022-09-08_14h03.34.639,CGTgamblingSpanTasks,2022.2.1,Win32,59.90534955,,,,,,,,2.9789,,,,,,,,,,,,,,1,v,1.0211,19.5450126,1,3.9789,1,,,,,,19.5450126,0,2.123581464,,,,,,,,,,,,,0,3,3,65,1,0.475836144,1,,,,,,,,,,,,,,,,,,,,,,,,,,,,,,,,,,,,,,,,,,,,,,,,,,,,,,,,,,,,,,,,,,,,,,,,,,,,,,,,
,,5d97f30dbe5c0c00154995fe,2022-09-08_14h03.34.639,CGTgamblingSpanTasks,2022.2.1,Win32,59.90534955,,,,,,,,3.2058,,,,,,,,,,,,,,2,n,0.7942,21.39646914,1,4.7058,1.5,,,,,,21.39646914,0,0.072474078,,,,,,,,,,,,,0,4,4,3,1,0.902848133,0,,,,,,,,,,,,,,,,,,,,,,,,,,,,,,,,,,,,,,,,,,,,,,,,,,,,,,,,,,,,,,,,,,,,,,,,,,,,,,,,
,,5d97f30dbe5c0c00154995fe,2022-09-08_14h03.34.639,CGTgamblingSpanTasks,2022.2.1,Win32,59.90534955,,,,,,,,3.1625,,,,,,,,,,,,,,2,n,0.8375,0,1,4.6625,1.5,,,,,,19.3050342,0,2.030232342,,,,,,,,,,,,,0,5,5,73,1,0.484573227,1,,,,,,,,,,,,,,,,,,,,,,,,,,,,,,,,,,,,,,,,,,,,,,,,,,,,,,,,,,,,,,,,,,,,,,,,,,,,,,,,
,,5d97f30dbe5c0c00154995fe,2022-09-08_14h03.34.639,CGTgamblingSpanTasks,2022.2.1,Win32,59.90534955,,,,,,,,2.9958,,,,,,,,,,,,,,2,v,1.0042,10.68505773,0,4.4958,1.5,,,,,,17.64114152,0,10.68505773,,,,,,,,,,,,,0,6,6,98,1,0.074299362,0,,,,,,,,,,,,,,,,,,,,,,,,,,,,,,,,,,,,,,,,,,,,,,,,,,,,,,,,,,,,,,,,,,,,,,,,,,,,,,,,
,,5d97f30dbe5c0c00154995fe,2022-09-08_14h03.34.639,CGTgamblingSpanTasks,2022.2.1,Win32,59.90534955,,,,,,,,3.2211,,,,,,,,,,,,,,1,n,0.7789,11.61882862,0,4.7211,1.5,,,,,,4.022743614,0,11.61882862,,,,,,,,,,,,,0,7,7,38,1,0.011499376,0,,,,,,,,,,,,,,,,,,,,,,,,,,,,,,,,,,,,,,,,,,,,,,,,,,,,,,,,,,,,,,,,,,,,,,,,,,,,,,,,
,,5d97f30dbe5c0c00154995fe,2022-09-08_14h03.34.639,CGTgamblingSpanTasks,2022.2.1,Win32,59.90534955,,,,,,,,3.1618,,,,,,,,,,,,,,2,n,0.8382,26.11188619,1,4.1618,1,,,,,,26.11188619,0,0.081942421,,,,,,,,,,,,,0,8,8,105,1,0.905343856,0,,,,,,,,,,,,,,,,,,,,,,,,,,,,,,,,,,,,,,,,,,,,,,,,,,,,,,,,,,,,,,,,,,,,,,,,,,,,,,,,
,,5d97f30dbe5c0c00154995fe,2022-09-08_14h03.34.639,CGTgamblingSpanTasks,2022.2.1,Win32,59.90534955,,,,,,,,3.1655,,,,,,,,,,,,,,2,n,0.8345,0,1,4.6655,1.5,,,,,,25.26994993,0,2.78925142,,,,,,,,,,,,,0,9,9,108,1,0.471582922,1,,,,,,,,,,,,,,,,,,,,,,,,,,,,,,,,,,,,,,,,,,,,,,,,,,,,,,,,,,,,,,,,,,,,,,,,,,,,,,,,
,,5d97f30dbe5c0c00154995fe,2022-09-08_14h03.34.639,CGTgamblingSpanTasks,2022.2.1,Win32,59.90534955,,,,,,,,3.3074,,,,,,,,,,,,,,2,n,0.6926,21.46599803,1,4.3074,1,,,,,,21.46599803,0,0.059789256,,,,,,,,,,,,,0,10,10,8,1,0.909019081,0,,,,,,,,,,,,,,,,,,,,,,,,,,,,,,,,,,,,,,,,,,,,,,,,,,,,,,,,,,,,,,,,,,,,,,,,,,,,,,,,
,,5d97f30dbe5c0c00154995fe,2022-09-08_14h03.34.639,CGTgamblingSpanTasks,2022.2.1,Win32,59.90534955,,,,,,,,2.698,,,,,,,,,,,,,,1,n,1.302,2.701896413,0,3.698,1,,,,,,28.94627214,0,2.701896413,,,,,,,,,,,,,0,11,11,111,1,0.515860759,1,,,,,,,,,,,,,,,,,,,,,,,,,,,,,,,,,,,,,,,,,,,,,,,,,,,,,,,,,,,,,,,,,,,,,,,,,,,,,,,,
,,5d97f30dbe5c0c00154995fe,2022-09-08_14h03.34.639,CGTgamblingSpanTasks,2022.2.1,Win32,59.90534955,,,,,,,,2.9465,,,,,,,,,,,,,,1,v,1.0535,28.68598705,1,4.4465,1.5,,,,,,28.68598705,0,0.050674956,,,,,,,,,,,,,0,12,12,62,1,0.920905497,0,,,,,,,,,,,,,,,,,,,,,,,,,,,,,,,,,,,,,,,,,,,,,,,,,,,,,,,,,,,,,,,,,,,,,,,,,,,,,,,,
,,5d97f30dbe5c0c00154995fe,2022-09-08_14h03.34.639,CGTgamblingSpanTasks,2022.2.1,Win32,59.90534955,,,,,,,,2.4167,,,,,,,,,,,,,,2,v,1.5833,6.091504705,0,3.4167,1,,,,,,6.662965216,0,6.091504705,,,,,,,,,,,,,0,13,13,102,1,0.035087099,0,,,,,,,,,,,,,,,,,,,,,,,,,,,,,,,,,,,,,,,,,,,,,,,,,,,,,,,,,,,,,,,,,,,,,,,,,,,,,,,,
,,5d97f30dbe5c0c00154995fe,2022-09-08_14h03.34.639,CGTgamblingSpanTasks,2022.2.1,Win32,59.90534955,,,,,,,,2.8809,,,,,,,,,,,,,,1,v,1.1191,0,1,3.8809,1,,,,,,24.35708027,0,2.738695417,,,,,,,,,,,,,0,14,14,114,1,0.466573634,1,,,,,,,,,,,,,,,,,,,,,,,,,,,,,,,,,,,,,,,,,,,,,,,,,,,,,,,,,,,,,,,,,,,,,,,,,,,,,,,,
,,5d97f30dbe5c0c00154995fe,2022-09-08_14h03.34.639,CGTgamblingSpanTasks,2022.2.1,Win32,59.90534955,,,,,,,,3.0215,,,,,,,,,,,,,,1,v,0.9785,0,1,4.5215,1.5,,,,,,17.4320197,0,1.448620949,,,,,,,,,,,,,0,15,15,30,1,0.545178213,1,,,,,,,,,,,,,,,,,,,,,,,,,,,,,,,,,,,,,,,,,,,,,,,,,,,,,,,,,,,,,,,,,,,,,,,,,,,,,,,,
,,5d97f30dbe5c0c00154995fe,2022-09-08_14h03.34.639,CGTgamblingSpanTasks,2022.2.1,Win32,59.90534955,,,,,,,,3.0568,,,,,,,,,,,,,,1,v,0.9432,17.85020524,1,4.0568,1,,,,,,17.85020524,0,2.058701084,,,,,,,,,,,,,0,16,16,25,1,0.459662216,1,,,,,,,,,,,,,,,,,,,,,,,,,,,,,,,,,,,,,,,,,,,,,,,,,,,,,,,,,,,,,,,,,,,,,,,,,,,,,,,,
,,5d97f30dbe5c0c00154995fe,2022-09-08_14h03.34.639,CGTgamblingSpanTasks,2022.2.1,Win32,59.90534955,,,,,,,,3.2705,,,,,,,,,,,,,,2,n,0.7295,0,1,4.7705,1.5,,,,,,24.57684014,0,0.061756244,,,,,,,,,,,,,0,17,17,68,1,0.911988903,0,,,,,,,,,,,,,,,,,,,,,,,,,,,,,,,,,,,,,,,,,,,,,,,,,,,,,,,,,,,,,,,,,,,,,,,,,,,,,,,,
,,5d97f30dbe5c0c00154995fe,2022-09-08_14h03.34.639,CGTgamblingSpanTasks,2022.2.1,Win32,59.90534955,,,,,,,,3.145,,,,,,,,,,,,,,1,n,0.855,7.850775577,0,4.645,1.5,,,,,,4.622707531,0,7.850775577,,,,,,,,,,,,,0,18,18,6,1,0.017737407,0,,,,,,,,,,,,,,,,,,,,,,,,,,,,,,,,,,,,,,,,,,,,,,,,,,,,,,,,,,,,,,,,,,,,,,,,,,,,,,,,
,,5d97f30dbe5c0c00154995fe,2022-09-08_14h03.34.639,CGTgamblingSpanTasks,2022.2.1,Win32,59.90534955,,,,,,,,3.1978,,,,,,,,,,,,,,2,n,0.8022,27.94544945,1,4.6978,1.5,,,,,,27.94544945,0,2.32030209,,,,,,,,,,,,,0,19,19,115,1,0.545390564,1,,,,,,,,,,,,,,,,,,,,,,,,,,,,,,,,,,,,,,,,,,,,,,,,,,,,,,,,,,,,,,,,,,,,,,,,,,,,,,,,
,,5d97f30dbe5c0c00154995fe,2022-09-08_14h03.34.639,CGTgamblingSpanTasks,2022.2.1,Win32,59.90534955,,,,,,,,2.991,,,,,,,,,,,,,,1,n,1.009,11.6744431,0,3.991,1,,,,,,10.43004651,0,11.6744431,,,,,,,,,,,,,0,20,20,15,1,0.026176489,0,,,,,,,,,,,,,,,,,,,,,,,,,,,,,,,,,,,,,,,,,,,,,,,,,,,,,,,,,,,,,,,,,,,,,,,,,,,,,,,,
,,5d97f30dbe5c0c00154995fe,2022-09-08_14h03.34.639,CGTgamblingSpanTasks,2022.2.1,Win32,59.90534955,,,,,,,,3.2398,,,,,,,,,,,,,,2,n,0.7602,0,1,4.2398,1,,,,,,26.4985979,0,0.051324376,,,,,,,,,,,,,0,21,21,106,1,0.918747215,0,,,,,,,,,,,,,,,,,,,,,,,,,,,,,,,,,,,,,,,,,,,,,,,,,,,,,,,,,,,,,,,,,,,,,,,,,,,,,,,,
,,5d97f30dbe5c0c00154995fe,2022-09-08_14h03.34.639,CGTgamblingSpanTasks,2022.2.1,Win32,59.90534955,,,,,,,,2.6507,,,,,,,,,,,,,,2,v,1.3493,11.42134125,0,3.6507,1,,,,,,12.9904115,0,11.42134125,,,,,,,,,,,,,0,22,22,118,1,0.037876033,0,,,,,,,,,,,,,,,,,,,,,,,,,,,,,,,,,,,,,,,,,,,,,,,,,,,,,,,,,,,,,,,,,,,,,,,,,,,,,,,,
,,5d97f30dbe5c0c00154995fe,2022-09-08_14h03.34.639,CGTgamblingSpanTasks,2022.2.1,Win32,59.90534955,,,,,,,,2.8825,,,,,,,,,,,,,,1,v,1.1175,24.66627941,1,3.8825,1,,,,,,24.66627941,0,2.765426402,,,,,,,,,,,,,0,23,23,24,1,0.467360588,1,,,,,,,,,,,,,,,,,,,,,,,,,,,,,,,,,,,,,,,,,,,,,,,,,,,,,,,,,,,,,,,,,,,,,,,,,,,,,,,,
,,5d97f30dbe5c0c00154995fe,2022-09-08_14h03.34.639,CGTgamblingSpanTasks,2022.2.1,Win32,59.90534955,,,,,,,,3.0027,,,,,,,,,,,,,,1,n,0.9973,5.526483034,0,4.5027,1.5,,,,,,9.725876653,0,5.526483034,,,,,,,,,,,,,0,24,24,44,1,0.082550696,0,,,,,,,,,,,,,,,,,,,,,,,,,,,,,,,,,,,,,,,,,,,,,,,,,,,,,,,,,,,,,,,,,,,,,,,,,,,,,,,,
,,5d97f30dbe5c0c00154995fe,2022-09-08_14h03.34.639,CGTgamblingSpanTasks,2022.2.1,Win32,59.90534955,,,,,,,,3.1631,,,,,,,,,,,,,,2,n,0.8369,0,1,4.1631,1,,,,,,28.18900855,0,0.05384276,,,,,,,,,,,,,0,25,25,55,1,0.919081308,0,,,,,,,,,,,,,,,,,,,,,,,,,,,,,,,,,,,,,,,,,,,,,,,,,,,,,,,,,,,,,,,,,,,,,,,,,,,,,,,,
,,5d97f30dbe5c0c00154995fe,2022-09-08_14h03.34.639,CGTgamblingSpanTasks,2022.2.1,Win32,59.90534955,,,,,,,,2.8449,,,,,,,,,,,,,,2,n,1.1551,0,1,3.8449,1,,,,,,19.58698544,0,9.936178001,,,,,,,,,,,,,0,26,26,77,1,0.098812204,0,,,,,,,,,,,,,,,,,,,,,,,,,,,,,,,,,,,,,,,,,,,,,,,,,,,,,,,,,,,,,,,,,,,,,,,,,,,,,,,,
,,5d97f30dbe5c0c00154995fe,2022-09-08_14h03.34.639,CGTgamblingSpanTasks,2022.2.1,Win32,59.90534955,,,,,,,,3.0039,,,,,,,,,,,,,,2,n,0.9961,21.48443242,1,4.5039,1.5,,,,,,21.48443242,0,2.229247341,,,,,,,,,,,,,0,27,27,63,1,0.488155912,1,,,,,,,,,,,,,,,,,,,,,,,,,,,,,,,,,,,,,,,,,,,,,,,,,,,,,,,,,,,,,,,,,,,,,,,,,,,,,,,,
,,5d97f30dbe5c0c00154995fe,2022-09-08_14h03.34.639,CGTgamblingSpanTasks,2022.2.1,Win32,59.90534955,,,,,,,,3.3494,,,,,,,,,,,,,,2,n,0.6506,28.33977875,1,4.8494,1.5,,,,,,28.33977875,0,2.768313633,,,,,,,,,,,,,0,28,28,116,1,0.50406901,1,,,,,,,,,,,,,,,,,,,,,,,,,,,,,,,,,,,,,,,,,,,,,,,,,,,,,,,,,,,,,,,,,,,,,,,,,,,,,,,,
,,5d97f30dbe5c0c00154995fe,2022-09-08_14h03.34.639,CGTgamblingSpanTasks,2022.2.1,Win32,59.90534955,,,,,,,,3.0675,,,,,,,,,,,,,,1,v,0.9325,0,1,4.0675,1,,,,,,15.43649625,0,1.65459324,,,,,,,,,,,,,0,29,29,33,1,0.479480163,1,,,,,,,,,,,,,,,,,,,,,,,,,,,,,,,,,,,,,,,,,,,,,,,,,,,,,,,,,,,,,,,,,,,,,,,,,,,,,,,,
,,5d97f30dbe5c0c00154995fe,2022-09-08_14h03.34.639,CGTgamblingSpanTasks,2022.2.1,Win32,59.90534955,,,,,,,,3.2791,,,,,,,,,,,,,,1,v,0.7209,0,1,4.2791,1,,,,,,24.8002852,0,0.071848086,,,,,,,,,,,,,0,30,30,16,1,0.90783559,0,,,,,,,,,,,,,,,,,,,,,,,,,,,,,,,,,,,,,,,,,,,,,,,,,,,,,,,,,,,,,,,,,,,,,,,,,,,,,,,,
,,5d97f30dbe5c0c00154995fe,2022-09-08_14h03.34.639,CGTgamblingSpanTasks,2022.2.1,Win32,59.90534955,,,,,,,,3.2371,,,,,,,,,,,,,,2,n,0.7629,0,1,4.7371,1.5,,,,,,27.39221343,0,2.743407746,,,,,,,,,,,,,0,31,31,47,1,0.49752044,1,,,,,,,,,,,,,,,,,,,,,,,,,,,,,,,,,,,,,,,,,,,,,,,,,,,,,,,,,,,,,,,,,,,,,,,,,,,,,,,,
,,5d97f30dbe5c0c00154995fe,2022-09-08_14h03.34.639,CGTgamblingSpanTasks,2022.2.1,Win32,59.90534955,,,,,,,,3.2059,,,,,,,,,,,,,,1,v,0.7941,28.14876717,1,4.2059,1,,,,,,28.14876717,0,3.117906378,,,,,,,,,,,,,0,32,32,76,1,0.470636736,1,,,,,,,,,,,,,,,,,,,,,,,,,,,,,,,,,,,,,,,,,,,,,,,,,,,,,,,,,,,,,,,,,,,,,,,,,,,,,,,,
,,5d97f30dbe5c0c00154995fe,2022-09-08_14h03.34.639,CGTgamblingSpanTasks,2022.2.1,Win32,59.90534955,,,,,,,,3.1641,,,,,,,,,,,,,,2,n,0.8359,27.7711693,1,4.1641,1,,,,,,27.7711693,0,2.320849632,,,,,,,,,,,,,0,33,33,94,1,0.543786368,1,,,,,,,,,,,,,,,,,,,,,,,,,,,,,,,,,,,,,,,,,,,,,,,,,,,,,,,,,,,,,,,,,,,,,,,,,,,,,,,,
,,5d97f30dbe5c0c00154995fe,2022-09-08_14h03.34.639,CGTgamblingSpanTasks,2022.2.1,Win32,59.90534955,,,,,,,,3.1685,,,,,,,,,,,,,,1,v,0.8315,28.9381277,1,4.6685,1.5,,,,,,28.9381277,0,2.663622024,,,,,,,,,,,,,0,34,34,103,1,0.519453367,1,,,,,,,,,,,,,,,,,,,,,,,,,,,,,,,,,,,,,,,,,,,,,,,,,,,,,,,,,,,,,,,,,,,,,,,,,,,,,,,,
,,5d97f30dbe5c0c00154995fe,2022-09-08_14h03.34.639,CGTgamblingSpanTasks,2022.2.1,Win32,59.90534955,,,,,,,,3.3336,,,,,,,,,,,,,,2,n,0.6664,29.30724159,1,4.3336,1,,,,,,29.30724159,0,3.247012935,,,,,,,,,,,,,0,35,35,71,1,0.470571125,1,,,,,,,,,,,,,,,,,,,,,,,,,,,,,,,,,,,,,,,,,,,,,,,,,,,,,,,,,,,,,,,,,,,,,,,,,,,,,,,,
,,5d97f30dbe5c0c00154995fe,2022-09-08_14h03.34.639,CGTgamblingSpanTasks,2022.2.1,Win32,59.90534955,,,,,,,,3.3319,,,,,,,,,,,,,,1,v,0.6681,0,1,4.8319,1.5,,,,,,19.30622782,0,10.31611309,,,,,,,,,,,,,0,36,36,1,1,0.091105656,0,,,,,,,,,,,,,,,,,,,,,,,,,,,,,,,,,,,,,,,,,,,,,,,,,,,,,,,,,,,,,,,,,,,,,,,,,,,,,,,,
,,5d97f30dbe5c0c00154995fe,2022-09-08_14h03.34.639,CGTgamblingSpanTasks,2022.2.1,Win32,59.90534955,,,,,,,,3.1969,,,,,,,,,,,,,,2,n,0.8031,13.4287264,1,4.6969,1.5,,,,,,13.4287264,0,1.317368801,,,,,,,,,,,,,0,37,37,100,1,0.502953125,1,,,,,,,,,,,,,,,,,,,,,,,,,,,,,,,,,,,,,,,,,,,,,,,,,,,,,,,,,,,,,,,,,,,,,,,,,,,,,,,,
,,5d97f30dbe5c0c00154995fe,2022-09-08_14h03.34.639,CGTgamblingSpanTasks,2022.2.1,Win32,59.90534955,,,,,,,,3.2701,,,,,,,,,,,,,,2,n,0.7299,27.4965044,1,4.2701,1,,,,,,27.4965044,0,2.461467004,,,,,,,,,,,,,0,38,38,36,1,0.526550878,1,,,,,,,,,,,,,,,,,,,,,,,,,,,,,,,,,,,,,,,,,,,,,,,,,,,,,,,,,,,,,,,,,,,,,,,,,,,,,,,,
,,5d97f30dbe5c0c00154995fe,2022-09-08_14h03.34.639,CGTgamblingSpanTasks,2022.2.1,Win32,59.90534955,,,,,,,,2.9618,,,,,,,,,,,,,,1,v,1.0382,0,1,4.4618,1.5,,,,,,11.16819157,0,0.941456753,,,,,,,,,,,,,0,39,39,45,1,0.54163803,1,,,,,,,,,,,,,,,,,,,,,,,,,,,,,,,,,,,,,,,,,,,,,,,,,,,,,,,,,,,,,,,,,,,,,,,,,,,,,,,,
,,5d97f30dbe5c0c00154995fe,2022-09-08_14h03.34.639,CGTgamblingSpanTasks,2022.2.1,Win32,59.90534955,,,,,,,,2.8043,,,,,,,,,,,,,,1,n,1.1957,8.579385201,0,4.3043,1.5,,,,,,14.11762686,0,8.579385201,,,,,,,,,,,,,0,40,40,60,1,0.073886959,0,,,,,,,,,,,,,,,,,,,,,,,,,,,,,,,,,,,,,,,,,,,,,,,,,,,,,,,,,,,,,,,,,,,,,,,,,,,,,,,,
,,5d97f30dbe5c0c00154995fe,2022-09-08_14h03.34.639,CGTgamblingSpanTasks,2022.2.1,Win32,59.90534955,,,,,,,,3.2032,,,,,,,,,,,,,,2,n,0.7968,27.76752685,1,4.7032,1.5,,,,,,27.76752685,0,0.083968035,,,,,,,,,,,,,0,41,41,13,1,0.906513967,0,,,,,,,,,,,,,,,,,,,,,,,,,,,,,,,,,,,,,,,,,,,,,,,,,,,,,,,,,,,,,,,,,,,,,,,,,,,,,,,,
,,5d97f30dbe5c0c00154995fe,2022-09-08_14h03.34.639,CGTgamblingSpanTasks,2022.2.1,Win32,59.90534955,,,,,,,,2.5635,,,,,,,,,,,,,,1,v,1.4365,0,1,3.5635,1,,,,,,15.13999312,0,8.653432553,,,,,,,,,,,,,0,42,42,54,1,0.081767484,0,,,,,,,,,,,,,,,,,,,,,,,,,,,,,,,,,,,,,,,,,,,,,,,,,,,,,,,,,,,,,,,,,,,,,,,,,,,,,,,,
,,5d97f30dbe5c0c00154995fe,2022-09-08_14h03.34.639,CGTgamblingSpanTasks,2022.2.1,Win32,59.90534955,,,,,,,,2.7897,,,,,,,,,,,,,,2,v,1.2103,10.3417501,0,3.7897,1,,,,,,15.21435748,0,10.3417501,,,,,,,,,,,,,0,43,43,72,1,0.060969226,0,,,,,,,,,,,,,,,,,,,,,,,,,,,,,,,,,,,,,,,,,,,,,,,,,,,,,,,,,,,,,,,,,,,,,,,,,,,,,,,,
,,5d97f30dbe5c0c00154995fe,2022-09-08_14h03.34.639,CGTgamblingSpanTasks,2022.2.1,Win32,59.90534955,,,,,,,,2.4403,,,,,,,,,,,,,,2,v,1.5597,8.830252162,0,3.4403,1,,,,,,15.73000491,0,8.830252162,,,,,,,,,,,,,0,44,44,95,1,0.084193143,0,,,,,,,,,,,,,,,,,,,,,,,,,,,,,,,,,,,,,,,,,,,,,,,,,,,,,,,,,,,,,,,,,,,,,,,,,,,,,,,,
,,5d97f30dbe5c0c00154995fe,2022-09-08_14h03.34.639,CGTgamblingSpanTasks,2022.2.1,Win32,59.90534955,,,,,,,,3.1478,,,,,,,,,,,,,,1,v,0.8522,0,1,4.1478,1,,,,,,22.25959835,0,0.065383587,,,,,,,,,,,,,0,45,45,97,1,0.907413875,0,,,,,,,,,,,,,,,,,,,,,,,,,,,,,,,,,,,,,,,,,,,,,,,,,,,,,,,,,,,,,,,,,,,,,,,,,,,,,,,,
,,5d97f30dbe5c0c00154995fe,2022-09-08_14h03.34.639,CGTgamblingSpanTasks,2022.2.1,Win32,59.90534955,,,,,,,,2.8914,,,,,,,,,,,,,,1,n,1.1086,6.833409611,0,4.3914,1.5,,,,,,6.325091157,0,6.833409611,,,,,,,,,,,,,0,46,46,58,1,0.027113638,0,,,,,,,,,,,,,,,,,,,,,,,,,,,,,,,,,,,,,,,,,,,,,,,,,,,,,,,,,,,,,,,,,,,,,,,,,,,,,,,,
,,5d97f30dbe5c0c00154995fe,2022-09-08_14h03.34.639,CGTgamblingSpanTasks,2022.2.1,Win32,59.90534955,,,,,,,,3.0007,,,,,,,,,,,,,,2,n,0.9993,20.5726842,1,4.5007,1.5,,,,,,20.5726842,0,0.073558523,,,,,,,,,,,,,0,47,47,26,1,0.901008565,0,,,,,,,,,,,,,,,,,,,,,,,,,,,,,,,,,,,,,,,,,,,,,,,,,,,,,,,,,,,,,,,,,,,,,,,,,,,,,,,,
,,5d97f30dbe5c0c00154995fe,2022-09-08_14h03.34.639,CGTgamblingSpanTasks,2022.2.1,Win32,59.90534955,,,,,,,,2.8984,,,,,,,,,,,,,,2,v,1.1016,6.781500919,0,3.8984,1,,,,,,8.363821911,0,6.781500919,,,,,,,,,,,,,0,48,48,61,1,0.044227959,0,,,,,,,,,,,,,,,,,,,,,,,,,,,,,,,,,,,,,,,,,,,,,,,,,,,,,,,,,,,,,,,,,,,,,,,,,,,,,,,,
,,5d97f30dbe5c0c00154995fe,2022-09-08_14h03.34.639,CGTgamblingSpanTasks,2022.2.1,Win32,59.90534955,,,,,,,,3.2284,,,,,,,,,,,,,,2,v,0.7716,7.646213173,0,4.7284,1.5,,,,,,2.042350179,0,7.646213173,,,,,,,,,,,,,0,49,49,53,1,0.009522273,0,,,,,,,,,,,,,,,,,,,,,,,,,,,,,,,,,,,,,,,,,,,,,,,,,,,,,,,,,,,,,,,,,,,,,,,,,,,,,,,,
,,5d97f30dbe5c0c00154995fe,2022-09-08_14h03.34.639,CGTgamblingSpanTasks,2022.2.1,Win32,59.90534955,,,,,,,,2.4056,,,,,,,,,,,,,,2,v,1.5944,11.39288827,0,3.4056,1,,,,,,20.97851654,0,11.39288827,,,,,,,,,,,,,0,50,50,2,1,0.088791079,0,,,,,,,,,,,,,,,,,,,,,,,,,,,,,,,,,,,,,,,,,,,,,,,,,,,,,,,,,,,,,,,,,,,,,,,,,,,,,,,,
,,5d97f30dbe5c0c00154995fe,2022-09-08_14h03.34.639,CGTgamblingSpanTasks,2022.2.1,Win32,59.90534955,,,,,,,,3.2547,,,,,,,,,,,,,,2,n,0.7453,0,1,4.7547,1.5,,,,,,17.5608285,0,1.825111303,,,,,,,,,,,,,0,51,51,104,1,0.487721116,1,,,,,,,,,,,,,,,,,,,,,,,,,,,,,,,,,,,,,,,,,,,,,,,,,,,,,,,,,,,,,,,,,,,,,,,,,,,,,,,,
,,5d97f30dbe5c0c00154995fe,2022-09-08_14h03.34.639,CGTgamblingSpanTasks,2022.2.1,Win32,59.90534955,,,,,,,,2.7114,,,,,,,,,,,,,,1,v,1.2886,0,1,4.2114,1.5,,,,,,29.77342428,0,2.838865588,,,,,,,,,,,,,0,52,52,57,1,0.510363415,1,,,,,,,,,,,,,,,,,,,,,,,,,,,,,,,,,,,,,,,,,,,,,,,,,,,,,,,,,,,,,,,,,,,,,,,,,,,,,,,,
,,5d97f30dbe5c0c00154995fe,2022-09-08_14h03.34.639,CGTgamblingSpanTasks,2022.2.1,Win32,59.90534955,,,,,,,,3.2039,,,,,,,,,,,,,,1,v,0.7961,0,1,4.7039,1.5,,,,,,23.4214135,0,2.485985001,,,,,,,,,,,,,0,53,53,81,1,0.482105905,1,,,,,,,,,,,,,,,,,,,,,,,,,,,,,,,,,,,,,,,,,,,,,,,,,,,,,,,,,,,,,,,,,,,,,,,,,,,,,,,,
,,5d97f30dbe5c0c00154995fe,2022-09-08_14h03.34.639,CGTgamblingSpanTasks,2022.2.1,Win32,59.90534955,,,,,,,,3.1895,,,,,,,,,,,,,,2,n,0.8105,0,1,4.6895,1.5,,,,,,13.84410806,0,1.535873964,,,,,,,,,,,,,0,54,54,88,1,0.470209002,1,,,,,,,,,,,,,,,,,,,,,,,,,,,,,,,,,,,,,,,,,,,,,,,,,,,,,,,,,,,,,,,,,,,,,,,,,,,,,,,,
,,5d97f30dbe5c0c00154995fe,2022-09-08_14h03.34.639,CGTgamblingSpanTasks,2022.2.1,Win32,59.90534955,,,,,,,,3.204,,,,,,,,,,,,,,1,v,0.796,29.76099779,1,4.204,1,,,,,,29.76099779,0,0.095763086,,,,,,,,,,,,,0,55,55,35,1,0.904537896,0,,,,,,,,,,,,,,,,,,,,,,,,,,,,,,,,,,,,,,,,,,,,,,,,,,,,,,,,,,,,,,,,,,,,,,,,,,,,,,,,
,,5d97f30dbe5c0c00154995fe,2022-09-08_14h03.34.639,CGTgamblingSpanTasks,2022.2.1,Win32,59.90534955,,,,,,,,3.3524,,,,,,,,,,,,,,2,n,0.6476,0,1,4.8524,1.5,,,,,,25.0707644,0,0.067651625,,,,,,,,,,,,,0,56,56,70,1,0.909952349,0,,,,,,,,,,,,,,,,,,,,,,,,,,,,,,,,,,,,,,,,,,,,,,,,,,,,,,,,,,,,,,,,,,,,,,,,,,,,,,,,
,,5d97f30dbe5c0c00154995fe,2022-09-08_14h03.34.639,CGTgamblingSpanTasks,2022.2.1,Win32,59.90534955,,,,,,,,2.9833,,,,,,,,,,,,,,1,n,1.0167,4.462262453,0,3.9833,1,,,,,,0.192759042,0,4.462262453,,,,,,,,,,,,,0,57,57,52,1,0.003553223,0,,,,,,,,,,,,,,,,,,,,,,,,,,,,,,,,,,,,,,,,,,,,,,,,,,,,,,,,,,,,,,,,,,,,,,,,,,,,,,,,
,,5d97f30dbe5c0c00154995fe,2022-09-08_14h03.34.639,CGTgamblingSpanTasks,2022.2.1,Win32,59.90534955,,,,,,,,3.1724,,,,,,,,,,,,,,1,v,0.8276,17.67865084,1,4.1724,1,,,,,,17.67865084,0,11.35147481,,,,,,,,,,,,,0,58,58,91,1,0.067304606,0,,,,,,,,,,,,,,,,,,,,,,,,,,,,,,,,,,,,,,,,,,,,,,,,,,,,,,,,,,,,,,,,,,,,,,,,,,,,,,,,
,,5d97f30dbe5c0c00154995fe,2022-09-08_14h03.34.639,CGTgamblingSpanTasks,2022.2.1,Win32,59.90534955,,,,,,,,2.7968,,,,,,,,,,,,,,2,n,1.2032,0,1,3.7968,1,,,,,,21.03408097,0,2.208275162,,,,,,,,,,,,,0,59,59,0,1,0.485031246,1,,,,,,,,,,,,,,,,,,,,,,,,,,,,,,,,,,,,,,,,,,,,,,,,,,,,,,,,,,,,,,,,,,,,,,,,,,,,,,,,
,,5d97f30dbe5c0c00154995fe,2022-09-08_14h03.34.639,CGTgamblingSpanTasks,2022.2.1,Win32,59.90534955,,,,,,,,2.9474,,,,,,,,,,,,,,1,v,1.0526,8.217594828,1,3.9474,1,,,,,,8.217594828,0,0.951019374,,,,,,,,,,,,,0,60,60,87,1,0.458722936,1,,,,,,,,,,,,,,,,,,,,,,,,,,,,,,,,,,,,,,,,,,,,,,,,,,,,,,,,,,,,,,,,,,,,,,,,,,,,,,,,
,,5d97f30dbe5c0c00154995fe,2022-09-08_14h03.34.639,CGTgamblingSpanTasks,2022.2.1,Win32,59.90534955,,,,,,,,3.2065,,,,,,,,,,,,,,2,v,0.7935,11.19311486,0,4.7065,1.5,,,,,,8.17598802,0,11.19311486,,,,,,,,,,,,,0,61,61,110,1,0.021568003,0,,,,,,,,,,,,,,,,,,,,,,,,,,,,,,,,,,,,,,,,,,,,,,,,,,,,,,,,,,,,,,,,,,,,,,,,,,,,,,,,
,,5d97f30dbe5c0c00154995fe,2022-09-08_14h03.34.639,CGTgamblingSpanTasks,2022.2.1,Win32,59.90534955,,,,,,,,3.0967,,,,,,,,,,,,,,2,n,0.9033,23.24777057,1,4.0967,1,,,,,,23.24777057,0,2.003482335,,,,,,,,,,,,,0,62,62,59,1,0.536135174,1,,,,,,,,,,,,,,,,,,,,,,,,,,,,,,,,,,,,,,,,,,,,,,,,,,,,,,,,,,,,,,,,,,,,,,,,,,,,,,,,
,,5d97f30dbe5c0c00154995fe,2022-09-08_14h03.34.639,CGTgamblingSpanTasks,2022.2.1,Win32,59.90534955,,,,,,,,3.0373,,,,,,,,,,,,,,1,v,0.9627,0,1,4.0373,1,,,,,,28.9323758,0,2.893007023,,,,,,,,,,,,,0,63,63,11,1,0.497943321,1,,,,,,,,,,,,,,,,,,,,,,,,,,,,,,,,,,,,,,,,,,,,,,,,,,,,,,,,,,,,,,,,,,,,,,,,,,,,,,,,
,,5d97f30dbe5c0c00154995fe,2022-09-08_14h03.34.639,CGTgamblingSpanTasks,2022.2.1,Win32,59.90534955,,,,,,,,3.0646,,,,,,,,,,,,,,1,v,0.9354,0,1,4.5646,1.5,,,,,,25.56803059,0,2.543951743,,,,,,,,,,,,,0,64,64,41,1,0.499247217,1,,,,,,,,,,,,,,,,,,,,,,,,,,,,,,,,,,,,,,,,,,,,,,,,,,,,,,,,,,,,,,,,,,,,,,,,,,,,,,,,
,,5d97f30dbe5c0c00154995fe,2022-09-08_14h03.34.639,CGTgamblingSpanTasks,2022.2.1,Win32,59.90534955,,,,,,,,3.3023,,,,,,,,,,,,,,2,n,0.6977,25.65316415,1,4.3023,1,,,,,,25.65316415,0,0.079652925,,,,,,,,,,,,,0,65,65,109,1,0.90568168,0,,,,,,,,,,,,,,,,,,,,,,,,,,,,,,,,,,,,,,,,,,,,,,,,,,,,,,,,,,,,,,,,,,,,,,,,,,,,,,,,
,,5d97f30dbe5c0c00154995fe,2022-09-08_14h03.34.639,CGTgamblingSpanTasks,2022.2.1,Win32,59.90534955,,,,,,,,3.0634,,,,,,,,,,,,,,1,v,0.9366,0,1,4.0634,1,,,,,,18.16238569,0,1.540604093,,,,,,,,,,,,,0,66,66,34,1,0.540092491,1,,,,,,,,,,,,,,,,,,,,,,,,,,,,,,,,,,,,,,,,,,,,,,,,,,,,,,,,,,,,,,,,,,,,,,,,,,,,,,,,
,,5d97f30dbe5c0c00154995fe,2022-09-08_14h03.34.639,CGTgamblingSpanTasks,2022.2.1,Win32,59.90534955,,,,,,,,3.0387,,,,,,,,,,,,,,1,v,0.9613,0,1,4.0387,1,,,,,,7.534278541,0,0.747140182,,,,,,,,,,,,,0,67,67,37,1,0.50012466,1,,,,,,,,,,,,,,,,,,,,,,,,,,,,,,,,,,,,,,,,,,,,,,,,,,,,,,,,,,,,,,,,,,,,,,,,,,,,,,,,
,,5d97f30dbe5c0c00154995fe,2022-09-08_14h03.34.639,CGTgamblingSpanTasks,2022.2.1,Win32,59.90534955,,,,,,,,3.1635,,,,,,,,,,,,,,1,n,0.8365,5.683635938,0,4.1635,1,,,,,,4.941039335,0,5.683635938,,,,,,,,,,,,,0,68,68,9,1,0.025481984,0,,,,,,,,,,,,,,,,,,,,,,,,,,,,,,,,,,,,,,,,,,,,,,,,,,,,,,,,,,,,,,,,,,,,,,,,,,,,,,,,
,,5d97f30dbe5c0c00154995fe,2022-09-08_14h03.34.639,CGTgamblingSpanTasks,2022.2.1,Win32,59.90534955,,,,,,,,3.1389,,,,,,,,,,,,,,1,v,0.8611,0,1,4.6389,1.5,,,,,,22.0050376,0,2.257683666,,,,,,,,,,,,,0,69,69,4,1,0.491147312,1,,,,,,,,,,,,,,,,,,,,,,,,,,,,,,,,,,,,,,,,,,,,,,,,,,,,,,,,,,,,,,,,,,,,,,,,,,,,,,,,
,,5d97f30dbe5c0c00154995fe,2022-09-08_14h03.34.639,CGTgamblingSpanTasks,2022.2.1,Win32,59.90534955,,,,,,,,2.7764,,,,,,,,,,,,,,1,v,1.2236,7.066129113,1,4.2764,1.5,,,,,,7.066129113,0,0.585581699,,,,,,,,,,,,,0,70,70,19,1,0.545860632,1,,,,,,,,,,,,,,,,,,,,,,,,,,,,,,,,,,,,,,,,,,,,,,,,,,,,,,,,,,,,,,,,,,,,,,,,,,,,,,,,
,,5d97f30dbe5c0c00154995fe,2022-09-08_14h03.34.639,CGTgamblingSpanTasks,2022.2.1,Win32,59.90534955,,,,,,,,3.2649,,,,,,,,,,,,,,2,n,0.7351,0,1,4.2649,1,,,,,,28.13634754,0,2.532806323,,,,,,,,,,,,,0,71,71,28,1,0.525136524,1,,,,,,,,,,,,,,,,,,,,,,,,,,,,,,,,,,,,,,,,,,,,,,,,,,,,,,,,,,,,,,,,,,,,,,,,,,,,,,,,
,,5d97f30dbe5c0c00154995fe,2022-09-08_14h03.34.639,CGTgamblingSpanTasks,2022.2.1,Win32,59.90534955,,,,,,,,3.18,,,,,,,,,,,,,,1,v,0.82,27.77179191,1,4.18,1,,,,,,27.77179191,0,0.074524436,,,,,,,,,,,,,0,72,72,99,1,0.910114387,0,,,,,,,,,,,,,,,,,,,,,,,,,,,,,,,,,,,,,,,,,,,,,,,,,,,,,,,,,,,,,,,,,,,,,,,,,,,,,,,,
,,5d97f30dbe5c0c00154995fe,2022-09-08_14h03.34.639,CGTgamblingSpanTasks,2022.2.1,Win32,59.90534955,,,,,,,,3.2925,,,,,,,,,,,,,,1,v,0.7075,25.21882231,1,4.7925,1.5,,,,,,25.21882231,0,0.085746782,,,,,,,,,,,,,0,73,73,64,1,0.90272076,0,,,,,,,,,,,,,,,,,,,,,,,,,,,,,,,,,,,,,,,,,,,,,,,,,,,,,,,,,,,,,,,,,,,,,,,,,,,,,,,,
,,5d97f30dbe5c0c00154995fe,2022-09-08_14h03.34.639,CGTgamblingSpanTasks,2022.2.1,Win32,59.90534955,,,,,,,,2.7511,,,,,,,,,,,,,,1,n,1.2489,8.512335864,0,4.2511,1.5,,,,,,10.05300841,0,8.512335864,,,,,,,,,,,,,0,74,74,74,1,0.040729225,0,,,,,,,,,,,,,,,,,,,,,,,,,,,,,,,,,,,,,,,,,,,,,,,,,,,,,,,,,,,,,,,,,,,,,,,,,,,,,,,,
,,5d97f30dbe5c0c00154995fe,2022-09-08_14h03.34.639,CGTgamblingSpanTasks,2022.2.1,Win32,59.90534955,,,,,,,,3.2212,,,,,,,,,,,,,,2,n,0.7788,0,1,4.2212,1,,,,,,27.53810185,0,0.097022401,,,,,,,,,,,,,0,75,75,50,1,0.901515865,0,,,,,,,,,,,,,,,,,,,,,,,,,,,,,,,,,,,,,,,,,,,,,,,,,,,,,,,,,,,,,,,,,,,,,,,,,,,,,,,,
,,5d97f30dbe5c0c00154995fe,2022-09-08_14h03.34.639,CGTgamblingSpanTasks,2022.2.1,Win32,59.90534955,,,,,,,,3.364,,,,,,,,,,,,,,2,n,0.636,0,1,4.364,1,,,,,,27.93093084,0,0.050207531,,,,,,,,,,,,,0,76,76,83,1,0.920505936,0,,,,,,,,,,,,,,,,,,,,,,,,,,,,,,,,,,,,,,,,,,,,,,,,,,,,,,,,,,,,,,,,,,,,,,,,,,,,,,,,
,,5d97f30dbe5c0c00154995fe,2022-09-08_14h03.34.639,CGTgamblingSpanTasks,2022.2.1,Win32,59.90534955,,,,,,,,3.2338,,,,,,,,,,,,,,1,v,0.7662,0,1,4.7338,1.5,,,,,,25.54604005,0,0.088845411,,,,,,,,,,,,,0,77,77,79,1,0.901957831,0,,,,,,,,,,,,,,,,,,,,,,,,,,,,,,,,,,,,,,,,,,,,,,,,,,,,,,,,,,,,,,,,,,,,,,,,,,,,,,,,
,,5d97f30dbe5c0c00154995fe,2022-09-08_14h03.34.639,CGTgamblingSpanTasks,2022.2.1,Win32,59.90534955,,,,,,,,3.2076,,,,,,,,,,,,,,1,n,0.7924,7.50753835,0,4.2076,1,,,,,,2.231316635,0,7.50753835,,,,,,,,,,,,,0,78,78,29,1,0.010273427,0,,,,,,,,,,,,,,,,,,,,,,,,,,,,,,,,,,,,,,,,,,,,,,,,,,,,,,,,,,,,,,,,,,,,,,,,,,,,,,,,
,,5d97f30dbe5c0c00154995fe,2022-09-08_14h03.34.639,CGTgamblingSpanTasks,2022.2.1,Win32,59.90534955,,,,,,,,3.2882,,,,,,,,,,,,,,2,n,0.7118,22.86604061,1,4.7882,1.5,,,,,,22.86604061,0,2.293289792,,,,,,,,,,,,,0,79,79,51,1,0.49715382,1,,,,,,,,,,,,,,,,,,,,,,,,,,,,,,,,,,,,,,,,,,,,,,,,,,,,,,,,,,,,,,,,,,,,,,,,,,,,,,,,
,,5d97f30dbe5c0c00154995fe,2022-09-08_14h03.34.639,CGTgamblingSpanTasks,2022.2.1,Win32,59.90534955,,,,,,,,3.2481,,,,,,,,,,,,,,1,v,0.7519,0,1,4.7481,1.5,,,,,,27.2532142,0,0.08089327,,,,,,,,,,,,,0,80,80,119,1,0.907091845,0,,,,,,,,,,,,,,,,,,,,,,,,,,,,,,,,,,,,,,,,,,,,,,,,,,,,,,,,,,,,,,,,,,,,,,,,,,,,,,,,
,,5d97f30dbe5c0c00154995fe,2022-09-08_14h03.34.639,CGTgamblingSpanTasks,2022.2.1,Win32,59.90534955,,,,,,,,3.2706,,,,,,,,,,,,,,2,n,0.7294,22.62475578,1,4.2706,1,,,,,,22.62475578,0,2.397643354,,,,,,,,,,,,,0,81,81,93,1,0.482527609,1,,,,,,,,,,,,,,,,,,,,,,,,,,,,,,,,,,,,,,,,,,,,,,,,,,,,,,,,,,,,,,,,,,,,,,,,,,,,,,,,
,,5d97f30dbe5c0c00154995fe,2022-09-08_14h03.34.639,CGTgamblingSpanTasks,2022.2.1,Win32,59.90534955,,,,,,,,3.1796,,,,,,,,,,,,,,1,v,0.8204,19.36415485,1,4.6796,1.5,,,,,,19.36415485,0,1.966229494,,,,,,,,,,,,,0,82,82,96,1,0.493893111,1,,,,,,,,,,,,,,,,,,,,,,,,,,,,,,,,,,,,,,,,,,,,,,,,,,,,,,,,,,,,,,,,,,,,,,,,,,,,,,,,
,,5d97f30dbe5c0c00154995fe,2022-09-08_14h03.34.639,CGTgamblingSpanTasks,2022.2.1,Win32,59.90534955,,,,,,,,3.4679,,,,,,,,,,,,,,2,n,0.5321,0,1,4.4679,1,,,,,,27.38828234,0,0.0639233,,,,,,,,,,,,,0,83,83,43,1,0.914010176,0,,,,,,,,,,,,,,,,,,,,,,,,,,,,,,,,,,,,,,,,,,,,,,,,,,,,,,,,,,,,,,,,,,,,,,,,,,,,,,,,
,,5d97f30dbe5c0c00154995fe,2022-09-08_14h03.34.639,CGTgamblingSpanTasks,2022.2.1,Win32,59.90534955,,,,,,,,3.4061,,,,,,,,,,,,,,1,v,0.5939,26.16821818,1,4.9061,1.5,,,,,,26.16821818,0,0.093528069,,,,,,,,,,,,,0,84,84,42,1,0.901022427,0,,,,,,,,,,,,,,,,,,,,,,,,,,,,,,,,,,,,,,,,,,,,,,,,,,,,,,,,,,,,,,,,,,,,,,,,,,,,,,,,
,,5d97f30dbe5c0c00154995fe,2022-09-08_14h03.34.639,CGTgamblingSpanTasks,2022.2.1,Win32,59.90534955,,,,,,,,3.0724,,,,,,,,,,,,,,1,v,0.9276,11.08143071,1,4.0724,1,,,,,,11.08143071,0,1.207538756,,,,,,,,,,,,,0,85,85,84,1,0.475047453,1,,,,,,,,,,,,,,,,,,,,,,,,,,,,,,,,,,,,,,,,,,,,,,,,,,,,,,,,,,,,,,,,,,,,,,,,,,,,,,,,
,,5d97f30dbe5c0c00154995fe,2022-09-08_14h03.34.639,CGTgamblingSpanTasks,2022.2.1,Win32,59.90534955,,,,,,,,3.3855,,,,,,,,,,,,,,1,v,0.6145,26.36733703,1,4.8855,1.5,,,,,,26.36733703,0,2.201057101,,,,,,,,,,,,,0,86,86,90,1,0.544064207,1,,,,,,,,,,,,,,,,,,,,,,,,,,,,,,,,,,,,,,,,,,,,,,,,,,,,,,,,,,,,,,,,,,,,,,,,,,,,,,,,
,,5d97f30dbe5c0c00154995fe,2022-09-08_14h03.34.639,CGTgamblingSpanTasks,2022.2.1,Win32,59.90534955,,,,,,,,3.4046,,,,,,,,,,,,,,2,n,0.5954,27.37527992,1,4.4046,1,,,,,,27.37527992,0,2.860319095,,,,,,,,,,,,,0,87,87,39,1,0.486304156,1,,,,,,,,,,,,,,,,,,,,,,,,,,,,,,,,,,,,,,,,,,,,,,,,,,,,,,,,,,,,,,,,,,,,,,,,,,,,,,,,
,,5d97f30dbe5c0c00154995fe,2022-09-08_14h03.34.639,CGTgamblingSpanTasks,2022.2.1,Win32,59.90534955,,,,,,,,3.2295,,,,,,,,,,,,,,1,v,0.7705,0,1,4.7295,1.5,,,,,,18.51345298,0,1.932334278,,,,,,,,,,,,,0,88,88,31,1,0.48658696,1,,,,,,,,,,,,,,,,,,,,,,,,,,,,,,,,,,,,,,,,,,,,,,,,,,,,,,,,,,,,,,,,,,,,,,,,,,,,,,,,
,,5d97f30dbe5c0c00154995fe,2022-09-08_14h03.34.639,CGTgamblingSpanTasks,2022.2.1,Win32,59.90534955,,,,,,,,3.1347,,,,,,,,,,,,,,2,n,0.8653,20.31034258,1,4.1347,1,,,,,,20.31034258,0,1.870404296,,,,,,,,,,,,,0,89,89,85,1,0.519325853,1,,,,,,,,,,,,,,,,,,,,,,,,,,,,,,,,,,,,,,,,,,,,,,,,,,,,,,,,,,,,,,,,,,,,,,,,,,,,,,,,
,,5d97f30dbe5c0c00154995fe,2022-09-08_14h03.34.639,CGTgamblingSpanTasks,2022.2.1,Win32,59.90534955,,,,,,,,3.1681,,,,,,,,,,,,,,2,n,0.8319,24.479109,1,4.6681,1.5,,,,,,24.479109,0,0.089582697,,,,,,,,,,,,,0,90,90,89,1,0.900200232,0,,,,,,,,,,,,,,,,,,,,,,,,,,,,,,,,,,,,,,,,,,,,,,,,,,,,,,,,,,,,,,,,,,,,,,,,,,,,,,,,
,,5d97f30dbe5c0c00154995fe,2022-09-08_14h03.34.639,CGTgamblingSpanTasks,2022.2.1,Win32,59.90534955,,,,,,,,3.2882,,,,,,,,,,,,,,1,v,0.7118,14.3363647,1,4.2882,1,,,,,,14.3363647,0,1.396635362,,,,,,,,,,,,,0,91,91,78,1,0.504775474,1,,,,,,,,,,,,,,,,,,,,,,,,,,,,,,,,,,,,,,,,,,,,,,,,,,,,,,,,,,,,,,,,,,,,,,,,,,,,,,,,
,,5d97f30dbe5c0c00154995fe,2022-09-08_14h03.34.639,CGTgamblingSpanTasks,2022.2.1,Win32,59.90534955,,,,,,,,3.365,,,,,,,,,,,,,,2,n,0.635,0,1,4.865,1.5,,,,,,27.12325385,0,0.080932047,,,,,,,,,,,,,0,92,92,14,1,0.906929184,0,,,,,,,,,,,,,,,,,,,,,,,,,,,,,,,,,,,,,,,,,,,,,,,,,,,,,,,,,,,,,,,,,,,,,,,,,,,,,,,,
,,5d97f30dbe5c0c00154995fe,2022-09-08_14h03.34.639,CGTgamblingSpanTasks,2022.2.1,Win32,59.90534955,,,,,,,,3.1868,,,,,,,,,,,,,,2,v,0.8132,10.41201161,0,4.1868,1,,,,,,6.307062696,0,10.41201161,,,,,,,,,,,,,0,93,93,23,1,0.018187109,0,,,,,,,,,,,,,,,,,,,,,,,,,,,,,,,,,,,,,,,,,,,,,,,,,,,,,,,,,,,,,,,,,,,,,,,,,,,,,,,,
,,5d97f30dbe5c0c00154995fe,2022-09-08_14h03.34.639,CGTgamblingSpanTasks,2022.2.1,Win32,59.90534955,,,,,,,,3.1199,,,,,,,,,,,,,,2,n,0.8801,27.57491653,1,4.6199,1.5,,,,,,27.57491653,0,2.99133314,,,,,,,,,,,,,0,94,94,10,1,0.47625893,1,,,,,,,,,,,,,,,,,,,,,,,,,,,,,,,,,,,,,,,,,,,,,,,,,,,,,,,,,,,,,,,,,,,,,,,,,,,,,,,,
,,5d97f30dbe5c0c00154995fe,2022-09-08_14h03.34.639,CGTgamblingSpanTasks,2022.2.1,Win32,59.90534955,,,,,,,,3.4057,,,,,,,,,,,,,,2,n,0.5943,0,1,4.4057,1,,,,,,18.50662664,0,0.052546026,,,,,,,,,,,,,0,95,95,112,1,0.908444837,0,,,,,,,,,,,,,,,,,,,,,,,,,,,,,,,,,,,,,,,,,,,,,,,,,,,,,,,,,,,,,,,,,,,,,,,,,,,,,,,,
,,5d97f30dbe5c0c00154995fe,2022-09-08_14h03.34.639,CGTgamblingSpanTasks,2022.2.1,Win32,59.90534955,,,,,,,,2.9807,,,,,,,,,,,,,,1,v,1.0193,0,1,3.9807,1,,,,,,8.670591867,0,1.025847652,,,,,,,,,,,,,0,96,96,18,1,0.452680459,1,,,,,,,,,,,,,,,,,,,,,,,,,,,,,,,,,,,,,,,,,,,,,,,,,,,,,,,,,,,,,,,,,,,,,,,,,,,,,,,,
,,5d97f30dbe5c0c00154995fe,2022-09-08_14h03.34.639,CGTgamblingSpanTasks,2022.2.1,Win32,59.90534955,,,,,,,,3.0787,,,,,,,,,,,,,,1,v,0.9213,25.76582409,1,4.5787,1.5,,,,,,25.76582409,0,2.393193076,,,,,,,,,,,,,0,97,97,46,1,0.517129855,1,,,,,,,,,,,,,,,,,,,,,,,,,,,,,,,,,,,,,,,,,,,,,,,,,,,,,,,,,,,,,,,,,,,,,,,,,,,,,,,,
,,5d97f30dbe5c0c00154995fe,2022-09-08_14h03.34.639,CGTgamblingSpanTasks,2022.2.1,Win32,59.90534955,,,,,,,,3.1872,,,,,,,,,,,,,,1,v,0.8128,23.0613391,1,4.6872,1.5,,,,,,23.0613391,0,2.387726776,,,,,,,,,,,,,0,98,98,69,1,0.488727763,1,,,,,,,,,,,,,,,,,,,,,,,,,,,,,,,,,,,,,,,,,,,,,,,,,,,,,,,,,,,,,,,,,,,,,,,,,,,,,,,,
,,5d97f30dbe5c0c00154995fe,2022-09-08_14h03.34.639,CGTgamblingSpanTasks,2022.2.1,Win32,59.90534955,,,,,,,,3.2631,,,,,,,,,,,,,,1,v,0.7369,21.00799273,1,4.7631,1.5,,,,,,21.00799273,0,0.067969053,,,,,,,,,,,,,0,99,99,92,1,0.904360262,0,,,,,,,,,,,,,,,,,,,,,,,,,,,,,,,,,,,,,,,,,,,,,,,,,,,,,,,,,,,,,,,,,,,,,,,,,,,,,,,,
,,5d97f30dbe5c0c00154995fe,2022-09-08_14h03.34.639,CGTgamblingSpanTasks,2022.2.1,Win32,59.90534955,,,,,,,,3.2068,,,,,,,,,,,,,,2,n,0.7932,0,1,4.7068,1.5,,,,,,17.30137174,0,1.716380842,,,,,,,,,,,,,0,100,100,20,1,0.500020285,1,,,,,,,,,,,,,,,,,,,,,,,,,,,,,,,,,,,,,,,,,,,,,,,,,,,,,,,,,,,,,,,,,,,,,,,,,,,,,,,,
,,5d97f30dbe5c0c00154995fe,2022-09-08_14h03.34.639,CGTgamblingSpanTasks,2022.2.1,Win32,59.90534955,,,,,,,,3.2437,,,,,,,,,,,,,,2,n,0.7563,13.96521039,1,4.7437,1.5,,,,,,13.96521039,0,1.591282699,,,,,,,,,,,,,0,101,101,49,1,0.462956344,1,,,,,,,,,,,,,,,,,,,,,,,,,,,,,,,,,,,,,,,,,,,,,,,,,,,,,,,,,,,,,,,,,,,,,,,,,,,,,,,,
,,5d97f30dbe5c0c00154995fe,2022-09-08_14h03.34.639,CGTgamblingSpanTasks,2022.2.1,Win32,59.90534955,,,,,,,,3.113,,,,,,,,,,,,,,2,n,0.887,0,1,4.613,1.5,,,,,,21.2188881,0,2.067660742,,,,,,,,,,,,,0,102,102,107,1,0.50470775,1,,,,,,,,,,,,,,,,,,,,,,,,,,,,,,,,,,,,,,,,,,,,,,,,,,,,,,,,,,,,,,,,,,,,,,,,,,,,,,,,
,,5d97f30dbe5c0c00154995fe,2022-09-08_14h03.34.639,CGTgamblingSpanTasks,2022.2.1,Win32,59.90534955,,,,,,,,3.2844,,,,,,,,,,,,,,2,n,0.7156,0,1,4.2844,1,,,,,,27.88092897,0,2.771762788,,,,,,,,,,,,,0,103,103,117,1,0.499466648,1,,,,,,,,,,,,,,,,,,,,,,,,,,,,,,,,,,,,,,,,,,,,,,,,,,,,,,,,,,,,,,,,,,,,,,,,,,,,,,,,
,,5d97f30dbe5c0c00154995fe,2022-09-08_14h03.34.639,CGTgamblingSpanTasks,2022.2.1,Win32,59.90534955,,,,,,,,3.1374,,,,,,,,,,,,,,1,v,0.8626,21.7711579,1,4.6374,1.5,,,,,,21.7711579,0,2.502728921,,,,,,,,,,,,,0,104,104,101,1,0.460552621,1,,,,,,,,,,,,,,,,,,,,,,,,,,,,,,,,,,,,,,,,,,,,,,,,,,,,,,,,,,,,,,,,,,,,,,,,,,,,,,,,
,,5d97f30dbe5c0c00154995fe,2022-09-08_14h03.34.639,CGTgamblingSpanTasks,2022.2.1,Win32,59.90534955,,,,,,,,3.1533,,,,,,,,,,,,,,1,v,0.8467,0,1,4.1533,1,,,,,,15.87668502,0,8.42547829,,,,,,,,,,,,,0,105,105,56,1,0.092099462,0,,,,,,,,,,,,,,,,,,,,,,,,,,,,,,,,,,,,,,,,,,,,,,,,,,,,,,,,,,,,,,,,,,,,,,,,,,,,,,,,
,,5d97f30dbe5c0c00154995fe,2022-09-08_14h03.34.639,CGTgamblingSpanTasks,2022.2.1,Win32,59.90534955,,,,,,,,3.1164,,,,,,,,,,,,,,1,v,0.8836,0,1,4.6164,1.5,,,,,,22.87092517,0,0.059276504,,,,,,,,,,,,,0,106,106,27,1,0.911114935,0,,,,,,,,,,,,,,,,,,,,,,,,,,,,,,,,,,,,,,,,,,,,,,,,,,,,,,,,,,,,,,,,,,,,,,,,,,,,,,,,
,,5d97f30dbe5c0c00154995fe,2022-09-08_14h03.34.639,CGTgamblingSpanTasks,2022.2.1,Win32,59.90534955,,,,,,,,3.1213,,,,,,,,,,,,,,1,v,0.8787,0,1,4.6213,1.5,,,,,,21.16780451,0,2.469465385,,,,,,,,,,,,,0,107,107,32,1,0.456531699,1,,,,,,,,,,,,,,,,,,,,,,,,,,,,,,,,,,,,,,,,,,,,,,,,,,,,,,,,,,,,,,,,,,,,,,,,,,,,,,,,
,,5d97f30dbe5c0c00154995fe,2022-09-08_14h03.34.639,CGTgamblingSpanTasks,2022.2.1,Win32,59.90534955,,,,,,,,3.1518,,,,,,,,,,,,,,1,v,0.8482,0,1,4.6518,1.5,,,,,,17.23907308,0,2.055848574,,,,,,,,,,,,,0,108,108,66,1,0.450504458,1,,,,,,,,,,,,,,,,,,,,,,,,,,,,,,,,,,,,,,,,,,,,,,,,,,,,,,,,,,,,,,,,,,,,,,,,,,,,,,,,
,,5d97f30dbe5c0c00154995fe,2022-09-08_14h03.34.639,CGTgamblingSpanTasks,2022.2.1,Win32,59.90534955,,,,,,,,3.3565,,,,,,,,,,,,,,2,n,0.6435,21.17800335,1,4.8565,1.5,,,,,,21.17800335,0,0.059830985,,,,,,,,,,,,,0,109,109,67,1,0.908594974,0,,,,,,,,,,,,,,,,,,,,,,,,,,,,,,,,,,,,,,,,,,,,,,,,,,,,,,,,,,,,,,,,,,,,,,,,,,,,,,,,
,,5d97f30dbe5c0c00154995fe,2022-09-08_14h03.34.639,CGTgamblingSpanTasks,2022.2.1,Win32,59.90534955,,,,,,,,3.4453,,,,,,,,,,,,,,2,n,0.5547,0,1,4.4453,1,,,,,,22.72923833,0,0.067170781,,,,,,,,,,,,,0,110,110,86,1,0.907226703,0,,,,,,,,,,,,,,,,,,,,,,,,,,,,,,,,,,,,,,,,,,,,,,,,,,,,,,,,,,,,,,,,,,,,,,,,,,,,,,,,
,,5d97f30dbe5c0c00154995fe,2022-09-08_14h03.34.639,CGTgamblingSpanTasks,2022.2.1,Win32,59.90534955,,,,,,,,3.3862,,,,,,,,,,,,,,1,v,0.6138,23.59556381,1,4.8862,1.5,,,,,,23.59556381,0,2.464662219,,,,,,,,,,,,,0,111,111,22,1,0.486383205,1,,,,,,,,,,,,,,,,,,,,,,,,,,,,,,,,,,,,,,,,,,,,,,,,,,,,,,,,,,,,,,,,,,,,,,,,,,,,,,,,
,,5d97f30dbe5c0c00154995fe,2022-09-08_14h03.34.639,CGTgamblingSpanTasks,2022.2.1,Win32,59.90534955,,,,,,,,3.1687,,,,,,,,,,,,,,1,v,0.8313,17.92584289,1,4.6687,1.5,,,,,,17.92584289,0,1.878232496,,,,,,,,,,,,,0,112,112,5,1,0.485559263,1,,,,,,,,,,,,,,,,,,,,,,,,,,,,,,,,,,,,,,,,,,,,,,,,,,,,,,,,,,,,,,,,,,,,,,,,,,,,,,,,
,,5d97f30dbe5c0c00154995fe,2022-09-08_14h03.34.639,CGTgamblingSpanTasks,2022.2.1,Win32,59.90534955,,,,,,,,2.9631,,,,,,,,,,,,,,2,v,1.0369,4.251676631,0,3.9631,1,,,,,,3.395192929,0,4.251676631,,,,,,,,,,,,,0,113,113,7,1,0.023467153,0,,,,,,,,,,,,,,,,,,,,,,,,,,,,,,,,,,,,,,,,,,,,,,,,,,,,,,,,,,,,,,,,,,,,,,,,,,,,,,,,
,,5d97f30dbe5c0c00154995fe,2022-09-08_14h03.34.639,CGTgamblingSpanTasks,2022.2.1,Win32,59.90534955,,,,,,,,2.8721,,,,,,,,,,,,,,2,v,1.1279,11.93550497,0,4.3721,1.5,,,,,,14.20587264,0,11.93550497,,,,,,,,,,,,,0,114,114,21,1,0.041340301,0,,,,,,,,,,,,,,,,,,,,,,,,,,,,,,,,,,,,,,,,,,,,,,,,,,,,,,,,,,,,,,,,,,,,,,,,,,,,,,,,
,,5d97f30dbe5c0c00154995fe,2022-09-08_14h03.34.639,CGTgamblingSpanTasks,2022.2.1,Win32,59.90534955,,,,,,,,3.2369,,,,,,,,,,,,,,1,n,0.7631,3.877530383,0,4.2369,1,,,,,,3.471484939,0,3.877530383,,,,,,,,,,,,,0,115,115,40,1,0.02623078,0,,,,,,,,,,,,,,,,,,,,,,,,,,,,,,,,,,,,,,,,,,,,,,,,,,,,,,,,,,,,,,,,,,,,,,,,,,,,,,,,
,,5d97f30dbe5c0c00154995fe,2022-09-08_14h03.34.639,CGTgamblingSpanTasks,2022.2.1,Win32,59.90534955,,,,,,,,3.1337,,,,,,,,,,,,,,2,v,0.8663,4.904872644,0,4.1337,1,,,,,,4.698775357,0,4.904872644,,,,,,,,,,,,,0,116,116,75,1,0.028064484,0,,,,,,,,,,,,,,,,,,,,,,,,,,,,,,,,,,,,,,,,,,,,,,,,,,,,,,,,,,,,,,,,,,,,,,,,,,,,,,,,
,,5d97f30dbe5c0c00154995fe,2022-09-08_14h03.34.639,CGTgamblingSpanTasks,2022.2.1,Win32,59.90534955,,,,,,,,2.936,,,,,,,,,,,,,,2,n,1.064,29.75778644,1,3.936,1,,,,,,29.75778644,0,2.810531415,,,,,,,,,,,,,0,117,117,113,1,0.512824233,1,,,,,,,,,,,,,,,,,,,,,,,,,,,,,,,,,,,,,,,,,,,,,,,,,,,,,,,,,,,,,,,,,,,,,,,,,,,,,,,,
,,5d97f30dbe5c0c00154995fe,2022-09-08_14h03.34.639,CGTgamblingSpanTasks,2022.2.1,Win32,59.90534955,,,,,,,,3.1862,,,,,,,,,,,,,,2,n,0.8138,0,1,4.6862,1.5,,,,,,18.20422443,0,1.635040165,,,,,,,,,,,,,0,118,118,82,1,0.525708991,1,,,,,,,,,,,,,,,,,,,,,,,,,,,,,,,,,,,,,,,,,,,,,,,,,,,,,,,,,,,,,,,,,,,,,,,,,,,,,,,,
,,5d97f30dbe5c0c00154995fe,2022-09-08_14h03.34.639,CGTgamblingSpanTasks,2022.2.1,Win32,59.90534955,,,,,,,,2.804,,,,,,,,,,,,,,2,v,1.196,11.41737518,0,4.304,1.5,,,,,,18.11029021,0,11.41737518,,,,,,,,,,,,,0,119,119,48,1,0.069445859,0,,,,,,,,,,,,,,,,,,,,,,,,,,,,,,,,,,,,,,,,,,,,,,,,,,,,,,,,,,,,,,,,,,,,,,,,,,,,,,,,
,,5d97f30dbe5c0c00154995fe,2022-09-08_14h03.34.639,CGTgamblingSpanTasks,2022.2.1,Win32,59.90534955,,,,,,,,,,,,,,,,,,,,,,,,,,,,,,,,,,,,,,,,,,,,,,,,,,,,,,,,return,56.8495,,,,,,,,,,,,,,,,,,,,,,,,,,,,,,,,,,,,,,,,,,,,,,,,,,,,,,,,,,,,,,,,,,,,,,,,,,,,,,
,,5d97f30dbe5c0c00154995fe,2022-09-08_14h03.34.639,CGTgamblingSpanTasks,2022.2.1,Win32,59.90534955,,,,,,,,,,,,,,,,,,,,,,,,,,,,,,,,,,,,,,,,,,,,,,,,,,,,,,,,,,return,11.0952,,,,,,,,,,,,,,,,,,,,,,,,,,,,,,,,,,,,,,,,,,,,,,,,,,,,,,,,,,,,,,,,,,,,,,,,,,,,
,,5d97f30dbe5c0c00154995fe,2022-09-08_14h03.34.639,CGTgamblingSpanTasks,2022.2.1,Win32,59.90534955,,,,,,,,,,,,,,,,,,,,,,,,,,,,,,,,,,,,,,,,,,,,,,,,,,,,,,,,,,,,return,18.8398,,,,,,,,,,,,,,,,,,,,,,,,,,,,,,,,,,,,,,,,,,,,,,,,,,,,,,,,,,,,,,,,,,,,,,,,,,
,,5d97f30dbe5c0c00154995fe,2022-09-08_14h03.34.639,CGTgamblingSpanTasks,2022.2.1,Win32,59.90534955,,,,,,,,,,,,,,,,,,,,,,,,,,,,,,,,,,,,,,,,,,,,,,,,,,,,,,,,,,,,,,42,0,0.001851852,-0.424074074,1,0,0,cont_buttonPractice,0,0,0,0,1,3,342,24,2,42,,,,,,,,,,,,,,,,,,,,,,,,,,,,,,,,,,,,,,,,,,,,,,,,,,,,,,,,
,,5d97f30dbe5c0c00154995fe,2022-09-08_14h03.34.639,CGTgamblingSpanTasks,2022.2.1,Win32,59.90534955,,,,,,,,,,,,,,,,,,,,,,,,,,,,,,,,,,,,,,,,,,,,,,,,,,,,,,,,,,,,,,937,1,-0.003703704,-0.412037037,1,0,0,cont_buttonPractice,0,1,1,1,1,3,937,73,2,37,,,,,,,,,,,,,,,,,,,,,,,,,,,,,,,,,,,,,,,,,,,,,,,,,,,,,,,,
,,5d97f30dbe5c0c00154995fe,2022-09-08_14h03.34.639,CGTgamblingSpanTasks,2022.2.1,Win32,59.90534955,,,,,,,,,,,,,,,,,,,,,,,,,,,,,,,,,,,,,,,,,,,,,,,,,,,,,,,,,,,,,,,,,,,,,,,,,,,,,,,,return,4.9117,,,,,,,,,,,,,,,,,,,,,,,,,,,,,,,,,,,,,,,,,,,,,,,,,,,,,,
,,5d97f30dbe5c0c00154995fe,2022-09-08_14h03.34.639,CGTgamblingSpanTasks,2022.2.1,Win32,59.90534955,,,,,,,,,,,,,,,,,,,,,,,,,,,,,,,,,,,,,,,,,,,,,,,,,,,,,,,,,,,,,,,,,,,,,,,,,,,,,,,,,,"[1,4,7]",0,0,0,0,1,,,,,,,,,,,,,,,,,,,,,,,,,,,,,,,,,,,,,,,,,,,,,,,,
,,5d97f30dbe5c0c00154995fe,2022-09-08_14h03.34.639,CGTgamblingSpanTasks,2022.2.1,Win32,59.90534955,,,,,,,,,,,,,,,,,,,,,,,,,,,,,,,,,,,,,,,,,,,,,,,,,,,,,,,,,,,,,,,,,,,,,,,,,,,,,,,,,,"[1,4,7]",1,0,1,0,1,,,,,,,,,,,,,,,,,,,,,,,,,,,,,,,,,,,,,,,,,,,,,,,,
,,5d97f30dbe5c0c00154995fe,2022-09-08_14h03.34.639,CGTgamblingSpanTasks,2022.2.1,Win32,59.90534955,,,,,,,,,,,,,,,,,,,,,,,,,,,,,,,,,,,,,,,,,,,,,,,,,,,,,,,,,,,,,,,,,,,,,,,,,,,,,,,,,,"[1,4,7]",2,0,2,0,1,,,,,,,,,,,,,,,,,,,,,,,,,,,,,,,,,,,,,,,,,,,,,,,,
,,5d97f30dbe5c0c00154995fe,2022-09-08_14h03.34.639,CGTgamblingSpanTasks,2022.2.1,Win32,59.90534955,,,,,,,,,,,,,,,,,,,,,,,,,,,,,,,,,,,,,,,,,,,,,,,,,,,,,,,,,,,,,,,1,,,,,,,,,,,,,,,,,,,,,,,,,147,-0.022222222,-0.387962963,1,0,0,cont_button,0,0,0,0,1,1,,,,,,,,,,,,,,,,,,,,,,,,,,,,,,,,,,,
,,5d97f30dbe5c0c00154995fe,2022-09-08_14h03.34.639,CGTgamblingSpanTasks,2022.2.1,Win32,59.90534955,,,,,,,,,,,,,,,,,,,,,,,,,,,,,,,,,,,,,,,,,,,,,,,,,,,,,,,,,,,,,,,,,,,,,,,,,,,,,,,,,,"[6,3,4,9]",0,0,0,0,1,,,,,,,,,,,,,,,,,,,,,,,,,,,,,,,,,,,,,,,,,,,,,,,,
,,5d97f30dbe5c0c00154995fe,2022-09-08_14h03.34.639,CGTgamblingSpanTasks,2022.2.1,Win32,59.90534955,,,,,,,,,,,,,,,,,,,,,,,,,,,,,,,,,,,,,,,,,,,,,,,,,,,,,,,,,,,,,,,,,,,,,,,,,,,,,,,,,,"[6,3,4,9]",1,0,1,0,1,,,,,,,,,,,,,,,,,,,,,,,,,,,,,,,,,,,,,,,,,,,,,,,,
,,5d97f30dbe5c0c00154995fe,2022-09-08_14h03.34.639,CGTgamblingSpanTasks,2022.2.1,Win32,59.90534955,,,,,,,,,,,,,,,,,,,,,,,,,,,,,,,,,,,,,,,,,,,,,,,,,,,,,,,,,,,,,,,,,,,,,,,,,,,,,,,,,,"[6,3,4,9]",2,0,2,0,1,,,,,,,,,,,,,,,,,,,,,,,,,,,,,,,,,,,,,,,,,,,,,,,,
,,5d97f30dbe5c0c00154995fe,2022-09-08_14h03.34.639,CGTgamblingSpanTasks,2022.2.1,Win32,59.90534955,,,,,,,,,,,,,,,,,,,,,,,,,,,,,,,,,,,,,,,,,,,,,,,,,,,,,,,,,,,,,,,,,,,,,,,,,,,,,,,,,,"[6,3,4,9]",3,0,3,0,1,,,,,,,,,,,,,,,,,,,,,,,,,,,,,,,,,,,,,,,,,,,,,,,,
,,5d97f30dbe5c0c00154995fe,2022-09-08_14h03.34.639,CGTgamblingSpanTasks,2022.2.1,Win32,59.90534955,,,,,,,,,,,,,,,,,,,,,,,,,,,,,,,,,,,,,,,,,,,,,,,,,,,,,,,,,,,,,,,1,,,,,,,,,,,,,,,,,,,,,,,,,6349,0.012037037,-0.405555556,1,0,0,cont_button,0,1,1,1,1,2,,,,,,,,,,,,,,,,,,,,,,,,,,,,,,,,,,,
,,5d97f30dbe5c0c00154995fe,2022-09-08_14h03.34.639,CGTgamblingSpanTasks,2022.2.1,Win32,59.90534955,,,,,,,,,,,,,,,,,,,,,,,,,,,,,,,,,,,,,,,,,,,,,,,,,,,,,,,,,,,,,,,,,,,,,,,,,,,,,,,,,,"[8,5,3,6,7]",0,0,0,0,1,,,,,,,,,,,,,,,,,,,,,,,,,,,,,,,,,,,,,,,,,,,,,,,,
,,5d97f30dbe5c0c00154995fe,2022-09-08_14h03.34.639,CGTgamblingSpanTasks,2022.2.1,Win32,59.90534955,,,,,,,,,,,,,,,,,,,,,,,,,,,,,,,,,,,,,,,,,,,,,,,,,,,,,,,,,,,,,,,,,,,,,,,,,,,,,,,,,,"[8,5,3,6,7]",1,0,1,0,1,,,,,,,,,,,,,,,,,,,,,,,,,,,,,,,,,,,,,,,,,,,,,,,,
,,5d97f30dbe5c0c00154995fe,2022-09-08_14h03.34.639,CGTgamblingSpanTasks,2022.2.1,Win32,59.90534955,,,,,,,,,,,,,,,,,,,,,,,,,,,,,,,,,,,,,,,,,,,,,,,,,,,,,,,,,,,,,,,,,,,,,,,,,,,,,,,,,,"[8,5,3,6,7]",2,0,2,0,1,,,,,,,,,,,,,,,,,,,,,,,,,,,,,,,,,,,,,,,,,,,,,,,,
,,5d97f30dbe5c0c00154995fe,2022-09-08_14h03.34.639,CGTgamblingSpanTasks,2022.2.1,Win32,59.90534955,,,,,,,,,,,,,,,,,,,,,,,,,,,,,,,,,,,,,,,,,,,,,,,,,,,,,,,,,,,,,,,,,,,,,,,,,,,,,,,,,,"[8,5,3,6,7]",3,0,3,0,1,,,,,,,,,,,,,,,,,,,,,,,,,,,,,,,,,,,,,,,,,,,,,,,,
,,5d97f30dbe5c0c00154995fe,2022-09-08_14h03.34.639,CGTgamblingSpanTasks,2022.2.1,Win32,59.90534955,,,,,,,,,,,,,,,,,,,,,,,,,,,,,,,,,,,,,,,,,,,,,,,,,,,,,,,,,,,,,,,,,,,,,,,,,,,,,,,,,,"[8,5,3,6,7]",4,0,4,0,1,,,,,,,,,,,,,,,,,,,,,,,,,,,,,,,,,,,,,,,,,,,,,,,,
,,5d97f30dbe5c0c00154995fe,2022-09-08_14h03.34.639,CGTgamblingSpanTasks,2022.2.1,Win32,59.90534955,,,,,,,,,,,,,,,,,,,,,,,,,,,,,,,,,,,,,,,,,,,,,,,,,,,,,,,,,,,,,,,0,,,,,,,,,,,,,,,,,,,,,,,,,83567,0.019444444,-0.407407407,1,0,0,cont_button,0,2,2,2,1,3,,,,,,,,,,,,,,,,,,,,,,,,,,,,,,,,,,,
,,5d97f30dbe5c0c00154995fe,2022-09-08_14h03.34.639,CGTgamblingSpanTasks,2022.2.1,Win32,59.90534955,,,,,,,,,,,,,,,,,,,,,,,,,,,,,,,,,,,,,,,,,,,,,,,,,,,,,,,,,,,,,,,,,,,,,,,,,,,,,,,,,,"[9,4,6,3,2]",0,0,0,0,1,,,,,,,,,,,,,,,,,,,,,,,,,,,,,,,,,,,,,,,,,,,,,,,,
,,5d97f30dbe5c0c00154995fe,2022-09-08_14h03.34.639,CGTgamblingSpanTasks,2022.2.1,Win32,59.90534955,,,,,,,,,,,,,,,,,,,,,,,,,,,,,,,,,,,,,,,,,,,,,,,,,,,,,,,,,,,,,,,,,,,,,,,,,,,,,,,,,,"[9,4,6,3,2]",1,0,1,0,1,,,,,,,,,,,,,,,,,,,,,,,,,,,,,,,,,,,,,,,,,,,,,,,,
,,5d97f30dbe5c0c00154995fe,2022-09-08_14h03.34.639,CGTgamblingSpanTasks,2022.2.1,Win32,59.90534955,,,,,,,,,,,,,,,,,,,,,,,,,,,,,,,,,,,,,,,,,,,,,,,,,,,,,,,,,,,,,,,,,,,,,,,,,,,,,,,,,,"[9,4,6,3,2]",2,0,2,0,1,,,,,,,,,,,,,,,,,,,,,,,,,,,,,,,,,,,,,,,,,,,,,,,,
,,5d97f30dbe5c0c00154995fe,2022-09-08_14h03.34.639,CGTgamblingSpanTasks,2022.2.1,Win32,59.90534955,,,,,,,,,,,,,,,,,,,,,,,,,,,,,,,,,,,,,,,,,,,,,,,,,,,,,,,,,,,,,,,,,,,,,,,,,,,,,,,,,,"[9,4,6,3,2]",3,0,3,0,1,,,,,,,,,,,,,,,,,,,,,,,,,,,,,,,,,,,,,,,,,,,,,,,,
,,5d97f30dbe5c0c00154995fe,2022-09-08_14h03.34.639,CGTgamblingSpanTasks,2022.2.1,Win32,59.90534955,,,,,,,,,,,,,,,,,,,,,,,,,,,,,,,,,,,,,,,,,,,,,,,,,,,,,,,,,,,,,,,,,,,,,,,,,,,,,,,,,,"[9,4,6,3,2]",4,0,4,0,1,,,,,,,,,,,,,,,,,,,,,,,,,,,,,,,,,,,,,,,,,,,,,,,,
,,5d97f30dbe5c0c00154995fe,2022-09-08_14h03.34.639,CGTgamblingSpanTasks,2022.2.1,Win32,59.90534955,,,,,,,,,,,,,,,,,,,,,,,,,,,,,,,,,,,,,,,,,,,,,,,,,,,,,,,,,,,,,,,1,,,,,,,,,,,,,,,,,,,,,,,,,94632,-0.025,-0.40462963,1,0,0,cont_button,0,3,3,3,1,4,,,,,,,,,,,,,,,,,,,,,,,,,,,,,,,,,,,
,,5d97f30dbe5c0c00154995fe,2022-09-08_14h03.34.639,CGTgamblingSpanTasks,2022.2.1,Win32,59.90534955,,,,,,,,,,,,,,,,,,,,,,,,,,,,,,,,,,,,,,,,,,,,,,,,,,,,,,,,,,,,,,,,,,,,,,,,,,,,,,,,,,"[9,3,5,4,2,1]",0,0,0,0,1,,,,,,,,,,,,,,,,,,,,,,,,,,,,,,,,,,,,,,,,,,,,,,,,
,,5d97f30dbe5c0c00154995fe,2022-09-08_14h03.34.639,CGTgamblingSpanTasks,2022.2.1,Win32,59.90534955,,,,,,,,,,,,,,,,,,,,,,,,,,,,,,,,,,,,,,,,,,,,,,,,,,,,,,,,,,,,,,,,,,,,,,,,,,,,,,,,,,"[9,3,5,4,2,1]",1,0,1,0,1,,,,,,,,,,,,,,,,,,,,,,,,,,,,,,,,,,,,,,,,,,,,,,,,
,,5d97f30dbe5c0c00154995fe,2022-09-08_14h03.34.639,CGTgamblingSpanTasks,2022.2.1,Win32,59.90534955,,,,,,,,,,,,,,,,,,,,,,,,,,,,,,,,,,,,,,,,,,,,,,,,,,,,,,,,,,,,,,,,,,,,,,,,,,,,,,,,,,"[9,3,5,4,2,1]",2,0,2,0,1,,,,,,,,,,,,,,,,,,,,,,,,,,,,,,,,,,,,,,,,,,,,,,,,
,,5d97f30dbe5c0c00154995fe,2022-09-08_14h03.34.639,CGTgamblingSpanTasks,2022.2.1,Win32,59.90534955,,,,,,,,,,,,,,,,,,,,,,,,,,,,,,,,,,,,,,,,,,,,,,,,,,,,,,,,,,,,,,,,,,,,,,,,,,,,,,,,,,"[9,3,5,4,2,1]",3,0,3,0,1,,,,,,,,,,,,,,,,,,,,,,,,,,,,,,,,,,,,,,,,,,,,,,,,
,,5d97f30dbe5c0c00154995fe,2022-09-08_14h03.34.639,CGTgamblingSpanTasks,2022.2.1,Win32,59.90534955,,,,,,,,,,,,,,,,,,,,,,,,,,,,,,,,,,,,,,,,,,,,,,,,,,,,,,,,,,,,,,,,,,,,,,,,,,,,,,,,,,"[9,3,5,4,2,1]",4,0,4,0,1,,,,,,,,,,,,,,,,,,,,,,,,,,,,,,,,,,,,,,,,,,,,,,,,
,,5d97f30dbe5c0c00154995fe,2022-09-08_14h03.34.639,CGTgamblingSpanTasks,2022.2.1,Win32,59.90534955,,,,,,,,,,,,,,,,,,,,,,,,,,,,,,,,,,,,,,,,,,,,,,,,,,,,,,,,,,,,,,,,,,,,,,,,,,,,,,,,,,"[9,3,5,4,2,1]",5,0,5,0,1,,,,,,,,,,,,,,,,,,,,,,,,,,,,,,,,,,,,,,,,,,,,,,,,
,,5d97f30dbe5c0c00154995fe,2022-09-08_14h03.34.639,CGTgamblingSpanTasks,2022.2.1,Win32,59.90534955,,,,,,,,,,,,,,,,,,,,,,,,,,,,,,,,,,,,,,,,,,,,,,,,,,,,,,,,,,,,,,,1,,,,,,,,,,,,,,,,,,,,,,,,,935421,-0.019444444,-0.406481481,1,0,0,cont_button,0,4,4,4,1,5,,,,,,,,,,,,,,,,,,,,,,,,,,,,,,,,,,,
,,5d97f30dbe5c0c00154995fe,2022-09-08_14h03.34.639,CGTgamblingSpanTasks,2022.2.1,Win32,59.90534955,,,,,,,,,,,,,,,,,,,,,,,,,,,,,,,,,,,,,,,,,,,,,,,,,,,,,,,,,,,,,,,,,,,,,,,,,,,,,,,,,,"[8,7,2,4,6,3,1]",0,0,0,0,1,,,,,,,,,,,,,,,,,,,,,,,,,,,,,,,,,,,,,,,,,,,,,,,,
,,5d97f30dbe5c0c00154995fe,2022-09-08_14h03.34.639,CGTgamblingSpanTasks,2022.2.1,Win32,59.90534955,,,,,,,,,,,,,,,,,,,,,,,,,,,,,,,,,,,,,,,,,,,,,,,,,,,,,,,,,,,,,,,,,,,,,,,,,,,,,,,,,,"[8,7,2,4,6,3,1]",1,0,1,0,1,,,,,,,,,,,,,,,,,,,,,,,,,,,,,,,,,,,,,,,,,,,,,,,,
,,5d97f30dbe5c0c00154995fe,2022-09-08_14h03.34.639,CGTgamblingSpanTasks,2022.2.1,Win32,59.90534955,,,,,,,,,,,,,,,,,,,,,,,,,,,,,,,,,,,,,,,,,,,,,,,,,,,,,,,,,,,,,,,,,,,,,,,,,,,,,,,,,,"[8,7,2,4,6,3,1]",2,0,2,0,1,,,,,,,,,,,,,,,,,,,,,,,,,,,,,,,,,,,,,,,,,,,,,,,,
,,5d97f30dbe5c0c00154995fe,2022-09-08_14h03.34.639,CGTgamblingSpanTasks,2022.2.1,Win32,59.90534955,,,,,,,,,,,,,,,,,,,,,,,,,,,,,,,,,,,,,,,,,,,,,,,,,,,,,,,,,,,,,,,,,,,,,,,,,,,,,,,,,,"[8,7,2,4,6,3,1]",3,0,3,0,1,,,,,,,,,,,,,,,,,,,,,,,,,,,,,,,,,,,,,,,,,,,,,,,,
,,5d97f30dbe5c0c00154995fe,2022-09-08_14h03.34.639,CGTgamblingSpanTasks,2022.2.1,Win32,59.90534955,,,,,,,,,,,,,,,,,,,,,,,,,,,,,,,,,,,,,,,,,,,,,,,,,,,,,,,,,,,,,,,,,,,,,,,,,,,,,,,,,,"[8,7,2,4,6,3,1]",4,0,4,0,1,,,,,,,,,,,,,,,,,,,,,,,,,,,,,,,,,,,,,,,,,,,,,,,,
,,5d97f30dbe5c0c00154995fe,2022-09-08_14h03.34.639,CGTgamblingSpanTasks,2022.2.1,Win32,59.90534955,,,,,,,,,,,,,,,,,,,,,,,,,,,,,,,,,,,,,,,,,,,,,,,,,,,,,,,,,,,,,,,,,,,,,,,,,,,,,,,,,,"[8,7,2,4,6,3,1]",5,0,5,0,1,,,,,,,,,,,,,,,,,,,,,,,,,,,,,,,,,,,,,,,,,,,,,,,,
,,5d97f30dbe5c0c00154995fe,2022-09-08_14h03.34.639,CGTgamblingSpanTasks,2022.2.1,Win32,59.90534955,,,,,,,,,,,,,,,,,,,,,,,,,,,,,,,,,,,,,,,,,,,,,,,,,,,,,,,,,,,,,,,,,,,,,,,,,,,,,,,,,,"[8,7,2,4,6,3,1]",6,0,6,0,1,,,,,,,,,,,,,,,,,,,,,,,,,,,,,,,,,,,,,,,,,,,,,,,,
,,5d97f30dbe5c0c00154995fe,2022-09-08_14h03.34.639,CGTgamblingSpanTasks,2022.2.1,Win32,59.90534955,,,,,,,,,,,,,,,,,,,,,,,,,,,,,,,,,,,,,,,,,,,,,,,,,,,,,,,,,,,,,,,0,,,,,,,,,,,,,,,,,,,,,,,,,8763421,-0.030555556,-0.406481481,1,0,0,cont_button,0,5,5,5,1,6,,,,,,,,,,,,,,,,,,,,,,,,,,,,,,,,,,,
,,5d97f30dbe5c0c00154995fe,2022-09-08_14h03.34.639,CGTgamblingSpanTasks,2022.2.1,Win32,59.90534955,,,,,,,,,,,,,,,,,,,,,,,,,,,,,,,,,,,,,,,,,,,,,,,,,,,,,,,,,,,,,,,,,,,,,,,,,,,,,,,,,,"[3,8,5,9,4,6,2]",0,0,0,0,1,,,,,,,,,,,,,,,,,,,,,,,,,,,,,,,,,,,,,,,,,,,,,,,,
,,5d97f30dbe5c0c00154995fe,2022-09-08_14h03.34.639,CGTgamblingSpanTasks,2022.2.1,Win32,59.90534955,,,,,,,,,,,,,,,,,,,,,,,,,,,,,,,,,,,,,,,,,,,,,,,,,,,,,,,,,,,,,,,,,,,,,,,,,,,,,,,,,,"[3,8,5,9,4,6,2]",1,0,1,0,1,,,,,,,,,,,,,,,,,,,,,,,,,,,,,,,,,,,,,,,,,,,,,,,,
,,5d97f30dbe5c0c00154995fe,2022-09-08_14h03.34.639,CGTgamblingSpanTasks,2022.2.1,Win32,59.90534955,,,,,,,,,,,,,,,,,,,,,,,,,,,,,,,,,,,,,,,,,,,,,,,,,,,,,,,,,,,,,,,,,,,,,,,,,,,,,,,,,,"[3,8,5,9,4,6,2]",2,0,2,0,1,,,,,,,,,,,,,,,,,,,,,,,,,,,,,,,,,,,,,,,,,,,,,,,,
,,5d97f30dbe5c0c00154995fe,2022-09-08_14h03.34.639,CGTgamblingSpanTasks,2022.2.1,Win32,59.90534955,,,,,,,,,,,,,,,,,,,,,,,,,,,,,,,,,,,,,,,,,,,,,,,,,,,,,,,,,,,,,,,,,,,,,,,,,,,,,,,,,,"[3,8,5,9,4,6,2]",3,0,3,0,1,,,,,,,,,,,,,,,,,,,,,,,,,,,,,,,,,,,,,,,,,,,,,,,,
,,5d97f30dbe5c0c00154995fe,2022-09-08_14h03.34.639,CGTgamblingSpanTasks,2022.2.1,Win32,59.90534955,,,,,,,,,,,,,,,,,,,,,,,,,,,,,,,,,,,,,,,,,,,,,,,,,,,,,,,,,,,,,,,,,,,,,,,,,,,,,,,,,,"[3,8,5,9,4,6,2]",4,0,4,0,1,,,,,,,,,,,,,,,,,,,,,,,,,,,,,,,,,,,,,,,,,,,,,,,,
,,5d97f30dbe5c0c00154995fe,2022-09-08_14h03.34.639,CGTgamblingSpanTasks,2022.2.1,Win32,59.90534955,,,,,,,,,,,,,,,,,,,,,,,,,,,,,,,,,,,,,,,,,,,,,,,,,,,,,,,,,,,,,,,,,,,,,,,,,,,,,,,,,,"[3,8,5,9,4,6,2]",5,0,5,0,1,,,,,,,,,,,,,,,,,,,,,,,,,,,,,,,,,,,,,,,,,,,,,,,,
,,5d97f30dbe5c0c00154995fe,2022-09-08_14h03.34.639,CGTgamblingSpanTasks,2022.2.1,Win32,59.90534955,,,,,,,,,,,,,,,,,,,,,,,,,,,,,,,,,,,,,,,,,,,,,,,,,,,,,,,,,,,,,,,,,,,,,,,,,,,,,,,,,,"[3,8,5,9,4,6,2]",6,0,6,0,1,,,,,,,,,,,,,,,,,,,,,,,,,,,,,,,,,,,,,,,,,,,,,,,,
,,5d97f30dbe5c0c00154995fe,2022-09-08_14h03.34.639,CGTgamblingSpanTasks,2022.2.1,Win32,59.90534955,,,,,,,,,,,,,,,,,,,,,,,,,,,,,,,,,,,,,,,,,,,,,,,,,,,,,,,,,,,,,,,0,,,,,,,,,,,,,,,,,,,,,,,,,3895462,-0.057407407,-0.409259259,1,0,0,cont_button,0,6,6,6,1,7,,,,,,,,,,,,,,,,,,,,,,,,,,,,,,,,,,,
,,5d97f30dbe5c0c00154995fe,2022-09-08_14h03.34.639,CGTgamblingSpanTasks,2022.2.1,Win32,59.90534955,,,,,,,,,,,,,,,,,,,,,,,,,,,,,,,,,,,,,,,,,,,,,,,,,,,,,,,,,,,,,,,,,,,,,,,,,,,,,,,,,,"[4,6,8,2,7,5]",0,0,0,0,1,,,,,,,,,,,,,,,,,,,,,,,,,,,,,,,,,,,,,,,,,,,,,,,,
,,5d97f30dbe5c0c00154995fe,2022-09-08_14h03.34.639,CGTgamblingSpanTasks,2022.2.1,Win32,59.90534955,,,,,,,,,,,,,,,,,,,,,,,,,,,,,,,,,,,,,,,,,,,,,,,,,,,,,,,,,,,,,,,,,,,,,,,,,,,,,,,,,,"[4,6,8,2,7,5]",1,0,1,0,1,,,,,,,,,,,,,,,,,,,,,,,,,,,,,,,,,,,,,,,,,,,,,,,,
,,5d97f30dbe5c0c00154995fe,2022-09-08_14h03.34.639,CGTgamblingSpanTasks,2022.2.1,Win32,59.90534955,,,,,,,,,,,,,,,,,,,,,,,,,,,,,,,,,,,,,,,,,,,,,,,,,,,,,,,,,,,,,,,,,,,,,,,,,,,,,,,,,,"[4,6,8,2,7,5]",2,0,2,0,1,,,,,,,,,,,,,,,,,,,,,,,,,,,,,,,,,,,,,,,,,,,,,,,,
,,5d97f30dbe5c0c00154995fe,2022-09-08_14h03.34.639,CGTgamblingSpanTasks,2022.2.1,Win32,59.90534955,,,,,,,,,,,,,,,,,,,,,,,,,,,,,,,,,,,,,,,,,,,,,,,,,,,,,,,,,,,,,,,,,,,,,,,,,,,,,,,,,,"[4,6,8,2,7,5]",3,0,3,0,1,,,,,,,,,,,,,,,,,,,,,,,,,,,,,,,,,,,,,,,,,,,,,,,,
,,5d97f30dbe5c0c00154995fe,2022-09-08_14h03.34.639,CGTgamblingSpanTasks,2022.2.1,Win32,59.90534955,,,,,,,,,,,,,,,,,,,,,,,,,,,,,,,,,,,,,,,,,,,,,,,,,,,,,,,,,,,,,,,,,,,,,,,,,,,,,,,,,,"[4,6,8,2,7,5]",4,0,4,0,1,,,,,,,,,,,,,,,,,,,,,,,,,,,,,,,,,,,,,,,,,,,,,,,,
,,5d97f30dbe5c0c00154995fe,2022-09-08_14h03.34.639,CGTgamblingSpanTasks,2022.2.1,Win32,59.90534955,,,,,,,,,,,,,,,,,,,,,,,,,,,,,,,,,,,,,,,,,,,,,,,,,,,,,,,,,,,,,,,,,,,,,,,,,,,,,,,,,,"[4,6,8,2,7,5]",5,0,5,0,1,,,,,,,,,,,,,,,,,,,,,,,,,,,,,,,,,,,,,,,,,,,,,,,,
,,5d97f30dbe5c0c00154995fe,2022-09-08_14h03.34.639,CGTgamblingSpanTasks,2022.2.1,Win32,59.90534955,,,,,,,,,,,,,,,,,,,,,,,,,,,,,,,,,,,,,,,,,,,,,,,,,,,,,,,,,,,,,,,0,,,,,,,,,,,,,,,,,,,,,,,,,486275,-0.025,-0.412962963,1,0,0,cont_button,0,7,7,7,1,8,,,,,,,,,,,,,,,,,,,,,,,,,,,,,,,,,,,
,,5d97f30dbe5c0c00154995fe,2022-09-08_14h03.34.639,CGTgamblingSpanTasks,2022.2.1,Win32,59.90534955,,,,,,,,,,,,,,,,,,,,,,,,,,,,,,,,,,,,,,,,,,,,,,,,,,,,,,,,,,,,,,,,,,,,,,,,,,,,,,,,,,"[4,5,9,7,3,1]",0,0,0,0,1,,,,,,,,,,,,,,,,,,,,,,,,,,,,,,,,,,,,,,,,,,,,,,,,
,,5d97f30dbe5c0c00154995fe,2022-09-08_14h03.34.639,CGTgamblingSpanTasks,2022.2.1,Win32,59.90534955,,,,,,,,,,,,,,,,,,,,,,,,,,,,,,,,,,,,,,,,,,,,,,,,,,,,,,,,,,,,,,,,,,,,,,,,,,,,,,,,,,"[4,5,9,7,3,1]",1,0,1,0,1,,,,,,,,,,,,,,,,,,,,,,,,,,,,,,,,,,,,,,,,,,,,,,,,
,,5d97f30dbe5c0c00154995fe,2022-09-08_14h03.34.639,CGTgamblingSpanTasks,2022.2.1,Win32,59.90534955,,,,,,,,,,,,,,,,,,,,,,,,,,,,,,,,,,,,,,,,,,,,,,,,,,,,,,,,,,,,,,,,,,,,,,,,,,,,,,,,,,"[4,5,9,7,3,1]",2,0,2,0,1,,,,,,,,,,,,,,,,,,,,,,,,,,,,,,,,,,,,,,,,,,,,,,,,
,,5d97f30dbe5c0c00154995fe,2022-09-08_14h03.34.639,CGTgamblingSpanTasks,2022.2.1,Win32,59.90534955,,,,,,,,,,,,,,,,,,,,,,,,,,,,,,,,,,,,,,,,,,,,,,,,,,,,,,,,,,,,,,,,,,,,,,,,,,,,,,,,,,"[4,5,9,7,3,1]",3,0,3,0,1,,,,,,,,,,,,,,,,,,,,,,,,,,,,,,,,,,,,,,,,,,,,,,,,
,,5d97f30dbe5c0c00154995fe,2022-09-08_14h03.34.639,CGTgamblingSpanTasks,2022.2.1,Win32,59.90534955,,,,,,,,,,,,,,,,,,,,,,,,,,,,,,,,,,,,,,,,,,,,,,,,,,,,,,,,,,,,,,,,,,,,,,,,,,,,,,,,,,"[4,5,9,7,3,1]",4,0,4,0,1,,,,,,,,,,,,,,,,,,,,,,,,,,,,,,,,,,,,,,,,,,,,,,,,
,,5d97f30dbe5c0c00154995fe,2022-09-08_14h03.34.639,CGTgamblingSpanTasks,2022.2.1,Win32,59.90534955,,,,,,,,,,,,,,,,,,,,,,,,,,,,,,,,,,,,,,,,,,,,,,,,,,,,,,,,,,,,,,,,,,,,,,,,,,,,,,,,,,"[4,5,9,7,3,1]",5,0,5,0,1,,,,,,,,,,,,,,,,,,,,,,,,,,,,,,,,,,,,,,,,,,,,,,,,
,,5d97f30dbe5c0c00154995fe,2022-09-08_14h03.34.639,CGTgamblingSpanTasks,2022.2.1,Win32,59.90534955,,,,,,,,,,,,,,,,,,,,,,,,,,,,,,,,,,,,,,,,,,,,,,,,,,,,,,,,,,,,,,,1,,,,,,,,,,,,,,,,,,,,,,,,,459731,-0.026851852,-0.387037037,1,0,0,cont_button,0,8,8,8,1,9,,,,,,,,,,,,,,,,,,,,,,,,,,,,,,,,,,,
,,5d97f30dbe5c0c00154995fe,2022-09-08_14h03.34.639,CGTgamblingSpanTasks,2022.2.1,Win32,59.90534955,,,,,,,,,,,,,,,,,,,,,,,,,,,,,,,,,,,,,,,,,,,,,,,,,,,,,,,,,,,,,,,,,,,,,,,,,,,,,,,,,,"[1,3,5,2,7,6,9]",0,0,0,0,1,,,,,,,,,,,,,,,,,,,,,,,,,,,,,,,,,,,,,,,,,,,,,,,,
,,5d97f30dbe5c0c00154995fe,2022-09-08_14h03.34.639,CGTgamblingSpanTasks,2022.2.1,Win32,59.90534955,,,,,,,,,,,,,,,,,,,,,,,,,,,,,,,,,,,,,,,,,,,,,,,,,,,,,,,,,,,,,,,,,,,,,,,,,,,,,,,,,,"[1,3,5,2,7,6,9]",1,0,1,0,1,,,,,,,,,,,,,,,,,,,,,,,,,,,,,,,,,,,,,,,,,,,,,,,,
,,5d97f30dbe5c0c00154995fe,2022-09-08_14h03.34.639,CGTgamblingSpanTasks,2022.2.1,Win32,59.90534955,,,,,,,,,,,,,,,,,,,,,,,,,,,,,,,,,,,,,,,,,,,,,,,,,,,,,,,,,,,,,,,,,,,,,,,,,,,,,,,,,,"[1,3,5,2,7,6,9]",2,0,2,0,1,,,,,,,,,,,,,,,,,,,,,,,,,,,,,,,,,,,,,,,,,,,,,,,,
,,5d97f30dbe5c0c00154995fe,2022-09-08_14h03.34.639,CGTgamblingSpanTasks,2022.2.1,Win32,59.90534955,,,,,,,,,,,,,,,,,,,,,,,,,,,,,,,,,,,,,,,,,,,,,,,,,,,,,,,,,,,,,,,,,,,,,,,,,,,,,,,,,,"[1,3,5,2,7,6,9]",3,0,3,0,1,,,,,,,,,,,,,,,,,,,,,,,,,,,,,,,,,,,,,,,,,,,,,,,,
,,5d97f30dbe5c0c00154995fe,2022-09-08_14h03.34.639,CGTgamblingSpanTasks,2022.2.1,Win32,59.90534955,,,,,,,,,,,,,,,,,,,,,,,,,,,,,,,,,,,,,,,,,,,,,,,,,,,,,,,,,,,,,,,,,,,,,,,,,,,,,,,,,,"[1,3,5,2,7,6,9]",4,0,4,0,1,,,,,,,,,,,,,,,,,,,,,,,,,,,,,,,,,,,,,,,,,,,,,,,,
,,5d97f30dbe5c0c00154995fe,2022-09-08_14h03.34.639,CGTgamblingSpanTasks,2022.2.1,Win32,59.90534955,,,,,,,,,,,,,,,,,,,,,,,,,,,,,,,,,,,,,,,,,,,,,,,,,,,,,,,,,,,,,,,,,,,,,,,,,,,,,,,,,,"[1,3,5,2,7,6,9]",5,0,5,0,1,,,,,,,,,,,,,,,,,,,,,,,,,,,,,,,,,,,,,,,,,,,,,,,,
,,5d97f30dbe5c0c00154995fe,2022-09-08_14h03.34.639,CGTgamblingSpanTasks,2022.2.1,Win32,59.90534955,,,,,,,,,,,,,,,,,,,,,,,,,,,,,,,,,,,,,,,,,,,,,,,,,,,,,,,,,,,,,,,,,,,,,,,,,,,,,,,,,,"[1,3,5,2,7,6,9]",6,0,6,0,1,,,,,,,,,,,,,,,,,,,,,,,,,,,,,,,,,,,,,,,,,,,,,,,,
,,5d97f30dbe5c0c00154995fe,2022-09-08_14h03.34.639,CGTgamblingSpanTasks,2022.2.1,Win32,59.90534955,,,,,,,,,,,,,,,,,,,,,,,,,,,,,,,,,,,,,,,,,,,,,,,,,,,,,,,,,,,,,,,1,,,,,,,,,,,,,,,,,,,,,,,,,1352769,0.028703704,-0.415740741,1,0,0,cont_button,0,9,9,9,1,10,,,,,,,,,,,,,,,,,,,,,,,,,,,,,,,,,,,
,,5d97f30dbe5c0c00154995fe,2022-09-08_14h03.34.639,CGTgamblingSpanTasks,2022.2.1,Win32,59.90534955,,,,,,,,,,,,,,,,,,,,,,,,,,,,,,,,,,,,,,,,,,,,,,,,,,,,,,,,,,,,,,,,,,,,,,,,,,,,,,,,,,"[5,2,7,1,3,6,8,9]",0,0,0,0,1,,,,,,,,,,,,,,,,,,,,,,,,,,,,,,,,,,,,,,,,,,,,,,,,
,,5d97f30dbe5c0c00154995fe,2022-09-08_14h03.34.639,CGTgamblingSpanTasks,2022.2.1,Win32,59.90534955,,,,,,,,,,,,,,,,,,,,,,,,,,,,,,,,,,,,,,,,,,,,,,,,,,,,,,,,,,,,,,,,,,,,,,,,,,,,,,,,,,"[5,2,7,1,3,6,8,9]",1,0,1,0,1,,,,,,,,,,,,,,,,,,,,,,,,,,,,,,,,,,,,,,,,,,,,,,,,
,,5d97f30dbe5c0c00154995fe,2022-09-08_14h03.34.639,CGTgamblingSpanTasks,2022.2.1,Win32,59.90534955,,,,,,,,,,,,,,,,,,,,,,,,,,,,,,,,,,,,,,,,,,,,,,,,,,,,,,,,,,,,,,,,,,,,,,,,,,,,,,,,,,"[5,2,7,1,3,6,8,9]",2,0,2,0,1,,,,,,,,,,,,,,,,,,,,,,,,,,,,,,,,,,,,,,,,,,,,,,,,
,,5d97f30dbe5c0c00154995fe,2022-09-08_14h03.34.639,CGTgamblingSpanTasks,2022.2.1,Win32,59.90534955,,,,,,,,,,,,,,,,,,,,,,,,,,,,,,,,,,,,,,,,,,,,,,,,,,,,,,,,,,,,,,,,,,,,,,,,,,,,,,,,,,"[5,2,7,1,3,6,8,9]",3,0,3,0,1,,,,,,,,,,,,,,,,,,,,,,,,,,,,,,,,,,,,,,,,,,,,,,,,
,,5d97f30dbe5c0c00154995fe,2022-09-08_14h03.34.639,CGTgamblingSpanTasks,2022.2.1,Win32,59.90534955,,,,,,,,,,,,,,,,,,,,,,,,,,,,,,,,,,,,,,,,,,,,,,,,,,,,,,,,,,,,,,,,,,,,,,,,,,,,,,,,,,"[5,2,7,1,3,6,8,9]",4,0,4,0,1,,,,,,,,,,,,,,,,,,,,,,,,,,,,,,,,,,,,,,,,,,,,,,,,
,,5d97f30dbe5c0c00154995fe,2022-09-08_14h03.34.639,CGTgamblingSpanTasks,2022.2.1,Win32,59.90534955,,,,,,,,,,,,,,,,,,,,,,,,,,,,,,,,,,,,,,,,,,,,,,,,,,,,,,,,,,,,,,,,,,,,,,,,,,,,,,,,,,"[5,2,7,1,3,6,8,9]",5,0,5,0,1,,,,,,,,,,,,,,,,,,,,,,,,,,,,,,,,,,,,,,,,,,,,,,,,
,,5d97f30dbe5c0c00154995fe,2022-09-08_14h03.34.639,CGTgamblingSpanTasks,2022.2.1,Win32,59.90534955,,,,,,,,,,,,,,,,,,,,,,,,,,,,,,,,,,,,,,,,,,,,,,,,,,,,,,,,,,,,,,,,,,,,,,,,,,,,,,,,,,"[5,2,7,1,3,6,8,9]",6,0,6,0,1,,,,,,,,,,,,,,,,,,,,,,,,,,,,,,,,,,,,,,,,,,,,,,,,
,,5d97f30dbe5c0c00154995fe,2022-09-08_14h03.34.639,CGTgamblingSpanTasks,2022.2.1,Win32,59.90534955,,,,,,,,,,,,,,,,,,,,,,,,,,,,,,,,,,,,,,,,,,,,,,,,,,,,,,,,,,,,,,,,,,,,,,,,,,,,,,,,,,"[5,2,7,1,3,6,8,9]",7,0,7,0,1,,,,,,,,,,,,,,,,,,,,,,,,,,,,,,,,,,,,,,,,,,,,,,,,
,,5d97f30dbe5c0c00154995fe,2022-09-08_14h03.34.639,CGTgamblingSpanTasks,2022.2.1,Win32,59.90534955,,,,,,,,,,,,,,,,,,,,,,,,,,,,,,,,,,,,,,,,,,,,,,,,,,,,,,,,,,,,,,,1,,,,,,,,,,,,,,,,,,,,,,,,,52713689,0.024074074,-0.421296296,1,0,0,cont_button,0,10,10,10,1,11,,,,,,,,,,,,,,,,,,,,,,,,,,,,,,,,,,,
,,5d97f30dbe5c0c00154995fe,2022-09-08_14h03.34.639,CGTgamblingSpanTasks,2022.2.1,Win32,59.90534955,,,,,,,,,,,,,,,,,,,,,,,,,,,,,,,,,,,,,,,,,,,,,,,,,,,,,,,,,,,,,,,,,,,,,,,,,,,,,,,,,,"[1,3,9,6,4,7,2,5,8]",0,0,0,0,1,,,,,,,,,,,,,,,,,,,,,,,,,,,,,,,,,,,,,,,,,,,,,,,,
,,5d97f30dbe5c0c00154995fe,2022-09-08_14h03.34.639,CGTgamblingSpanTasks,2022.2.1,Win32,59.90534955,,,,,,,,,,,,,,,,,,,,,,,,,,,,,,,,,,,,,,,,,,,,,,,,,,,,,,,,,,,,,,,,,,,,,,,,,,,,,,,,,,"[1,3,9,6,4,7,2,5,8]",1,0,1,0,1,,,,,,,,,,,,,,,,,,,,,,,,,,,,,,,,,,,,,,,,,,,,,,,,
,,5d97f30dbe5c0c00154995fe,2022-09-08_14h03.34.639,CGTgamblingSpanTasks,2022.2.1,Win32,59.90534955,,,,,,,,,,,,,,,,,,,,,,,,,,,,,,,,,,,,,,,,,,,,,,,,,,,,,,,,,,,,,,,,,,,,,,,,,,,,,,,,,,"[1,3,9,6,4,7,2,5,8]",2,0,2,0,1,,,,,,,,,,,,,,,,,,,,,,,,,,,,,,,,,,,,,,,,,,,,,,,,
,,5d97f30dbe5c0c00154995fe,2022-09-08_14h03.34.639,CGTgamblingSpanTasks,2022.2.1,Win32,59.90534955,,,,,,,,,,,,,,,,,,,,,,,,,,,,,,,,,,,,,,,,,,,,,,,,,,,,,,,,,,,,,,,,,,,,,,,,,,,,,,,,,,"[1,3,9,6,4,7,2,5,8]",3,0,3,0,1,,,,,,,,,,,,,,,,,,,,,,,,,,,,,,,,,,,,,,,,,,,,,,,,
,,5d97f30dbe5c0c00154995fe,2022-09-08_14h03.34.639,CGTgamblingSpanTasks,2022.2.1,Win32,59.90534955,,,,,,,,,,,,,,,,,,,,,,,,,,,,,,,,,,,,,,,,,,,,,,,,,,,,,,,,,,,,,,,,,,,,,,,,,,,,,,,,,,"[1,3,9,6,4,7,2,5,8]",4,0,4,0,1,,,,,,,,,,,,,,,,,,,,,,,,,,,,,,,,,,,,,,,,,,,,,,,,
,,5d97f30dbe5c0c00154995fe,2022-09-08_14h03.34.639,CGTgamblingSpanTasks,2022.2.1,Win32,59.90534955,,,,,,,,,,,,,,,,,,,,,,,,,,,,,,,,,,,,,,,,,,,,,,,,,,,,,,,,,,,,,,,,,,,,,,,,,,,,,,,,,,"[1,3,9,6,4,7,2,5,8]",5,0,5,0,1,,,,,,,,,,,,,,,,,,,,,,,,,,,,,,,,,,,,,,,,,,,,,,,,
,,5d97f30dbe5c0c00154995fe,2022-09-08_14h03.34.639,CGTgamblingSpanTasks,2022.2.1,Win32,59.90534955,,,,,,,,,,,,,,,,,,,,,,,,,,,,,,,,,,,,,,,,,,,,,,,,,,,,,,,,,,,,,,,,,,,,,,,,,,,,,,,,,,"[1,3,9,6,4,7,2,5,8]",6,0,6,0,1,,,,,,,,,,,,,,,,,,,,,,,,,,,,,,,,,,,,,,,,,,,,,,,,
,,5d97f30dbe5c0c00154995fe,2022-09-08_14h03.34.639,CGTgamblingSpanTasks,2022.2.1,Win32,59.90534955,,,,,,,,,,,,,,,,,,,,,,,,,,,,,,,,,,,,,,,,,,,,,,,,,,,,,,,,,,,,,,,,,,,,,,,,,,,,,,,,,,"[1,3,9,6,4,7,2,5,8]",7,0,7,0,1,,,,,,,,,,,,,,,,,,,,,,,,,,,,,,,,,,,,,,,,,,,,,,,,
,,5d97f30dbe5c0c00154995fe,2022-09-08_14h03.34.639,CGTgamblingSpanTasks,2022.2.1,Win32,59.90534955,,,,,,,,,,,,,,,,,,,,,,,,,,,,,,,,,,,,,,,,,,,,,,,,,,,,,,,,,,,,,,,,,,,,,,,,,,,,,,,,,,"[1,3,9,6,4,7,2,5,8]",8,0,8,0,1,,,,,,,,,,,,,,,,,,,,,,,,,,,,,,,,,,,,,,,,,,,,,,,,
,,5d97f30dbe5c0c00154995fe,2022-09-08_14h03.34.639,CGTgamblingSpanTasks,2022.2.1,Win32,59.90534955,,,,,,,,,,,,,,,,,,,,,,,,,,,,,,,,,,,,,,,,,,,,,,,,,,,,,,,,,,,,,,,0,,,,,,,,,,,,,,,,,,,,,,,,,136946258,0.027777778,-0.409259259,1,0,0,cont_button,0,11,11,11,1,12,,,,,,,,,,,,,,,,,,,,,,,,,,,,,,,,,,,
,,5d97f30dbe5c0c00154995fe,2022-09-08_14h03.34.639,CGTgamblingSpanTasks,2022.2.1,Win32,59.90534955,,,,,,,,,,,,,,,,,,,,,,,,,,,,,,,,,,,,,,,,,,,,,,,,,,,,,,,,,,,,,,,,,,,,,,,,,,,,,,,,,,"[7,3,4,2,8,1,5,9,6]",0,0,0,0,1,,,,,,,,,,,,,,,,,,,,,,,,,,,,,,,,,,,,,,,,,,,,,,,,
,,5d97f30dbe5c0c00154995fe,2022-09-08_14h03.34.639,CGTgamblingSpanTasks,2022.2.1,Win32,59.90534955,,,,,,,,,,,,,,,,,,,,,,,,,,,,,,,,,,,,,,,,,,,,,,,,,,,,,,,,,,,,,,,,,,,,,,,,,,,,,,,,,,"[7,3,4,2,8,1,5,9,6]",1,0,1,0,1,,,,,,,,,,,,,,,,,,,,,,,,,,,,,,,,,,,,,,,,,,,,,,,,
,,5d97f30dbe5c0c00154995fe,2022-09-08_14h03.34.639,CGTgamblingSpanTasks,2022.2.1,Win32,59.90534955,,,,,,,,,,,,,,,,,,,,,,,,,,,,,,,,,,,,,,,,,,,,,,,,,,,,,,,,,,,,,,,,,,,,,,,,,,,,,,,,,,"[7,3,4,2,8,1,5,9,6]",2,0,2,0,1,,,,,,,,,,,,,,,,,,,,,,,,,,,,,,,,,,,,,,,,,,,,,,,,
,,5d97f30dbe5c0c00154995fe,2022-09-08_14h03.34.639,CGTgamblingSpanTasks,2022.2.1,Win32,59.90534955,,,,,,,,,,,,,,,,,,,,,,,,,,,,,,,,,,,,,,,,,,,,,,,,,,,,,,,,,,,,,,,,,,,,,,,,,,,,,,,,,,"[7,3,4,2,8,1,5,9,6]",3,0,3,0,1,,,,,,,,,,,,,,,,,,,,,,,,,,,,,,,,,,,,,,,,,,,,,,,,
,,5d97f30dbe5c0c00154995fe,2022-09-08_14h03.34.639,CGTgamblingSpanTasks,2022.2.1,Win32,59.90534955,,,,,,,,,,,,,,,,,,,,,,,,,,,,,,,,,,,,,,,,,,,,,,,,,,,,,,,,,,,,,,,,,,,,,,,,,,,,,,,,,,"[7,3,4,2,8,1,5,9,6]",4,0,4,0,1,,,,,,,,,,,,,,,,,,,,,,,,,,,,,,,,,,,,,,,,,,,,,,,,
,,5d97f30dbe5c0c00154995fe,2022-09-08_14h03.34.639,CGTgamblingSpanTasks,2022.2.1,Win32,59.90534955,,,,,,,,,,,,,,,,,,,,,,,,,,,,,,,,,,,,,,,,,,,,,,,,,,,,,,,,,,,,,,,,,,,,,,,,,,,,,,,,,,"[7,3,4,2,8,1,5,9,6]",5,0,5,0,1,,,,,,,,,,,,,,,,,,,,,,,,,,,,,,,,,,,,,,,,,,,,,,,,
,,5d97f30dbe5c0c00154995fe,2022-09-08_14h03.34.639,CGTgamblingSpanTasks,2022.2.1,Win32,59.90534955,,,,,,,,,,,,,,,,,,,,,,,,,,,,,,,,,,,,,,,,,,,,,,,,,,,,,,,,,,,,,,,,,,,,,,,,,,,,,,,,,,"[7,3,4,2,8,1,5,9,6]",6,0,6,0,1,,,,,,,,,,,,,,,,,,,,,,,,,,,,,,,,,,,,,,,,,,,,,,,,
,,5d97f30dbe5c0c00154995fe,2022-09-08_14h03.34.639,CGTgamblingSpanTasks,2022.2.1,Win32,59.90534955,,,,,,,,,,,,,,,,,,,,,,,,,,,,,,,,,,,,,,,,,,,,,,,,,,,,,,,,,,,,,,,,,,,,,,,,,,,,,,,,,,"[7,3,4,2,8,1,5,9,6]",7,0,7,0,1,,,,,,,,,,,,,,,,,,,,,,,,,,,,,,,,,,,,,,,,,,,,,,,,
,,5d97f30dbe5c0c00154995fe,2022-09-08_14h03.34.639,CGTgamblingSpanTasks,2022.2.1,Win32,59.90534955,,,,,,,,,,,,,,,,,,,,,,,,,,,,,,,,,,,,,,,,,,,,,,,,,,,,,,,,,,,,,,,,,,,,,,,,,,,,,,,,,,"[7,3,4,2,8,1,5,9,6]",8,0,8,0,1,,,,,,,,,,,,,,,,,,,,,,,,,,,,,,,,,,,,,,,,,,,,,,,,
,,5d97f30dbe5c0c00154995fe,2022-09-08_14h03.34.639,CGTgamblingSpanTasks,2022.2.1,Win32,59.90534955,,,,,,,,,,,,,,,,,,,,,,,,,,,,,,,,,,,,,,,,,,,,,,,,,,,,,,,,,,,,,,,0,,,,,,,,,,,,,,,,,,,,,,,,,734285196,0.001851852,-0.416666667,1,0,0,cont_button,0,12,12,12,1,13,,,,,,,,,,,,,,,,,,,,,,,,,,,,,,,,,,,
,,5d97f30dbe5c0c00154995fe,2022-09-08_14h03.34.639,CGTgamblingSpanTasks,2022.2.1,Win32,59.90534955,,,,,,,,,,,,,,,,,,,,,,,,,,,,,,,,,,,,,,,,,,,,,,,,,,,,,,,,,,,,,,,,,,,,,,,,,,,,,,,,,,"[9,5,6,1,4,7,2,3]",0,0,0,0,1,,,,,,,,,,,,,,,,,,,,,,,,,,,,,,,,,,,,,,,,,,,,,,,,
,,5d97f30dbe5c0c00154995fe,2022-09-08_14h03.34.639,CGTgamblingSpanTasks,2022.2.1,Win32,59.90534955,,,,,,,,,,,,,,,,,,,,,,,,,,,,,,,,,,,,,,,,,,,,,,,,,,,,,,,,,,,,,,,,,,,,,,,,,,,,,,,,,,"[9,5,6,1,4,7,2,3]",1,0,1,0,1,,,,,,,,,,,,,,,,,,,,,,,,,,,,,,,,,,,,,,,,,,,,,,,,
,,5d97f30dbe5c0c00154995fe,2022-09-08_14h03.34.639,CGTgamblingSpanTasks,2022.2.1,Win32,59.90534955,,,,,,,,,,,,,,,,,,,,,,,,,,,,,,,,,,,,,,,,,,,,,,,,,,,,,,,,,,,,,,,,,,,,,,,,,,,,,,,,,,"[9,5,6,1,4,7,2,3]",2,0,2,0,1,,,,,,,,,,,,,,,,,,,,,,,,,,,,,,,,,,,,,,,,,,,,,,,,
,,5d97f30dbe5c0c00154995fe,2022-09-08_14h03.34.639,CGTgamblingSpanTasks,2022.2.1,Win32,59.90534955,,,,,,,,,,,,,,,,,,,,,,,,,,,,,,,,,,,,,,,,,,,,,,,,,,,,,,,,,,,,,,,,,,,,,,,,,,,,,,,,,,"[9,5,6,1,4,7,2,3]",3,0,3,0,1,,,,,,,,,,,,,,,,,,,,,,,,,,,,,,,,,,,,,,,,,,,,,,,,
,,5d97f30dbe5c0c00154995fe,2022-09-08_14h03.34.639,CGTgamblingSpanTasks,2022.2.1,Win32,59.90534955,,,,,,,,,,,,,,,,,,,,,,,,,,,,,,,,,,,,,,,,,,,,,,,,,,,,,,,,,,,,,,,,,,,,,,,,,,,,,,,,,,"[9,5,6,1,4,7,2,3]",4,0,4,0,1,,,,,,,,,,,,,,,,,,,,,,,,,,,,,,,,,,,,,,,,,,,,,,,,
,,5d97f30dbe5c0c00154995fe,2022-09-08_14h03.34.639,CGTgamblingSpanTasks,2022.2.1,Win32,59.90534955,,,,,,,,,,,,,,,,,,,,,,,,,,,,,,,,,,,,,,,,,,,,,,,,,,,,,,,,,,,,,,,,,,,,,,,,,,,,,,,,,,"[9,5,6,1,4,7,2,3]",5,0,5,0,1,,,,,,,,,,,,,,,,,,,,,,,,,,,,,,,,,,,,,,,,,,,,,,,,
,,5d97f30dbe5c0c00154995fe,2022-09-08_14h03.34.639,CGTgamblingSpanTasks,2022.2.1,Win32,59.90534955,,,,,,,,,,,,,,,,,,,,,,,,,,,,,,,,,,,,,,,,,,,,,,,,,,,,,,,,,,,,,,,,,,,,,,,,,,,,,,,,,,"[9,5,6,1,4,7,2,3]",6,0,6,0,1,,,,,,,,,,,,,,,,,,,,,,,,,,,,,,,,,,,,,,,,,,,,,,,,
,,5d97f30dbe5c0c00154995fe,2022-09-08_14h03.34.639,CGTgamblingSpanTasks,2022.2.1,Win32,59.90534955,,,,,,,,,,,,,,,,,,,,,,,,,,,,,,,,,,,,,,,,,,,,,,,,,,,,,,,,,,,,,,,,,,,,,,,,,,,,,,,,,,"[9,5,6,1,4,7,2,3]",7,0,7,0,1,,,,,,,,,,,,,,,,,,,,,,,,,,,,,,,,,,,,,,,,,,,,,,,,
,,5d97f30dbe5c0c00154995fe,2022-09-08_14h03.34.639,CGTgamblingSpanTasks,2022.2.1,Win32,59.90534955,,,,,,,,,,,,,,,,,,,,,,,,,,,,,,,,,,,,,,,,,,,,,,,,,,,,,,,,,,,,,,,0,,,,,,,,,,,,,,,,,,,,,,,,,15967423,-0.003703704,-0.407407407,1,0,0,cont_button,0,13,13,13,1,14,,,,,,,,,,,,,,,,,,,,,,,,,,,,,,,,,,,
,,5d97f30dbe5c0c00154995fe,2022-09-08_14h03.34.639,CGTgamblingSpanTasks,2022.2.1,Win32,59.90534955,,,,,,,,,,,,,,,,,,,,,,,,,,,,,,,,,,,,,,,,,,,,,,,,,,,,,,,,,,,,,,,,,,,,,,,,,,,,,,,,,,,,,,,,,,,,,,,,,,,,,return,2.2665,,,,,,,,,,,,,,,,,,,,,,,,,,,,,,,,,
,,5d97f30dbe5c0c00154995fe,2022-09-08_14h03.34.639,CGTgamblingSpanTasks,2022.2.1,Win32,59.90534955,,,,,,,,,,,,,,,,,,,,,,,,,,,,,,,,,,,,,,,,,,,,,,,,,,,,,,,,,,,,,,,,,,,,,,,,,,,,,,,,,,,,,,,,,,,,,,,,,,,,,,,return,10.9617,,,,,,,,,,,,,,,,,,,,,,,,,,,,,,,
,,5d97f30dbe5c0c00154995fe,2022-09-08_14h03.34.639,CGTgamblingSpanTasks,2022.2.1,Win32,59.90534955,,,,,,,,,,,,,,,,,,,,,,,,,,,,,,,,,,,,,,,,,,,,,,,,,,,,,,,,,,,,,,,1,,,,,,,,,,,,3,342,24,2,42,,,,,,,,,,,,,,,,,,,,,,,,,,42,0.000925926,-0.399074074,1,0,0,cont_buttonPractice_2,0,0,0,0,1,,,,,,,,,,,,,,,,,,,
,,5d97f30dbe5c0c00154995fe,2022-09-08_14h03.34.639,CGTgamblingSpanTasks,2022.2.1,Win32,59.90534955,,,,,,,,,,,,,,,,,,,,,,,,,,,,,,,,,,,,,,,,,,,,,,,,,,,,,,,,,,,,,,,1,,,,,,,,,,,,3,937,73,2,37,,,,,,,,,,,,,,,,,,,,,,,,,,37,-0.041666667,-0.393518519,1,0,0,cont_buttonPractice_2,0,1,1,1,1,,,,,,,,,,,,,,,,,,,
,,5d97f30dbe5c0c00154995fe,2022-09-08_14h03.34.639,CGTgamblingSpanTasks,2022.2.1,Win32,59.90534955,,,,,,,,,,,,,,,,,,,,,,,,,,,,,,,,,,,,,,,,,,,,,,,,,,,,,,,,,,,,,,,,,,,,,,,,,,,,,,,,,,,,,,,,,,,,,,,,,,,,,,,,,,,,,,,,,,,,,return,4.7938,,,,,,,,,,,,,,,,,
,,5d97f30dbe5c0c00154995fe,2022-09-08_14h03.34.639,CGTgamblingSpanTasks,2022.2.1,Win32,59.90534955,,,,,,,,,,,,,,,,,,,,,,,,,,,,,,,,,,,,,,,,,,,,,,,,,,,,,,,,,,,,,,,,,,,,,,,,,,,,,,,,,,"[6,2]",,,,,,,,,,,,,,,,,,,,,,,,,,,,,,,,,,,,,0,0,0,0,1,,,,,,,,,,,,
,,5d97f30dbe5c0c00154995fe,2022-09-08_14h03.34.639,CGTgamblingSpanTasks,2022.2.1,Win32,59.90534955,,,,,,,,,,,,,,,,,,,,,,,,,,,,,,,,,,,,,,,,,,,,,,,,,,,,,,,,,,,,,,,,,,,,,,,,,,,,,,,,,,"[6,2]",,,,,,,,,,,,,,,,,,,,,,,,,,,,,,,,,,,,,1,0,1,0,1,,,,,,,,,,,,
,,5d97f30dbe5c0c00154995fe,2022-09-08_14h03.34.639,CGTgamblingSpanTasks,2022.2.1,Win32,59.90534955,,,,,,,,,,,,,,,,,,,,,,,,,,,,,,,,,,,,,,,,,,,,,,,,,,,,,,,,,,,,,,,1,,,,,,,,,,,,,,,,,,,,,,,,,,,,,,,,,,,,,1,,,,,,,,,,,,,,,,,,,,,,,,26,0.001851852,-0.4,1,0,0,cont_buttonBS,0,0,0,0,1
,,5d97f30dbe5c0c00154995fe,2022-09-08_14h03.34.639,CGTgamblingSpanTasks,2022.2.1,Win32,59.90534955,,,,,,,,,,,,,,,,,,,,,,,,,,,,,,,,,,,,,,,,,,,,,,,,,,,,,,,,,,,,,,,,,,,,,,,,,,,,,,,,,,"[7,6,9]",,,,,,,,,,,,,,,,,,,,,,,,,,,,,,,,,,,,,0,0,0,0,1,,,,,,,,,,,,
,,5d97f30dbe5c0c00154995fe,2022-09-08_14h03.34.639,CGTgamblingSpanTasks,2022.2.1,Win32,59.90534955,,,,,,,,,,,,,,,,,,,,,,,,,,,,,,,,,,,,,,,,,,,,,,,,,,,,,,,,,,,,,,,,,,,,,,,,,,,,,,,,,,"[7,6,9]",,,,,,,,,,,,,,,,,,,,,,,,,,,,,,,,,,,,,1,0,1,0,1,,,,,,,,,,,,
,,5d97f30dbe5c0c00154995fe,2022-09-08_14h03.34.639,CGTgamblingSpanTasks,2022.2.1,Win32,59.90534955,,,,,,,,,,,,,,,,,,,,,,,,,,,,,,,,,,,,,,,,,,,,,,,,,,,,,,,,,,,,,,,,,,,,,,,,,,,,,,,,,,"[7,6,9]",,,,,,,,,,,,,,,,,,,,,,,,,,,,,,,,,,,,,2,0,2,0,1,,,,,,,,,,,,
,,5d97f30dbe5c0c00154995fe,2022-09-08_14h03.34.639,CGTgamblingSpanTasks,2022.2.1,Win32,59.90534955,,,,,,,,,,,,,,,,,,,,,,,,,,,,,,,,,,,,,,,,,,,,,,,,,,,,,,,,,,,,,,,1,,,,,,,,,,,,,,,,,,,,,,,,,,,,,,,,,,,,,2,,,,,,,,,,,,,,,,,,,,,,,,967,-0.02962963,-0.402777778,1,0,0,cont_buttonBS,0,1,1,1,1
,,5d97f30dbe5c0c00154995fe,2022-09-08_14h03.34.639,CGTgamblingSpanTasks,2022.2.1,Win32,59.90534955,,,,,,,,,,,,,,,,,,,,,,,,,,,,,,,,,,,,,,,,,,,,,,,,,,,,,,,,,,,,,,,,,,,,,,,,,,,,,,,,,,"[5,8,3,9]",,,,,,,,,,,,,,,,,,,,,,,,,,,,,,,,,,,,,0,0,0,0,1,,,,,,,,,,,,
,,5d97f30dbe5c0c00154995fe,2022-09-08_14h03.34.639,CGTgamblingSpanTasks,2022.2.1,Win32,59.90534955,,,,,,,,,,,,,,,,,,,,,,,,,,,,,,,,,,,,,,,,,,,,,,,,,,,,,,,,,,,,,,,,,,,,,,,,,,,,,,,,,,"[5,8,3,9]",,,,,,,,,,,,,,,,,,,,,,,,,,,,,,,,,,,,,1,0,1,0,1,,,,,,,,,,,,
,,5d97f30dbe5c0c00154995fe,2022-09-08_14h03.34.639,CGTgamblingSpanTasks,2022.2.1,Win32,59.90534955,,,,,,,,,,,,,,,,,,,,,,,,,,,,,,,,,,,,,,,,,,,,,,,,,,,,,,,,,,,,,,,,,,,,,,,,,,,,,,,,,,"[5,8,3,9]",,,,,,,,,,,,,,,,,,,,,,,,,,,,,,,,,,,,,2,0,2,0,1,,,,,,,,,,,,
,,5d97f30dbe5c0c00154995fe,2022-09-08_14h03.34.639,CGTgamblingSpanTasks,2022.2.1,Win32,59.90534955,,,,,,,,,,,,,,,,,,,,,,,,,,,,,,,,,,,,,,,,,,,,,,,,,,,,,,,,,,,,,,,,,,,,,,,,,,,,,,,,,,"[5,8,3,9]",,,,,,,,,,,,,,,,,,,,,,,,,,,,,,,,,,,,,3,0,3,0,1,,,,,,,,,,,,
,,5d97f30dbe5c0c00154995fe,2022-09-08_14h03.34.639,CGTgamblingSpanTasks,2022.2.1,Win32,59.90534955,,,,,,,,,,,,,,,,,,,,,,,,,,,,,,,,,,,,,,,,,,,,,,,,,,,,,,,,,,,,,,,1,,,,,,,,,,,,,,,,,,,,,,,,,,,,,,,,,,,,,3,,,,,,,,,,,,,,,,,,,,,,,,9385,0.002777778,-0.401851852,1,0,0,cont_buttonBS,0,2,2,2,1
,,5d97f30dbe5c0c00154995fe,2022-09-08_14h03.34.639,CGTgamblingSpanTasks,2022.2.1,Win32,59.90534955,,,,,,,,,,,,,,,,,,,,,,,,,,,,,,,,,,,,,,,,,,,,,,,,,,,,,,,,,,,,,,,,,,,,,,,,,,,,,,,,,,"[9,4,7,3,6]",,,,,,,,,,,,,,,,,,,,,,,,,,,,,,,,,,,,,0,0,0,0,1,,,,,,,,,,,,
,,5d97f30dbe5c0c00154995fe,2022-09-08_14h03.34.639,CGTgamblingSpanTasks,2022.2.1,Win32,59.90534955,,,,,,,,,,,,,,,,,,,,,,,,,,,,,,,,,,,,,,,,,,,,,,,,,,,,,,,,,,,,,,,,,,,,,,,,,,,,,,,,,,"[9,4,7,3,6]",,,,,,,,,,,,,,,,,,,,,,,,,,,,,,,,,,,,,1,0,1,0,1,,,,,,,,,,,,
,,5d97f30dbe5c0c00154995fe,2022-09-08_14h03.34.639,CGTgamblingSpanTasks,2022.2.1,Win32,59.90534955,,,,,,,,,,,,,,,,,,,,,,,,,,,,,,,,,,,,,,,,,,,,,,,,,,,,,,,,,,,,,,,,,,,,,,,,,,,,,,,,,,"[9,4,7,3,6]",,,,,,,,,,,,,,,,,,,,,,,,,,,,,,,,,,,,,2,0,2,0,1,,,,,,,,,,,,
,,5d97f30dbe5c0c00154995fe,2022-09-08_14h03.34.639,CGTgamblingSpanTasks,2022.2.1,Win32,59.90534955,,,,,,,,,,,,,,,,,,,,,,,,,,,,,,,,,,,,,,,,,,,,,,,,,,,,,,,,,,,,,,,,,,,,,,,,,,,,,,,,,,"[9,4,7,3,6]",,,,,,,,,,,,,,,,,,,,,,,,,,,,,,,,,,,,,3,0,3,0,1,,,,,,,,,,,,
,,5d97f30dbe5c0c00154995fe,2022-09-08_14h03.34.639,CGTgamblingSpanTasks,2022.2.1,Win32,59.90534955,,,,,,,,,,,,,,,,,,,,,,,,,,,,,,,,,,,,,,,,,,,,,,,,,,,,,,,,,,,,,,,,,,,,,,,,,,,,,,,,,,"[9,4,7,3,6]",,,,,,,,,,,,,,,,,,,,,,,,,,,,,,,,,,,,,4,0,4,0,1,,,,,,,,,,,,
,,5d97f30dbe5c0c00154995fe,2022-09-08_14h03.34.639,CGTgamblingSpanTasks,2022.2.1,Win32,59.90534955,,,,,,,,,,,,,,,,,,,,,,,,,,,,,,,,,,,,,,,,,,,,,,,,,,,,,,,,,,,,,,,1,,,,,,,,,,,,,,,,,,,,,,,,,,,,,,,,,,,,,4,,,,,,,,,,,,,,,,,,,,,,,,63749,-0.017592593,-0.42962963,1,0,0,cont_buttonBS,0,3,3,3,1
,,5d97f30dbe5c0c00154995fe,2022-09-08_14h03.34.639,CGTgamblingSpanTasks,2022.2.1,Win32,59.90534955,,,,,,,,,,,,,,,,,,,,,,,,,,,,,,,,,,,,,,,,,,,,,,,,,,,,,,,,,,,,,,,,,,,,,,,,,,,,,,,,,,"[3,9,7,4,2,1]",,,,,,,,,,,,,,,,,,,,,,,,,,,,,,,,,,,,,0,0,0,0,1,,,,,,,,,,,,
,,5d97f30dbe5c0c00154995fe,2022-09-08_14h03.34.639,CGTgamblingSpanTasks,2022.2.1,Win32,59.90534955,,,,,,,,,,,,,,,,,,,,,,,,,,,,,,,,,,,,,,,,,,,,,,,,,,,,,,,,,,,,,,,,,,,,,,,,,,,,,,,,,,"[3,9,7,4,2,1]",,,,,,,,,,,,,,,,,,,,,,,,,,,,,,,,,,,,,1,0,1,0,1,,,,,,,,,,,,
,,5d97f30dbe5c0c00154995fe,2022-09-08_14h03.34.639,CGTgamblingSpanTasks,2022.2.1,Win32,59.90534955,,,,,,,,,,,,,,,,,,,,,,,,,,,,,,,,,,,,,,,,,,,,,,,,,,,,,,,,,,,,,,,,,,,,,,,,,,,,,,,,,,"[3,9,7,4,2,1]",,,,,,,,,,,,,,,,,,,,,,,,,,,,,,,,,,,,,2,0,2,0,1,,,,,,,,,,,,
,,5d97f30dbe5c0c00154995fe,2022-09-08_14h03.34.639,CGTgamblingSpanTasks,2022.2.1,Win32,59.90534955,,,,,,,,,,,,,,,,,,,,,,,,,,,,,,,,,,,,,,,,,,,,,,,,,,,,,,,,,,,,,,,,,,,,,,,,,,,,,,,,,,"[3,9,7,4,2,1]",,,,,,,,,,,,,,,,,,,,,,,,,,,,,,,,,,,,,3,0,3,0,1,,,,,,,,,,,,
,,5d97f30dbe5c0c00154995fe,2022-09-08_14h03.34.639,CGTgamblingSpanTasks,2022.2.1,Win32,59.90534955,,,,,,,,,,,,,,,,,,,,,,,,,,,,,,,,,,,,,,,,,,,,,,,,,,,,,,,,,,,,,,,,,,,,,,,,,,,,,,,,,,"[3,9,7,4,2,1]",,,,,,,,,,,,,,,,,,,,,,,,,,,,,,,,,,,,,4,0,4,0,1,,,,,,,,,,,,
,,5d97f30dbe5c0c00154995fe,2022-09-08_14h03.34.639,CGTgamblingSpanTasks,2022.2.1,Win32,59.90534955,,,,,,,,,,,,,,,,,,,,,,,,,,,,,,,,,,,,,,,,,,,,,,,,,,,,,,,,,,,,,,,,,,,,,,,,,,,,,,,,,,"[3,9,7,4,2,1]",,,,,,,,,,,,,,,,,,,,,,,,,,,,,,,,,,,,,5,0,5,0,1,,,,,,,,,,,,
,,5d97f30dbe5c0c00154995fe,2022-09-08_14h03.34.639,CGTgamblingSpanTasks,2022.2.1,Win32,59.90534955,,,,,,,,,,,,,,,,,,,,,,,,,,,,,,,,,,,,,,,,,,,,,,,,,,,,,,,,,,,,,,,1,,,,,,,,,,,,,,,,,,,,,,,,,,,,,,,,,,,,,5,,,,,,,,,,,,,,,,,,,,,,,,124793,-0.017592593,-0.424074074,1,0,0,cont_buttonBS,0,4,4,4,1
,,5d97f30dbe5c0c00154995fe,2022-09-08_14h03.34.639,CGTgamblingSpanTasks,2022.2.1,Win32,59.90534955,,,,,,,,,,,,,,,,,,,,,,,,,,,,,,,,,,,,,,,,,,,,,,,,,,,,,,,,,,,,,,,,,,,,,,,,,,,,,,,,,,"[5,2,1,7,3,4,8]",,,,,,,,,,,,,,,,,,,,,,,,,,,,,,,,,,,,,0,0,0,0,1,,,,,,,,,,,,
,,5d97f30dbe5c0c00154995fe,2022-09-08_14h03.34.639,CGTgamblingSpanTasks,2022.2.1,Win32,59.90534955,,,,,,,,,,,,,,,,,,,,,,,,,,,,,,,,,,,,,,,,,,,,,,,,,,,,,,,,,,,,,,,,,,,,,,,,,,,,,,,,,,"[5,2,1,7,3,4,8]",,,,,,,,,,,,,,,,,,,,,,,,,,,,,,,,,,,,,1,0,1,0,1,,,,,,,,,,,,
,,5d97f30dbe5c0c00154995fe,2022-09-08_14h03.34.639,CGTgamblingSpanTasks,2022.2.1,Win32,59.90534955,,,,,,,,,,,,,,,,,,,,,,,,,,,,,,,,,,,,,,,,,,,,,,,,,,,,,,,,,,,,,,,,,,,,,,,,,,,,,,,,,,"[5,2,1,7,3,4,8]",,,,,,,,,,,,,,,,,,,,,,,,,,,,,,,,,,,,,2,0,2,0,1,,,,,,,,,,,,
,,5d97f30dbe5c0c00154995fe,2022-09-08_14h03.34.639,CGTgamblingSpanTasks,2022.2.1,Win32,59.90534955,,,,,,,,,,,,,,,,,,,,,,,,,,,,,,,,,,,,,,,,,,,,,,,,,,,,,,,,,,,,,,,,,,,,,,,,,,,,,,,,,,"[5,2,1,7,3,4,8]",,,,,,,,,,,,,,,,,,,,,,,,,,,,,,,,,,,,,3,0,3,0,1,,,,,,,,,,,,
,,5d97f30dbe5c0c00154995fe,2022-09-08_14h03.34.639,CGTgamblingSpanTasks,2022.2.1,Win32,59.90534955,,,,,,,,,,,,,,,,,,,,,,,,,,,,,,,,,,,,,,,,,,,,,,,,,,,,,,,,,,,,,,,,,,,,,,,,,,,,,,,,,,"[5,2,1,7,3,4,8]",,,,,,,,,,,,,,,,,,,,,,,,,,,,,,,,,,,,,4,0,4,0,1,,,,,,,,,,,,
,,5d97f30dbe5c0c00154995fe,2022-09-08_14h03.34.639,CGTgamblingSpanTasks,2022.2.1,Win32,59.90534955,,,,,,,,,,,,,,,,,,,,,,,,,,,,,,,,,,,,,,,,,,,,,,,,,,,,,,,,,,,,,,,,,,,,,,,,,,,,,,,,,,"[5,2,1,7,3,4,8]",,,,,,,,,,,,,,,,,,,,,,,,,,,,,,,,,,,,,5,0,5,0,1,,,,,,,,,,,,
,,5d97f30dbe5c0c00154995fe,2022-09-08_14h03.34.639,CGTgamblingSpanTasks,2022.2.1,Win32,59.90534955,,,,,,,,,,,,,,,,,,,,,,,,,,,,,,,,,,,,,,,,,,,,,,,,,,,,,,,,,,,,,,,,,,,,,,,,,,,,,,,,,,"[5,2,1,7,3,4,8]",,,,,,,,,,,,,,,,,,,,,,,,,,,,,,,,,,,,,6,0,6,0,1,,,,,,,,,,,,
,,5d97f30dbe5c0c00154995fe,2022-09-08_14h03.34.639,CGTgamblingSpanTasks,2022.2.1,Win32,59.90534955,,,,,,,,,,,,,,,,,,,,,,,,,,,,,,,,,,,,,,,,,,,,,,,,,,,,,,,,,,,,,,,1,,,,,,,,,,,,,,,,,,,,,,,,,,,,,,,,,,,,,6,,,,,,,,,,,,,,,,,,,,,,,,8437125,0.007407407,-0.407407407,1,0,0,cont_buttonBS,0,5,5,5,1
,,5d97f30dbe5c0c00154995fe,2022-09-08_14h03.34.639,CGTgamblingSpanTasks,2022.2.1,Win32,59.90534955,,,,,,,,,,,,,,,,,,,,,,,,,,,,,,,,,,,,,,,,,,,,,,,,,,,,,,,,,,,,,,,,,,,,,,,,,,,,,,,,,,"[1,4,7,2,8,3,6,5]",,,,,,,,,,,,,,,,,,,,,,,,,,,,,,,,,,,,,0,0,0,0,1,,,,,,,,,,,,
,,5d97f30dbe5c0c00154995fe,2022-09-08_14h03.34.639,CGTgamblingSpanTasks,2022.2.1,Win32,59.90534955,,,,,,,,,,,,,,,,,,,,,,,,,,,,,,,,,,,,,,,,,,,,,,,,,,,,,,,,,,,,,,,,,,,,,,,,,,,,,,,,,,"[1,4,7,2,8,3,6,5]",,,,,,,,,,,,,,,,,,,,,,,,,,,,,,,,,,,,,1,0,1,0,1,,,,,,,,,,,,
,,5d97f30dbe5c0c00154995fe,2022-09-08_14h03.34.639,CGTgamblingSpanTasks,2022.2.1,Win32,59.90534955,,,,,,,,,,,,,,,,,,,,,,,,,,,,,,,,,,,,,,,,,,,,,,,,,,,,,,,,,,,,,,,,,,,,,,,,,,,,,,,,,,"[1,4,7,2,8,3,6,5]",,,,,,,,,,,,,,,,,,,,,,,,,,,,,,,,,,,,,2,0,2,0,1,,,,,,,,,,,,
,,5d97f30dbe5c0c00154995fe,2022-09-08_14h03.34.639,CGTgamblingSpanTasks,2022.2.1,Win32,59.90534955,,,,,,,,,,,,,,,,,,,,,,,,,,,,,,,,,,,,,,,,,,,,,,,,,,,,,,,,,,,,,,,,,,,,,,,,,,,,,,,,,,"[1,4,7,2,8,3,6,5]",,,,,,,,,,,,,,,,,,,,,,,,,,,,,,,,,,,,,3,0,3,0,1,,,,,,,,,,,,
,,5d97f30dbe5c0c00154995fe,2022-09-08_14h03.34.639,CGTgamblingSpanTasks,2022.2.1,Win32,59.90534955,,,,,,,,,,,,,,,,,,,,,,,,,,,,,,,,,,,,,,,,,,,,,,,,,,,,,,,,,,,,,,,,,,,,,,,,,,,,,,,,,,"[1,4,7,2,8,3,6,5]",,,,,,,,,,,,,,,,,,,,,,,,,,,,,,,,,,,,,4,0,4,0,1,,,,,,,,,,,,
,,5d97f30dbe5c0c00154995fe,2022-09-08_14h03.34.639,CGTgamblingSpanTasks,2022.2.1,Win32,59.90534955,,,,,,,,,,,,,,,,,,,,,,,,,,,,,,,,,,,,,,,,,,,,,,,,,,,,,,,,,,,,,,,,,,,,,,,,,,,,,,,,,,"[1,4,7,2,8,3,6,5]",,,,,,,,,,,,,,,,,,,,,,,,,,,,,,,,,,,,,5,0,5,0,1,,,,,,,,,,,,
,,5d97f30dbe5c0c00154995fe,2022-09-08_14h03.34.639,CGTgamblingSpanTasks,2022.2.1,Win32,59.90534955,,,,,,,,,,,,,,,,,,,,,,,,,,,,,,,,,,,,,,,,,,,,,,,,,,,,,,,,,,,,,,,,,,,,,,,,,,,,,,,,,,"[1,4,7,2,8,3,6,5]",,,,,,,,,,,,,,,,,,,,,,,,,,,,,,,,,,,,,6,0,6,0,1,,,,,,,,,,,,
,,5d97f30dbe5c0c00154995fe,2022-09-08_14h03.34.639,CGTgamblingSpanTasks,2022.2.1,Win32,59.90534955,,,,,,,,,,,,,,,,,,,,,,,,,,,,,,,,,,,,,,,,,,,,,,,,,,,,,,,,,,,,,,,,,,,,,,,,,,,,,,,,,,"[1,4,7,2,8,3,6,5]",,,,,,,,,,,,,,,,,,,,,,,,,,,,,,,,,,,,,7,0,7,0,1,,,,,,,,,,,,
,,5d97f30dbe5c0c00154995fe,2022-09-08_14h03.34.639,CGTgamblingSpanTasks,2022.2.1,Win32,59.90534955,,,,,,,,,,,,,,,,,,,,,,,,,,,,,,,,,,,,,,,,,,,,,,,,,,,,,,,,,,,,,,,0,,,,,,,,,,,,,,,,,,,,,,,,,,,,,,,,,,,,,7,,,,,,,,,,,,,,,,,,,,,,,,563827431,-0.003703704,-0.408333333,1,0,0,cont_buttonBS,0,6,6,6,1
,,5d97f30dbe5c0c00154995fe,2022-09-08_14h03.34.639,CGTgamblingSpanTasks,2022.2.1,Win32,59.90534955,,,,,,,,,,,,,,,,,,,,,,,,,,,,,,,,,,,,,,,,,,,,,,,,,,,,,,,,,,,,,,,,,,,,,,,,,,,,,,,,,,"[1,7,5,9,6,8,2,3]",,,,,,,,,,,,,,,,,,,,,,,,,,,,,,,,,,,,,0,0,0,0,1,,,,,,,,,,,,
,,5d97f30dbe5c0c00154995fe,2022-09-08_14h03.34.639,CGTgamblingSpanTasks,2022.2.1,Win32,59.90534955,,,,,,,,,,,,,,,,,,,,,,,,,,,,,,,,,,,,,,,,,,,,,,,,,,,,,,,,,,,,,,,,,,,,,,,,,,,,,,,,,,"[1,7,5,9,6,8,2,3]",,,,,,,,,,,,,,,,,,,,,,,,,,,,,,,,,,,,,1,0,1,0,1,,,,,,,,,,,,
,,5d97f30dbe5c0c00154995fe,2022-09-08_14h03.34.639,CGTgamblingSpanTasks,2022.2.1,Win32,59.90534955,,,,,,,,,,,,,,,,,,,,,,,,,,,,,,,,,,,,,,,,,,,,,,,,,,,,,,,,,,,,,,,,,,,,,,,,,,,,,,,,,,"[1,7,5,9,6,8,2,3]",,,,,,,,,,,,,,,,,,,,,,,,,,,,,,,,,,,,,2,0,2,0,1,,,,,,,,,,,,
,,5d97f30dbe5c0c00154995fe,2022-09-08_14h03.34.639,CGTgamblingSpanTasks,2022.2.1,Win32,59.90534955,,,,,,,,,,,,,,,,,,,,,,,,,,,,,,,,,,,,,,,,,,,,,,,,,,,,,,,,,,,,,,,,,,,,,,,,,,,,,,,,,,"[1,7,5,9,6,8,2,3]",,,,,,,,,,,,,,,,,,,,,,,,,,,,,,,,,,,,,3,0,3,0,1,,,,,,,,,,,,
,,5d97f30dbe5c0c00154995fe,2022-09-08_14h03.34.639,CGTgamblingSpanTasks,2022.2.1,Win32,59.90534955,,,,,,,,,,,,,,,,,,,,,,,,,,,,,,,,,,,,,,,,,,,,,,,,,,,,,,,,,,,,,,,,,,,,,,,,,,,,,,,,,,"[1,7,5,9,6,8,2,3]",,,,,,,,,,,,,,,,,,,,,,,,,,,,,,,,,,,,,4,0,4,0,1,,,,,,,,,,,,
,,5d97f30dbe5c0c00154995fe,2022-09-08_14h03.34.639,CGTgamblingSpanTasks,2022.2.1,Win32,59.90534955,,,,,,,,,,,,,,,,,,,,,,,,,,,,,,,,,,,,,,,,,,,,,,,,,,,,,,,,,,,,,,,,,,,,,,,,,,,,,,,,,,"[1,7,5,9,6,8,2,3]",,,,,,,,,,,,,,,,,,,,,,,,,,,,,,,,,,,,,5,0,5,0,1,,,,,,,,,,,,
,,5d97f30dbe5c0c00154995fe,2022-09-08_14h03.34.639,CGTgamblingSpanTasks,2022.2.1,Win32,59.90534955,,,,,,,,,,,,,,,,,,,,,,,,,,,,,,,,,,,,,,,,,,,,,,,,,,,,,,,,,,,,,,,,,,,,,,,,,,,,,,,,,,"[1,7,5,9,6,8,2,3]",,,,,,,,,,,,,,,,,,,,,,,,,,,,,,,,,,,,,6,0,6,0,1,,,,,,,,,,,,
,,5d97f30dbe5c0c00154995fe,2022-09-08_14h03.34.639,CGTgamblingSpanTasks,2022.2.1,Win32,59.90534955,,,,,,,,,,,,,,,,,,,,,,,,,,,,,,,,,,,,,,,,,,,,,,,,,,,,,,,,,,,,,,,,,,,,,,,,,,,,,,,,,,"[1,7,5,9,6,8,2,3]",,,,,,,,,,,,,,,,,,,,,,,,,,,,,,,,,,,,,7,0,7,0,1,,,,,,,,,,,,
