initITIstatic,initITIdynamic,participant,date,expName,psychopyVersion,OS,frameRate,inst1.keys,inst1.rt,startPracResp.keys,startPracResp.rt,choice1.keys,choice1.rt,outcome,extraITI,trials.thisRepN,trials.thisTrialN,trials.thisN,trials.thisIndex,trials.ran,riskyGain,riskyLoss,alternative,isi,iti,loc,postPractResp.keys,postPractResp.rt,realloc,realChoice.keys,realChoice.rt,outcomes,choices,actualITI,init ITI,staticRDM.thisRepN,staticRDM.thisTrialN,staticRDM.thisN,staticRDM.thisIndex,staticRDM.ran,riskyoption1,riskyoption2,safeoption,ischecktrial,dynamicChoiceSetName,dynamicChoiceSetPath,bestRho,bestMu,trials_2.thisRepN,trials_2.thisTrialN,trials_2.thisN,trials_2.thisIndex,trials_2.ran,key_resp.keys,key_resp.rt,dynamicRDM.thisRepN,dynamicRDM.thisTrialN,dynamicRDM.thisN,dynamicRDM.thisIndex,dynamicRDM.ran,choiceP,easy0difficult1,stopBreak.keys,stopBreak.rt,movealong.keys,movealong.rt,startPractice.keys,startPractice.rt,textboxPractice.text,correct,mousePractice.x,mousePractice.y,mousePractice.leftButton,mousePractice.midButton,mousePractice.rightButton,mousePractice.clicked_name,trialFSPractice.thisRepN,trialFSPractice.thisTrialN,trialFSPractice.thisN,trialFSPractice.thisIndex,trialFSPractice.ran,digitSpanForward,digits,digitsReverse,digitSpanReverse,digitsReverseCorrAnswer,startFSreal.keys,startFSreal.rt,digitsForTrial,digitLoop.thisRepN,digitLoop.thisTrialN,digitLoop.thisN,digitLoop.thisIndex,digitLoop.ran,textbox.text,mouse_3.x,mouse_3.y,mouse_3.leftButton,mouse_3.midButton,mouse_3.rightButton,mouse_3.clicked_name,trialsFS.thisRepN,trialsFS.thisTrialN,trialsFS.thisN,trialsFS.thisIndex,trialsFS.ran,trialNumber,moveToBS.keys,moveToBS.rt,startBSprac.keys,startBSprac.rt,textboxPractice_2.text,mousePractice_2.x,mousePractice_2.y,mousePractice_2.leftButton,mousePractice_2.midButton,mousePractice_2.rightButton,mousePractice_2.clicked_name,trialsPracticeBS.thisRepN,trialsPracticeBS.thisTrialN,trialsPracticeBS.thisN,trialsPracticeBS.thisIndex,trialsPracticeBS.ran,startBSreal.keys,startBSreal.rt,digitLoopBS.thisRepN,digitLoopBS.thisTrialN,digitLoopBS.thisN,digitLoopBS.thisIndex,digitLoopBS.ran,textboxBS.text,mouseBS.x,mouseBS.y,mouseBS.leftButton,mouseBS.midButton,mouseBS.rightButton,mouseBS.clicked_name,trialsBS.thisRepN,trialsBS.thisTrialN,trialsBS.thisN,trialsBS.thisIndex,trialsBS.ran
"[1.5,1.5,1,1.5,1,1,1,1.5,1,1.5,1.5,1,1,1,1,1,1,1,1,1,1.5,1.5,1,1,1.5,1.5,1.5,1.5,1,1.5,1.5,1,1.5,1.5,1.5,1,1.5,1.5,1.5,1.5,1.5,1.5,1,1.5,1,1.5,1,1,1,1]","[1.5,1.5,1,1,1,1.5,1,1.5,1.5,1.5,1,1,1,1,1,1,1.5,1.5,1,1.5,1,1,1,1,1,1,1,1,1,1.5,1,1.5,1,1.5,1.5,1.5,1,1,1,1.5,1,1.5,1.5,1.5,1.5,1,1.5,1.5,1.5,1,1.5,1.5,1.5,1,1,1.5,1.5,1,1,1.5,1,1.5,1.5,1,1.5,1,1.5,1,1.5,1.5,1.5,1,1.5,1.5,1.5,1,1.5,1.5,1,1.5,1.5,1.5,1.5,1.5,1,1.5,1,1.5,1.5,1.5,1,1,1,1,1.5,1.5,1,1,1.5,1,1.5,1,1,1.5,1.5,1,1.5,1,1,1.5,1,1,1.5,1.5,1,1,1,1.5,1,1]",5de0b69ba91be311cb773b0b,2022-09-08_09h56.12.123,CGTgamblingSpanTasks,2022.2.1,Win32,59.09816205,,,,,,,,,,,,,,,,,,,,,,,,,,,,,,,,,,,,,,,,,,,,,,,,,,,,,,,,,,,,,,,,,,,,,,,,,,,,,,,,,,,,,,,,,,,,,,,,,,,,,,,,,,,,,,,,,,,,,,,,,,,,,,,,,,,,,,,
,,5de0b69ba91be311cb773b0b,2022-09-08_09h56.12.123,CGTgamblingSpanTasks,2022.2.1,Win32,59.09816205,return,5.434,,,,,,,,,,,,,,,,,,,,,,,,,,,,,,,,,,,,,,,,,,,,,,,,,,,,,,,,,,,,,,,,,,,,,,,,,,,,,,,,,,,,,,,,,,,,,,,,,,,,,,,,,,,,,,,,,,,,,,,,,,,,,,,,,,,,,
,,5de0b69ba91be311cb773b0b,2022-09-08_09h56.12.123,CGTgamblingSpanTasks,2022.2.1,Win32,59.09816205,,,v,0.4162,,,,,,,,,,,,,,,,,,,,,,,,,,,,,,,,,,,,,,,,,,,,,,,,,,,,,,,,,,,,,,,,,,,,,,,,,,,,,,,,,,,,,,,,,,,,,,,,,,,,,,,,,,,,,,,,,,,,,,,,,,,,,,,,,,,
,,5de0b69ba91be311cb773b0b,2022-09-08_09h56.12.123,CGTgamblingSpanTasks,2022.2.1,Win32,59.09816205,,,,,n,1.4663,9.45,2.5337,0,0,0,0,1,18.23,0,9.45,2,1,1,,,,,,,,,,,,,,,,,,,,,,,,,,,,,,,,,,,,,,,,,,,,,,,,,,,,,,,,,,,,,,,,,,,,,,,,,,,,,,,,,,,,,,,,,,,,,,,,,,,,,,,,,,,,,,,,,,,,
,,5de0b69ba91be311cb773b0b,2022-09-08_09h56.12.123,CGTgamblingSpanTasks,2022.2.1,Win32,59.09816205,,,,,n,1.3801,35.16,2.6199,0,1,1,1,1,53.27,0,35.16,1,1.5,1,,,,,,,,,,,,,,,,,,,,,,,,,,,,,,,,,,,,,,,,,,,,,,,,,,,,,,,,,,,,,,,,,,,,,,,,,,,,,,,,,,,,,,,,,,,,,,,,,,,,,,,,,,,,,,,,,,,,
,,5de0b69ba91be311cb773b0b,2022-09-08_09h56.12.123,CGTgamblingSpanTasks,2022.2.1,Win32,59.09816205,,,,,n,1.4084,8.27,2.5916,0,2,2,2,1,8.27,0,1.15,1,1.5,2,,,,,,,,,,,,,,,,,,,,,,,,,,,,,,,,,,,,,,,,,,,,,,,,,,,,,,,,,,,,,,,,,,,,,,,,,,,,,,,,,,,,,,,,,,,,,,,,,,,,,,,,,,,,,,,,,,,,
,,5de0b69ba91be311cb773b0b,2022-09-08_09h56.12.123,CGTgamblingSpanTasks,2022.2.1,Win32,59.09816205,,,,,n,1.2074,40.41,2.7926,0,3,3,3,1,45.88,0,40.41,3,1,1,,,,,,,,,,,,,,,,,,,,,,,,,,,,,,,,,,,,,,,,,,,,,,,,,,,,,,,,,,,,,,,,,,,,,,,,,,,,,,,,,,,,,,,,,,,,,,,,,,,,,,,,,,,,,,,,,,,,
,,5de0b69ba91be311cb773b0b,2022-09-08_09h56.12.123,CGTgamblingSpanTasks,2022.2.1,Win32,59.09816205,,,,,v,1.4432,11.96,2.5568,0,4,4,4,1,21.56,0,11.96,1,1.5,2,,,,,,,,,,,,,,,,,,,,,,,,,,,,,,,,,,,,,,,,,,,,,,,,,,,,,,,,,,,,,,,,,,,,,,,,,,,,,,,,,,,,,,,,,,,,,,,,,,,,,,,,,,,,,,,,,,,,
,,5de0b69ba91be311cb773b0b,2022-09-08_09h56.12.123,CGTgamblingSpanTasks,2022.2.1,Win32,59.09816205,,,,,,,,,,,,,,,,,,,,v,1.5905,,,,,,,,,,,,,,,,,,,,,,,,,,,,,,,,,,,,,,,,,,,,,,,,,,,,,,,,,,,,,,,,,,,,,,,,,,,,,,,,,,,,,,,,,,,,,,,,,,,,,,,,,,,,,,,,,,
,,5de0b69ba91be311cb773b0b,2022-09-08_09h56.12.123,CGTgamblingSpanTasks,2022.2.1,Win32,59.09816205,,,,,,,,2.6851,,,,,,,,,,,,,,1,n,1.3149,6.19,0,4.1851,1.5,0,0,0,22,1,11.62,0,6.19,0,,,,,,,,,,,,,,,,,,,,,,,,,,,,,,,,,,,,,,,,,,,,,,,,,,,,,,,,,,,,,,,,,,,,,,,,,,,,,,,,,,,,,,,,,,,,,,,,,,
,,5de0b69ba91be311cb773b0b,2022-09-08_09h56.12.123,CGTgamblingSpanTasks,2022.2.1,Win32,59.09816205,,,,,,,,2.2858,,,,,,,,,,,,,,1,v,1.7142,0,1,3.7858,1.5,0,1,1,42,1,19.86,0,0,1,,,,,,,,,,,,,,,,,,,,,,,,,,,,,,,,,,,,,,,,,,,,,,,,,,,,,,,,,,,,,,,,,,,,,,,,,,,,,,,,,,,,,,,,,,,,,,,,,,
,,5de0b69ba91be311cb773b0b,2022-09-08_09h56.12.123,CGTgamblingSpanTasks,2022.2.1,Win32,59.09816205,,,,,,,,2.6258,,,,,,,,,,,,,,2,n,1.3742,21.32,1,3.6258,1,0,2,2,7,1,21.32,0,7.34,0,,,,,,,,,,,,,,,,,,,,,,,,,,,,,,,,,,,,,,,,,,,,,,,,,,,,,,,,,,,,,,,,,,,,,,,,,,,,,,,,,,,,,,,,,,,,,,,,,,
,,5de0b69ba91be311cb773b0b,2022-09-08_09h56.12.123,CGTgamblingSpanTasks,2022.2.1,Win32,59.09816205,,,,,,,,2.8689,,,,,,,,,,,,,,1,n,1.1311,6.53,0,4.3689,1.5,0,3,3,28,1,10.95,0,6.53,0,,,,,,,,,,,,,,,,,,,,,,,,,,,,,,,,,,,,,,,,,,,,,,,,,,,,,,,,,,,,,,,,,,,,,,,,,,,,,,,,,,,,,,,,,,,,,,,,,,
,,5de0b69ba91be311cb773b0b,2022-09-08_09h56.12.123,CGTgamblingSpanTasks,2022.2.1,Win32,59.09816205,,,,,,,,3.043,,,,,,,,,,,,,,1,n,0.957,9.92,0,4.043,1,0,4,4,49,1,6.79,0,9.92,1,,,,,,,,,,,,,,,,,,,,,,,,,,,,,,,,,,,,,,,,,,,,,,,,,,,,,,,,,,,,,,,,,,,,,,,,,,,,,,,,,,,,,,,,,,,,,,,,,,
,,5de0b69ba91be311cb773b0b,2022-09-08_09h56.12.123,CGTgamblingSpanTasks,2022.2.1,Win32,59.09816205,,,,,,,,3.0573,,,,,,,,,,,,,,1,n,0.9427,10.25,0,4.0573,1,0,5,5,46,1,0,0,10.25,1,,,,,,,,,,,,,,,,,,,,,,,,,,,,,,,,,,,,,,,,,,,,,,,,,,,,,,,,,,,,,,,,,,,,,,,,,,,,,,,,,,,,,,,,,,,,,,,,,,
,,5de0b69ba91be311cb773b0b,2022-09-08_09h56.12.123,CGTgamblingSpanTasks,2022.2.1,Win32,59.09816205,,,,,,,,2.7179,,,,,,,,,,,,,,2,v,1.2821,8.84,0,3.7179,1,0,6,6,17,1,18.33,0,8.84,0,,,,,,,,,,,,,,,,,,,,,,,,,,,,,,,,,,,,,,,,,,,,,,,,,,,,,,,,,,,,,,,,,,,,,,,,,,,,,,,,,,,,,,,,,,,,,,,,,,
,,5de0b69ba91be311cb773b0b,2022-09-08_09h56.12.123,CGTgamblingSpanTasks,2022.2.1,Win32,59.09816205,,,,,,,,3.0069,,,,,,,,,,,,,,1,v,0.9931,10.35,1,4.5069,1.5,0,7,7,40,1,10.35,0,0,1,,,,,,,,,,,,,,,,,,,,,,,,,,,,,,,,,,,,,,,,,,,,,,,,,,,,,,,,,,,,,,,,,,,,,,,,,,,,,,,,,,,,,,,,,,,,,,,,,,
,,5de0b69ba91be311cb773b0b,2022-09-08_09h56.12.123,CGTgamblingSpanTasks,2022.2.1,Win32,59.09816205,,,,,,,,2.8896,,,,,,,,,,,,,,1,v,1.1104,7.73,1,3.8896,1,0,8,8,44,1,13.1,7.73,4.68,1,,,,,,,,,,,,,,,,,,,,,,,,,,,,,,,,,,,,,,,,,,,,,,,,,,,,,,,,,,,,,,,,,,,,,,,,,,,,,,,,,,,,,,,,,,,,,,,,,,
,,5de0b69ba91be311cb773b0b,2022-09-08_09h56.12.123,CGTgamblingSpanTasks,2022.2.1,Win32,59.09816205,,,,,,,,2.886,,,,,,,,,,,,,,2,v,1.114,9.87,0,4.386,1.5,0,9,9,29,1,16.26,0,9.87,0,,,,,,,,,,,,,,,,,,,,,,,,,,,,,,,,,,,,,,,,,,,,,,,,,,,,,,,,,,,,,,,,,,,,,,,,,,,,,,,,,,,,,,,,,,,,,,,,,,
,,5de0b69ba91be311cb773b0b,2022-09-08_09h56.12.123,CGTgamblingSpanTasks,2022.2.1,Win32,59.09816205,,,,,,,,2.7827,,,,,,,,,,,,,,1,n,1.2173,10.02,0,4.2827,1.5,0,10,10,31,1,15.96,0,10.02,0,,,,,,,,,,,,,,,,,,,,,,,,,,,,,,,,,,,,,,,,,,,,,,,,,,,,,,,,,,,,,,,,,,,,,,,,,,,,,,,,,,,,,,,,,,,,,,,,,,
,,5de0b69ba91be311cb773b0b,2022-09-08_09h56.12.123,CGTgamblingSpanTasks,2022.2.1,Win32,59.09816205,,,,,,,,2.9255,,,,,,,,,,,,,,2,n,1.0745,0,1,3.9255,1,0,11,11,2,1,17.73,0,3.13,0,,,,,,,,,,,,,,,,,,,,,,,,,,,,,,,,,,,,,,,,,,,,,,,,,,,,,,,,,,,,,,,,,,,,,,,,,,,,,,,,,,,,,,,,,,,,,,,,,,
,,5de0b69ba91be311cb773b0b,2022-09-08_09h56.12.123,CGTgamblingSpanTasks,2022.2.1,Win32,59.09816205,,,,,,,,2.9761,,,,,,,,,,,,,,2,v,1.0239,6.88,0,3.9761,1,0,12,12,36,1,10.24,0,6.88,0,,,,,,,,,,,,,,,,,,,,,,,,,,,,,,,,,,,,,,,,,,,,,,,,,,,,,,,,,,,,,,,,,,,,,,,,,,,,,,,,,,,,,,,,,,,,,,,,,,
,,5de0b69ba91be311cb773b0b,2022-09-08_09h56.12.123,CGTgamblingSpanTasks,2022.2.1,Win32,59.09816205,,,,,,,,2.7995,,,,,,,,,,,,,,2,n,1.2005,0,1,3.7995,1,0,13,13,1,1,28.21,0,3.89,0,,,,,,,,,,,,,,,,,,,,,,,,,,,,,,,,,,,,,,,,,,,,,,,,,,,,,,,,,,,,,,,,,,,,,,,,,,,,,,,,,,,,,,,,,,,,,,,,,,
,,5de0b69ba91be311cb773b0b,2022-09-08_09h56.12.123,CGTgamblingSpanTasks,2022.2.1,Win32,59.09816205,,,,,,,,2.8027,,,,,,,,,,,,,,2,v,1.1973,9.7,0,3.8027,1,0,14,14,27,1,16.6,0,9.7,0,,,,,,,,,,,,,,,,,,,,,,,,,,,,,,,,,,,,,,,,,,,,,,,,,,,,,,,,,,,,,,,,,,,,,,,,,,,,,,,,,,,,,,,,,,,,,,,,,,
,,5de0b69ba91be311cb773b0b,2022-09-08_09h56.12.123,CGTgamblingSpanTasks,2022.2.1,Win32,59.09816205,,,,,,,,2.9695,,,,,,,,,,,,,,1,v,1.0305,14.72,1,3.9695,1,0,15,15,6,1,14.72,0,4.64,0,,,,,,,,,,,,,,,,,,,,,,,,,,,,,,,,,,,,,,,,,,,,,,,,,,,,,,,,,,,,,,,,,,,,,,,,,,,,,,,,,,,,,,,,,,,,,,,,,,
,,5de0b69ba91be311cb773b0b,2022-09-08_09h56.12.123,CGTgamblingSpanTasks,2022.2.1,Win32,59.09816205,,,,,,,,2.7782,,,,,,,,,,,,,,1,n,1.2218,6.4,0,3.7782,1,0,16,16,26,1,11.2,0,6.4,0,,,,,,,,,,,,,,,,,,,,,,,,,,,,,,,,,,,,,,,,,,,,,,,,,,,,,,,,,,,,,,,,,,,,,,,,,,,,,,,,,,,,,,,,,,,,,,,,,,
,,5de0b69ba91be311cb773b0b,2022-09-08_09h56.12.123,CGTgamblingSpanTasks,2022.2.1,Win32,59.09816205,,,,,,,,3.0748,,,,,,,,,,,,,,1,n,0.9252,7.55,0,4.0748,1,0,17,17,45,1,0,0,7.55,1,,,,,,,,,,,,,,,,,,,,,,,,,,,,,,,,,,,,,,,,,,,,,,,,,,,,,,,,,,,,,,,,,,,,,,,,,,,,,,,,,,,,,,,,,,,,,,,,,,
,,5de0b69ba91be311cb773b0b,2022-09-08_09h56.12.123,CGTgamblingSpanTasks,2022.2.1,Win32,59.09816205,,,,,,,,2.9423,,,,,,,,,,,,,,1,v,1.0577,15.09,1,3.9423,1,0,18,18,39,1,15.09,0,10.46,0,,,,,,,,,,,,,,,,,,,,,,,,,,,,,,,,,,,,,,,,,,,,,,,,,,,,,,,,,,,,,,,,,,,,,,,,,,,,,,,,,,,,,,,,,,,,,,,,,,
,,5de0b69ba91be311cb773b0b,2022-09-08_09h56.12.123,CGTgamblingSpanTasks,2022.2.1,Win32,59.09816205,,,,,,,,3.0772,,,,,,,,,,,,,,1,n,0.9228,6.08,0,4.0772,1,0,19,19,20,1,11.84,0,6.08,0,,,,,,,,,,,,,,,,,,,,,,,,,,,,,,,,,,,,,,,,,,,,,,,,,,,,,,,,,,,,,,,,,,,,,,,,,,,,,,,,,,,,,,,,,,,,,,,,,,
,,5de0b69ba91be311cb773b0b,2022-09-08_09h56.12.123,CGTgamblingSpanTasks,2022.2.1,Win32,59.09816205,,,,,,,,2.4855,,,,,,,,,,,,,,2,v,1.5145,5.82,0,3.9855,1.5,0,20,20,16,1,12.36,0,5.82,0,,,,,,,,,,,,,,,,,,,,,,,,,,,,,,,,,,,,,,,,,,,,,,,,,,,,,,,,,,,,,,,,,,,,,,,,,,,,,,,,,,,,,,,,,,,,,,,,,,
,,5de0b69ba91be311cb773b0b,2022-09-08_09h56.12.123,CGTgamblingSpanTasks,2022.2.1,Win32,59.09816205,,,,,,,,2.773,,,,,,,,,,,,,,2,v,1.227,10.37,0,4.273,1.5,0,21,21,37,1,15.27,0,10.37,0,,,,,,,,,,,,,,,,,,,,,,,,,,,,,,,,,,,,,,,,,,,,,,,,,,,,,,,,,,,,,,,,,,,,,,,,,,,,,,,,,,,,,,,,,,,,,,,,,,
,,5de0b69ba91be311cb773b0b,2022-09-08_09h56.12.123,CGTgamblingSpanTasks,2022.2.1,Win32,59.09816205,,,,,,,,2.9025,,,,,,,,,,,,,,1,n,1.0975,9.03,0,3.9025,1,0,22,22,19,1,17.94,0,9.03,0,,,,,,,,,,,,,,,,,,,,,,,,,,,,,,,,,,,,,,,,,,,,,,,,,,,,,,,,,,,,,,,,,,,,,,,,,,,,,,,,,,,,,,,,,,,,,,,,,,
,,5de0b69ba91be311cb773b0b,2022-09-08_09h56.12.123,CGTgamblingSpanTasks,2022.2.1,Win32,59.09816205,,,,,,,,2.614,,,,,,,,,,,,,,1,v,1.386,6.99,1,3.614,1,0,23,23,43,1,16.11,6.99,6.99,1,,,,,,,,,,,,,,,,,,,,,,,,,,,,,,,,,,,,,,,,,,,,,,,,,,,,,,,,,,,,,,,,,,,,,,,,,,,,,,,,,,,,,,,,,,,,,,,,,,
,,5de0b69ba91be311cb773b0b,2022-09-08_09h56.12.123,CGTgamblingSpanTasks,2022.2.1,Win32,59.09816205,,,,,,,,2.9706,,,,,,,,,,,,,,1,v,1.0294,0,1,4.4706,1.5,0,24,24,41,1,14.26,0,0,1,,,,,,,,,,,,,,,,,,,,,,,,,,,,,,,,,,,,,,,,,,,,,,,,,,,,,,,,,,,,,,,,,,,,,,,,,,,,,,,,,,,,,,,,,,,,,,,,,,
,,5de0b69ba91be311cb773b0b,2022-09-08_09h56.12.123,CGTgamblingSpanTasks,2022.2.1,Win32,59.09816205,,,,,,,,2.7964,,,,,,,,,,,,,,1,n,1.2036,10.27,0,4.2964,1.5,0,25,25,35,1,15.47,0,10.27,0,,,,,,,,,,,,,,,,,,,,,,,,,,,,,,,,,,,,,,,,,,,,,,,,,,,,,,,,,,,,,,,,,,,,,,,,,,,,,,,,,,,,,,,,,,,,,,,,,,
,,5de0b69ba91be311cb773b0b,2022-09-08_09h56.12.123,CGTgamblingSpanTasks,2022.2.1,Win32,59.09816205,,,,,,,,3.2417,,,,,,,,,,,,,,1,v,0.7583,20.53,1,4.7417,1.5,0,26,26,9,1,20.53,0,7.73,0,,,,,,,,,,,,,,,,,,,,,,,,,,,,,,,,,,,,,,,,,,,,,,,,,,,,,,,,,,,,,,,,,,,,,,,,,,,,,,,,,,,,,,,,,,,,,,,,,,
,,5de0b69ba91be311cb773b0b,2022-09-08_09h56.12.123,CGTgamblingSpanTasks,2022.2.1,Win32,59.09816205,,,,,,,,2.78,,,,,,,,,,,,,,1,v,1.22,19.86,1,4.28,1.5,0,27,27,11,1,19.86,0,8.07,0,,,,,,,,,,,,,,,,,,,,,,,,,,,,,,,,,,,,,,,,,,,,,,,,,,,,,,,,,,,,,,,,,,,,,,,,,,,,,,,,,,,,,,,,,,,,,,,,,,
,,5de0b69ba91be311cb773b0b,2022-09-08_09h56.12.123,CGTgamblingSpanTasks,2022.2.1,Win32,59.09816205,,,,,,,,2.7774,,,,,,,,,,,,,,2,v,1.2226,9.36,0,3.7774,1,0,28,28,23,1,17.28,0,9.36,0,,,,,,,,,,,,,,,,,,,,,,,,,,,,,,,,,,,,,,,,,,,,,,,,,,,,,,,,,,,,,,,,,,,,,,,,,,,,,,,,,,,,,,,,,,,,,,,,,,
,,5de0b69ba91be311cb773b0b,2022-09-08_09h56.12.123,CGTgamblingSpanTasks,2022.2.1,Win32,59.09816205,,,,,,,,3.0689,,,,,,,,,,,,,,2,v,0.9311,6.81,0,4.5689,1.5,0,29,29,34,1,10.39,0,6.81,0,,,,,,,,,,,,,,,,,,,,,,,,,,,,,,,,,,,,,,,,,,,,,,,,,,,,,,,,,,,,,,,,,,,,,,,,,,,,,,,,,,,,,,,,,,,,,,,,,,
,,5de0b69ba91be311cb773b0b,2022-09-08_09h56.12.123,CGTgamblingSpanTasks,2022.2.1,Win32,59.09816205,,,,,,,,2.8703,,,,,,,,,,,,,,1,v,1.1297,0,1,4.3703,1.5,0,30,30,24,1,11.43,0,6.29,0,,,,,,,,,,,,,,,,,,,,,,,,,,,,,,,,,,,,,,,,,,,,,,,,,,,,,,,,,,,,,,,,,,,,,,,,,,,,,,,,,,,,,,,,,,,,,,,,,,
,,5de0b69ba91be311cb773b0b,2022-09-08_09h56.12.123,CGTgamblingSpanTasks,2022.2.1,Win32,59.09816205,,,,,,,,2.3671,,,,,,,,,,,,,,2,n,1.6329,12.08,1,3.3671,1,0,31,31,18,1,12.08,0,5.96,0,,,,,,,,,,,,,,,,,,,,,,,,,,,,,,,,,,,,,,,,,,,,,,,,,,,,,,,,,,,,,,,,,,,,,,,,,,,,,,,,,,,,,,,,,,,,,,,,,,
,,5de0b69ba91be311cb773b0b,2022-09-08_09h56.12.123,CGTgamblingSpanTasks,2022.2.1,Win32,59.09816205,,,,,,,,2.6772,,,,,,,,,,,,,,1,v,1.3228,25.2,1,4.1772,1.5,0,32,32,3,1,25.2,0,5.4,0,,,,,,,,,,,,,,,,,,,,,,,,,,,,,,,,,,,,,,,,,,,,,,,,,,,,,,,,,,,,,,,,,,,,,,,,,,,,,,,,,,,,,,,,,,,,,,,,,,
,,5de0b69ba91be311cb773b0b,2022-09-08_09h56.12.123,CGTgamblingSpanTasks,2022.2.1,Win32,59.09816205,,,,,,,,2.3847,,,,,,,,,,,,,,2,v,1.6153,5.03,0,3.8847,1.5,0,33,33,8,1,13.94,0,5.03,0,,,,,,,,,,,,,,,,,,,,,,,,,,,,,,,,,,,,,,,,,,,,,,,,,,,,,,,,,,,,,,,,,,,,,,,,,,,,,,,,,,,,,,,,,,,,,,,,,,
,,5de0b69ba91be311cb773b0b,2022-09-08_09h56.12.123,CGTgamblingSpanTasks,2022.2.1,Win32,59.09816205,,,,,,,,2.4283,,,,,,,,,,,,,,1,n,1.5717,10.15,0,3.9283,1.5,0,34,34,33,1,15.7,0,10.15,0,,,,,,,,,,,,,,,,,,,,,,,,,,,,,,,,,,,,,,,,,,,,,,,,,,,,,,,,,,,,,,,,,,,,,,,,,,,,,,,,,,,,,,,,,,,,,,,,,,
,,5de0b69ba91be311cb773b0b,2022-09-08_09h56.12.123,CGTgamblingSpanTasks,2022.2.1,Win32,59.09816205,,,,,,,,2.9333,,,,,,,,,,,,,,1,v,1.0667,22.97,1,3.9333,1,0,35,35,5,1,22.97,0,6.51,0,,,,,,,,,,,,,,,,,,,,,,,,,,,,,,,,,,,,,,,,,,,,,,,,,,,,,,,,,,,,,,,,,,,,,,,,,,,,,,,,,,,,,,,,,,,,,,,,,,
,,5de0b69ba91be311cb773b0b,2022-09-08_09h56.12.123,CGTgamblingSpanTasks,2022.2.1,Win32,59.09816205,,,,,,,,3.0548,,,,,,,,,,,,,,1,v,0.9452,13.04,1,4.5548,1.5,0,36,36,12,1,13.04,0,5.48,0,,,,,,,,,,,,,,,,,,,,,,,,,,,,,,,,,,,,,,,,,,,,,,,,,,,,,,,,,,,,,,,,,,,,,,,,,,,,,,,,,,,,,,,,,,,,,,,,,,
,,5de0b69ba91be311cb773b0b,2022-09-08_09h56.12.123,CGTgamblingSpanTasks,2022.2.1,Win32,59.09816205,,,,,,,,3.0528,,,,,,,,,,,,,,1,n,0.9472,3.13,0,4.5528,1.5,0,37,37,47,1,0,0,3.13,1,,,,,,,,,,,,,,,,,,,,,,,,,,,,,,,,,,,,,,,,,,,,,,,,,,,,,,,,,,,,,,,,,,,,,,,,,,,,,,,,,,,,,,,,,,,,,,,,,,
,,5de0b69ba91be311cb773b0b,2022-09-08_09h56.12.123,CGTgamblingSpanTasks,2022.2.1,Win32,59.09816205,,,,,,,,2.8524,,,,,,,,,,,,,,2,v,1.1476,6.94,0,4.3524,1.5,0,38,38,38,1,10.12,0,6.94,0,,,,,,,,,,,,,,,,,,,,,,,,,,,,,,,,,,,,,,,,,,,,,,,,,,,,,,,,,,,,,,,,,,,,,,,,,,,,,,,,,,,,,,,,,,,,,,,,,,
,,5de0b69ba91be311cb773b0b,2022-09-08_09h56.12.123,CGTgamblingSpanTasks,2022.2.1,Win32,59.09816205,,,,,,,,2.7008,,,,,,,,,,,,,,2,v,1.2992,9.5,0,4.2008,1.5,0,39,39,25,1,17,0,9.5,0,,,,,,,,,,,,,,,,,,,,,,,,,,,,,,,,,,,,,,,,,,,,,,,,,,,,,,,,,,,,,,,,,,,,,,,,,,,,,,,,,,,,,,,,,,,,,,,,,,
,,5de0b69ba91be311cb773b0b,2022-09-08_09h56.12.123,CGTgamblingSpanTasks,2022.2.1,Win32,59.09816205,,,,,,,,2.9199,,,,,,,,,,,,,,1,n,1.0801,6.63,0,4.4199,1.5,0,40,40,30,1,10.73,0,6.63,0,,,,,,,,,,,,,,,,,,,,,,,,,,,,,,,,,,,,,,,,,,,,,,,,,,,,,,,,,,,,,,,,,,,,,,,,,,,,,,,,,,,,,,,,,,,,,,,,,,
,,5de0b69ba91be311cb773b0b,2022-09-08_09h56.12.123,CGTgamblingSpanTasks,2022.2.1,Win32,59.09816205,,,,,,,,3.1674,,,,,,,,,,,,,,2,v,0.8326,6.73,0,4.6674,1.5,0,41,41,32,1,10.55,0,6.73,0,,,,,,,,,,,,,,,,,,,,,,,,,,,,,,,,,,,,,,,,,,,,,,,,,,,,,,,,,,,,,,,,,,,,,,,,,,,,,,,,,,,,,,,,,,,,,,,,,,
,,5de0b69ba91be311cb773b0b,2022-09-08_09h56.12.123,CGTgamblingSpanTasks,2022.2.1,Win32,59.09816205,,,,,,,,2.8693,,,,,,,,,,,,,,1,v,1.1307,0,1,3.8693,1,0,42,42,4,1,16,0,4,0,,,,,,,,,,,,,,,,,,,,,,,,,,,,,,,,,,,,,,,,,,,,,,,,,,,,,,,,,,,,,,,,,,,,,,,,,,,,,,,,,,,,,,,,,,,,,,,,,,
,,5de0b69ba91be311cb773b0b,2022-09-08_09h56.12.123,CGTgamblingSpanTasks,2022.2.1,Win32,59.09816205,,,,,,,,2.2532,,,,,,,,,,,,,,1,n,1.7468,8.61,0,3.7532,1.5,0,43,43,15,1,18.77,0,8.61,0,,,,,,,,,,,,,,,,,,,,,,,,,,,,,,,,,,,,,,,,,,,,,,,,,,,,,,,,,,,,,,,,,,,,,,,,,,,,,,,,,,,,,,,,,,,,,,,,,,
,,5de0b69ba91be311cb773b0b,2022-09-08_09h56.12.123,CGTgamblingSpanTasks,2022.2.1,Win32,59.09816205,,,,,,,,2.8696,,,,,,,,,,,,,,1,v,1.1304,0,1,3.8696,1,0,44,44,0,1,20.03,0,1.99,0,,,,,,,,,,,,,,,,,,,,,,,,,,,,,,,,,,,,,,,,,,,,,,,,,,,,,,,,,,,,,,,,,,,,,,,,,,,,,,,,,,,,,,,,,,,,,,,,,,
,,5de0b69ba91be311cb773b0b,2022-09-08_09h56.12.123,CGTgamblingSpanTasks,2022.2.1,Win32,59.09816205,,,,,,,,2.3329,,,,,,,,,,,,,,1,n,1.6671,8.36,0,3.8329,1.5,0,45,45,13,1,19.28,0,8.36,0,,,,,,,,,,,,,,,,,,,,,,,,,,,,,,,,,,,,,,,,,,,,,,,,,,,,,,,,,,,,,,,,,,,,,,,,,,,,,,,,,,,,,,,,,,,,,,,,,,
,,5de0b69ba91be311cb773b0b,2022-09-08_09h56.12.123,CGTgamblingSpanTasks,2022.2.1,Win32,59.09816205,,,,,,,,2.8563,,,,,,,,,,,,,,2,v,1.1437,5.66,0,3.8563,1,0,46,46,14,1,12.68,0,5.66,0,,,,,,,,,,,,,,,,,,,,,,,,,,,,,,,,,,,,,,,,,,,,,,,,,,,,,,,,,,,,,,,,,,,,,,,,,,,,,,,,,,,,,,,,,,,,,,,,,,
,,5de0b69ba91be311cb773b0b,2022-09-08_09h56.12.123,CGTgamblingSpanTasks,2022.2.1,Win32,59.09816205,,,,,,,,2.8734,,,,,,,,,,,,,,2,v,1.1266,10.68,0,3.8734,1,0,47,47,48,1,10.68,0,10.68,1,,,,,,,,,,,,,,,,,,,,,,,,,,,,,,,,,,,,,,,,,,,,,,,,,,,,,,,,,,,,,,,,,,,,,,,,,,,,,,,,,,,,,,,,,,,,,,,,,,
,,5de0b69ba91be311cb773b0b,2022-09-08_09h56.12.123,CGTgamblingSpanTasks,2022.2.1,Win32,59.09816205,,,,,,,,2.6388,,,,,,,,,,,,,,1,n,1.3612,5.27,0,3.6388,1,0,48,48,10,1,13.45,0,5.27,0,,,,,,,,,,,,,,,,,,,,,,,,,,,,,,,,,,,,,,,,,,,,,,,,,,,,,,,,,,,,,,,,,,,,,,,,,,,,,,,,,,,,,,,,,,,,,,,,,,
,,5de0b69ba91be311cb773b0b,2022-09-08_09h56.12.123,CGTgamblingSpanTasks,2022.2.1,Win32,59.09816205,,,,,,,,2.975,,,,,,,,,,,,,,2,v,1.025,9.2,0,3.975,1,0,49,49,21,1,17.59,0,9.2,0,,,,,,,,,,,,,,,,,,,,,,,,,,,,,,,,,,,,,,,,,,,,,,,,,,,,,,,,,,,,,,,,,,,,,,,,,,,,,,,,,,,,,,,,,,,,,,,,,,
,,5de0b69ba91be311cb773b0b,2022-09-08_09h56.12.123,CGTgamblingSpanTasks,2022.2.1,Win32,59.09816205,,,,,,,,,,,,,,,,,,,,,,,,,,,,,,,,,,,,,,bespoke_choiceset_rhoInd050_muInd048.csv,bespoke_choicesets/bespoke_choiceset_rhoInd050_muInd048.csv,50,48,0,0,0,0,1,,,,,,,,,,,,,,,,,,,,,,,,,,,,,,,,,,,,,,,,,,,,,,,,,,,,,,,,,,,,,,,,,,,,,,,,,,,,,,,,,,,,,,,,,
,,5de0b69ba91be311cb773b0b,2022-09-08_09h56.12.123,CGTgamblingSpanTasks,2022.2.1,Win32,59.09816205,,,,,,,,,,,,,,,,,,,,,,,,,,,,,,,,,,,,,,,,,,,,,,,,,,,,,,,,,,,,,,,,,,,,,,,,,,,,,,,,,,,,,,,,,,,,,,,,,,,,,,,,,,,,,,,,,,,,,,,,,,,,,,,,,,,,,,,
,,5de0b69ba91be311cb773b0b,2022-09-08_09h56.12.123,CGTgamblingSpanTasks,2022.2.1,Win32,59.09816205,,,,,,,,,,,,,,,,,,,,,,,,,,,,,,,,,,,,,,,,,,,,,,,v,17.4706,,,,,,,,,,,,,,,,,,,,,,,,,,,,,,,,,,,,,,,,,,,,,,,,,,,,,,,,,,,,,,,,,,,,,,,,,,,,,,,,,,,,,,,
,,5de0b69ba91be311cb773b0b,2022-09-08_09h56.12.123,CGTgamblingSpanTasks,2022.2.1,Win32,59.09816205,,,,,,,,3.1869,,,,,,,,,,,,,,1,v,0.8131,26.36733703,1,4.6869,1.5,,,,,,26.36733703,0,2.201057101,,,,,,,,,,,,,0,0,0,90,1,0.544064207,1,,,,,,,,,,,,,,,,,,,,,,,,,,,,,,,,,,,,,,,,,,,,,,,,,,,,,,,,,,,,,,,,,,,,,,,,,,,,,,,,
,,5de0b69ba91be311cb773b0b,2022-09-08_09h56.12.123,CGTgamblingSpanTasks,2022.2.1,Win32,59.09816205,,,,,,,,2.9818,,,,,,,,,,,,,,2,n,1.0182,0,1,4.4818,1.5,,,,,,26.11188619,0,0.081942421,,,,,,,,,,,,,0,1,1,105,1,0.905343856,0,,,,,,,,,,,,,,,,,,,,,,,,,,,,,,,,,,,,,,,,,,,,,,,,,,,,,,,,,,,,,,,,,,,,,,,,,,,,,,,,
,,5de0b69ba91be311cb773b0b,2022-09-08_09h56.12.123,CGTgamblingSpanTasks,2022.2.1,Win32,59.09816205,,,,,,,,2.978,,,,,,,,,,,,,,2,v,1.022,8.830252162,0,3.978,1,,,,,,15.73000491,0,8.830252162,,,,,,,,,,,,,0,2,2,95,1,0.084193143,0,,,,,,,,,,,,,,,,,,,,,,,,,,,,,,,,,,,,,,,,,,,,,,,,,,,,,,,,,,,,,,,,,,,,,,,,,,,,,,,,
,,5de0b69ba91be311cb773b0b,2022-09-08_09h56.12.123,CGTgamblingSpanTasks,2022.2.1,Win32,59.09816205,,,,,,,,2.952,,,,,,,,,,,,,,2,n,1.048,23.0613391,1,3.952,1,,,,,,23.0613391,0,2.387726776,,,,,,,,,,,,,0,3,3,69,1,0.488727763,1,,,,,,,,,,,,,,,,,,,,,,,,,,,,,,,,,,,,,,,,,,,,,,,,,,,,,,,,,,,,,,,,,,,,,,,,,,,,,,,,
,,5de0b69ba91be311cb773b0b,2022-09-08_09h56.12.123,CGTgamblingSpanTasks,2022.2.1,Win32,59.09816205,,,,,,,,3.1191,,,,,,,,,,,,,,1,n,0.8809,7.646213173,0,4.1191,1,,,,,,2.042350179,0,7.646213173,,,,,,,,,,,,,0,4,4,53,1,0.009522273,0,,,,,,,,,,,,,,,,,,,,,,,,,,,,,,,,,,,,,,,,,,,,,,,,,,,,,,,,,,,,,,,,,,,,,,,,,,,,,,,,
,,5de0b69ba91be311cb773b0b,2022-09-08_09h56.12.123,CGTgamblingSpanTasks,2022.2.1,Win32,59.09816205,,,,,,,,3.1098,,,,,,,,,,,,,,2,n,0.8902,0,1,4.6098,1.5,,,,,,17.30137174,0,1.716380842,,,,,,,,,,,,,0,5,5,20,1,0.500020285,1,,,,,,,,,,,,,,,,,,,,,,,,,,,,,,,,,,,,,,,,,,,,,,,,,,,,,,,,,,,,,,,,,,,,,,,,,,,,,,,,
,,5de0b69ba91be311cb773b0b,2022-09-08_09h56.12.123,CGTgamblingSpanTasks,2022.2.1,Win32,59.09816205,,,,,,,,2.8191,,,,,,,,,,,,,,1,n,1.1809,8.579385201,0,3.8191,1,,,,,,14.11762686,0,8.579385201,,,,,,,,,,,,,0,6,6,60,1,0.073886959,0,,,,,,,,,,,,,,,,,,,,,,,,,,,,,,,,,,,,,,,,,,,,,,,,,,,,,,,,,,,,,,,,,,,,,,,,,,,,,,,,
,,5de0b69ba91be311cb773b0b,2022-09-08_09h56.12.123,CGTgamblingSpanTasks,2022.2.1,Win32,59.09816205,,,,,,,,3.1166,,,,,,,,,,,,,,1,v,0.8834,21.2188881,1,4.6166,1.5,,,,,,21.2188881,0,2.067660742,,,,,,,,,,,,,0,7,7,107,1,0.50470775,1,,,,,,,,,,,,,,,,,,,,,,,,,,,,,,,,,,,,,,,,,,,,,,,,,,,,,,,,,,,,,,,,,,,,,,,,,,,,,,,,
,,5de0b69ba91be311cb773b0b,2022-09-08_09h56.12.123,CGTgamblingSpanTasks,2022.2.1,Win32,59.09816205,,,,,,,,3.0498,,,,,,,,,,,,,,1,v,0.9502,0,1,4.5498,1.5,,,,,,25.65316415,0,0.079652925,,,,,,,,,,,,,0,8,8,109,1,0.90568168,0,,,,,,,,,,,,,,,,,,,,,,,,,,,,,,,,,,,,,,,,,,,,,,,,,,,,,,,,,,,,,,,,,,,,,,,,,,,,,,,,
,,5de0b69ba91be311cb773b0b,2022-09-08_09h56.12.123,CGTgamblingSpanTasks,2022.2.1,Win32,59.09816205,,,,,,,,2.7494,,,,,,,,,,,,,,1,v,1.2506,15.43649625,1,4.2494,1.5,,,,,,15.43649625,0,1.65459324,,,,,,,,,,,,,0,9,9,33,1,0.479480163,1,,,,,,,,,,,,,,,,,,,,,,,,,,,,,,,,,,,,,,,,,,,,,,,,,,,,,,,,,,,,,,,,,,,,,,,,,,,,,,,,
,,5de0b69ba91be311cb773b0b,2022-09-08_09h56.12.123,CGTgamblingSpanTasks,2022.2.1,Win32,59.09816205,,,,,,,,3.0944,,,,,,,,,,,,,,1,v,0.9056,22.86604061,1,4.0944,1,,,,,,22.86604061,0,2.293289792,,,,,,,,,,,,,0,10,10,51,1,0.49715382,1,,,,,,,,,,,,,,,,,,,,,,,,,,,,,,,,,,,,,,,,,,,,,,,,,,,,,,,,,,,,,,,,,,,,,,,,,,,,,,,,
,,5de0b69ba91be311cb773b0b,2022-09-08_09h56.12.123,CGTgamblingSpanTasks,2022.2.1,Win32,59.09816205,,,,,,,,3.0337,,,,,,,,,,,,,,2,n,0.9663,0,1,4.0337,1,,,,,,25.0707644,0,0.067651625,,,,,,,,,,,,,0,11,11,70,1,0.909952349,0,,,,,,,,,,,,,,,,,,,,,,,,,,,,,,,,,,,,,,,,,,,,,,,,,,,,,,,,,,,,,,,,,,,,,,,,,,,,,,,,
,,5de0b69ba91be311cb773b0b,2022-09-08_09h56.12.123,CGTgamblingSpanTasks,2022.2.1,Win32,59.09816205,,,,,,,,3.045,,,,,,,,,,,,,,2,n,0.955,29.75778644,1,4.045,1,,,,,,29.75778644,0,2.810531415,,,,,,,,,,,,,0,12,12,113,1,0.512824233,1,,,,,,,,,,,,,,,,,,,,,,,,,,,,,,,,,,,,,,,,,,,,,,,,,,,,,,,,,,,,,,,,,,,,,,,,,,,,,,,,
,,5de0b69ba91be311cb773b0b,2022-09-08_09h56.12.123,CGTgamblingSpanTasks,2022.2.1,Win32,59.09816205,,,,,,,,2.9712,,,,,,,,,,,,,,2,v,1.0288,7.50753835,0,3.9712,1,,,,,,2.231316635,0,7.50753835,,,,,,,,,,,,,0,13,13,29,1,0.010273427,0,,,,,,,,,,,,,,,,,,,,,,,,,,,,,,,,,,,,,,,,,,,,,,,,,,,,,,,,,,,,,,,,,,,,,,,,,,,,,,,,
,,5de0b69ba91be311cb773b0b,2022-09-08_09h56.12.123,CGTgamblingSpanTasks,2022.2.1,Win32,59.09816205,,,,,,,,2.964,,,,,,,,,,,,,,2,n,1.036,23.59556381,1,3.964,1,,,,,,23.59556381,0,2.464662219,,,,,,,,,,,,,0,14,14,22,1,0.486383205,1,,,,,,,,,,,,,,,,,,,,,,,,,,,,,,,,,,,,,,,,,,,,,,,,,,,,,,,,,,,,,,,,,,,,,,,,,,,,,,,,
,,5de0b69ba91be311cb773b0b,2022-09-08_09h56.12.123,CGTgamblingSpanTasks,2022.2.1,Win32,59.09816205,,,,,,,,3.0745,,,,,,,,,,,,,,2,n,0.9255,0,1,4.0745,1,,,,,,28.9323758,0,2.893007023,,,,,,,,,,,,,0,15,15,11,1,0.497943321,1,,,,,,,,,,,,,,,,,,,,,,,,,,,,,,,,,,,,,,,,,,,,,,,,,,,,,,,,,,,,,,,,,,,,,,,,,,,,,,,,
,,5de0b69ba91be311cb773b0b,2022-09-08_09h56.12.123,CGTgamblingSpanTasks,2022.2.1,Win32,59.09816205,,,,,,,,2.8822,,,,,,,,,,,,,,2,n,1.1178,19.30622782,1,4.3822,1.5,,,,,,19.30622782,0,10.31611309,,,,,,,,,,,,,0,16,16,1,1,0.091105656,0,,,,,,,,,,,,,,,,,,,,,,,,,,,,,,,,,,,,,,,,,,,,,,,,,,,,,,,,,,,,,,,,,,,,,,,,,,,,,,,,
,,5de0b69ba91be311cb773b0b,2022-09-08_09h56.12.123,CGTgamblingSpanTasks,2022.2.1,Win32,59.09816205,,,,,,,,2.9446,,,,,,,,,,,,,,2,n,1.0554,27.53810185,1,4.4446,1.5,,,,,,27.53810185,0,0.097022401,,,,,,,,,,,,,0,17,17,50,1,0.901515865,0,,,,,,,,,,,,,,,,,,,,,,,,,,,,,,,,,,,,,,,,,,,,,,,,,,,,,,,,,,,,,,,,,,,,,,,,,,,,,,,,
,,5de0b69ba91be311cb773b0b,2022-09-08_09h56.12.123,CGTgamblingSpanTasks,2022.2.1,Win32,59.09816205,,,,,,,,2.9571,,,,,,,,,,,,,,2,n,1.0429,18.11029021,1,3.9571,1,,,,,,18.11029021,0,11.41737518,,,,,,,,,,,,,0,18,18,48,1,0.069445859,0,,,,,,,,,,,,,,,,,,,,,,,,,,,,,,,,,,,,,,,,,,,,,,,,,,,,,,,,,,,,,,,,,,,,,,,,,,,,,,,,
,,5de0b69ba91be311cb773b0b,2022-09-08_09h56.12.123,CGTgamblingSpanTasks,2022.2.1,Win32,59.09816205,,,,,,,,3.0482,,,,,,,,,,,,,,2,n,0.9518,24.66627941,1,4.5482,1.5,,,,,,24.66627941,0,2.765426402,,,,,,,,,,,,,0,19,19,24,1,0.467360588,1,,,,,,,,,,,,,,,,,,,,,,,,,,,,,,,,,,,,,,,,,,,,,,,,,,,,,,,,,,,,,,,,,,,,,,,,,,,,,,,,
,,5de0b69ba91be311cb773b0b,2022-09-08_09h56.12.123,CGTgamblingSpanTasks,2022.2.1,Win32,59.09816205,,,,,,,,3.1612,,,,,,,,,,,,,,2,n,0.8388,0,1,4.1612,1,,,,,,27.93093084,0,0.050207531,,,,,,,,,,,,,0,20,20,83,1,0.920505936,0,,,,,,,,,,,,,,,,,,,,,,,,,,,,,,,,,,,,,,,,,,,,,,,,,,,,,,,,,,,,,,,,,,,,,,,,,,,,,,,,
,,5de0b69ba91be311cb773b0b,2022-09-08_09h56.12.123,CGTgamblingSpanTasks,2022.2.1,Win32,59.09816205,,,,,,,,2.9653,,,,,,,,,,,,,,2,n,1.0347,0,1,3.9653,1,,,,,,13.96521039,0,1.591282699,,,,,,,,,,,,,0,21,21,49,1,0.462956344,1,,,,,,,,,,,,,,,,,,,,,,,,,,,,,,,,,,,,,,,,,,,,,,,,,,,,,,,,,,,,,,,,,,,,,,,,,,,,,,,,
,,5de0b69ba91be311cb773b0b,2022-09-08_09h56.12.123,CGTgamblingSpanTasks,2022.2.1,Win32,59.09816205,,,,,,,,2.8756,,,,,,,,,,,,,,2,v,1.1244,9.936178001,0,3.8756,1,,,,,,19.58698544,0,9.936178001,,,,,,,,,,,,,0,22,22,77,1,0.098812204,0,,,,,,,,,,,,,,,,,,,,,,,,,,,,,,,,,,,,,,,,,,,,,,,,,,,,,,,,,,,,,,,,,,,,,,,,,,,,,,,,
,,5de0b69ba91be311cb773b0b,2022-09-08_09h56.12.123,CGTgamblingSpanTasks,2022.2.1,Win32,59.09816205,,,,,,,,3.0331,,,,,,,,,,,,,,1,v,0.9669,23.4214135,1,4.0331,1,,,,,,23.4214135,0,2.485985001,,,,,,,,,,,,,0,23,23,81,1,0.482105905,1,,,,,,,,,,,,,,,,,,,,,,,,,,,,,,,,,,,,,,,,,,,,,,,,,,,,,,,,,,,,,,,,,,,,,,,,,,,,,,,,
,,5de0b69ba91be311cb773b0b,2022-09-08_09h56.12.123,CGTgamblingSpanTasks,2022.2.1,Win32,59.09816205,,,,,,,,2.683,,,,,,,,,,,,,,1,n,1.317,4.904872644,0,3.683,1,,,,,,4.698775357,0,4.904872644,,,,,,,,,,,,,0,24,24,75,1,0.028064484,0,,,,,,,,,,,,,,,,,,,,,,,,,,,,,,,,,,,,,,,,,,,,,,,,,,,,,,,,,,,,,,,,,,,,,,,,,,,,,,,,
,,5de0b69ba91be311cb773b0b,2022-09-08_09h56.12.123,CGTgamblingSpanTasks,2022.2.1,Win32,59.09816205,,,,,,,,3.0524,,,,,,,,,,,,,,2,n,0.9476,11.08143071,1,4.0524,1,,,,,,11.08143071,0,1.207538756,,,,,,,,,,,,,0,25,25,84,1,0.475047453,1,,,,,,,,,,,,,,,,,,,,,,,,,,,,,,,,,,,,,,,,,,,,,,,,,,,,,,,,,,,,,,,,,,,,,,,,,,,,,,,,
,,5de0b69ba91be311cb773b0b,2022-09-08_09h56.12.123,CGTgamblingSpanTasks,2022.2.1,Win32,59.09816205,,,,,,,,3.1266,,,,,,,,,,,,,,2,n,0.8734,8.670591867,1,4.1266,1,,,,,,8.670591867,0,1.025847652,,,,,,,,,,,,,0,26,26,18,1,0.452680459,1,,,,,,,,,,,,,,,,,,,,,,,,,,,,,,,,,,,,,,,,,,,,,,,,,,,,,,,,,,,,,,,,,,,,,,,,,,,,,,,,
,,5de0b69ba91be311cb773b0b,2022-09-08_09h56.12.123,CGTgamblingSpanTasks,2022.2.1,Win32,59.09816205,,,,,,,,3.071,,,,,,,,,,,,,,1,v,0.929,0,1,4.071,1,,,,,,25.21882231,0,0.085746782,,,,,,,,,,,,,0,27,27,64,1,0.90272076,0,,,,,,,,,,,,,,,,,,,,,,,,,,,,,,,,,,,,,,,,,,,,,,,,,,,,,,,,,,,,,,,,,,,,,,,,,,,,,,,,
,,5de0b69ba91be311cb773b0b,2022-09-08_09h56.12.123,CGTgamblingSpanTasks,2022.2.1,Win32,59.09816205,,,,,,,,3.0526,,,,,,,,,,,,,,1,v,0.9474,21.17800335,1,4.0526,1,,,,,,21.17800335,0,0.059830985,,,,,,,,,,,,,0,28,28,67,1,0.908594974,0,,,,,,,,,,,,,,,,,,,,,,,,,,,,,,,,,,,,,,,,,,,,,,,,,,,,,,,,,,,,,,,,,,,,,,,,,,,,,,,,
,,5de0b69ba91be311cb773b0b,2022-09-08_09h56.12.123,CGTgamblingSpanTasks,2022.2.1,Win32,59.09816205,,,,,,,,2.7085,,,,,,,,,,,,,,1,n,1.2915,8.653432553,0,4.2085,1.5,,,,,,15.13999312,0,8.653432553,,,,,,,,,,,,,0,29,29,54,1,0.081767484,0,,,,,,,,,,,,,,,,,,,,,,,,,,,,,,,,,,,,,,,,,,,,,,,,,,,,,,,,,,,,,,,,,,,,,,,,,,,,,,,,
,,5de0b69ba91be311cb773b0b,2022-09-08_09h56.12.123,CGTgamblingSpanTasks,2022.2.1,Win32,59.09816205,,,,,,,,3.088,,,,,,,,,,,,,,1,v,0.912,0,1,4.088,1,,,,,,27.39221343,0,2.743407746,,,,,,,,,,,,,0,30,30,47,1,0.49752044,1,,,,,,,,,,,,,,,,,,,,,,,,,,,,,,,,,,,,,,,,,,,,,,,,,,,,,,,,,,,,,,,,,,,,,,,,,,,,,,,,
,,5de0b69ba91be311cb773b0b,2022-09-08_09h56.12.123,CGTgamblingSpanTasks,2022.2.1,Win32,59.09816205,,,,,,,,2.9735,,,,,,,,,,,,,,1,v,1.0265,0,1,4.4735,1.5,,,,,,14.3363647,0,1.396635362,,,,,,,,,,,,,0,31,31,78,1,0.504775474,1,,,,,,,,,,,,,,,,,,,,,,,,,,,,,,,,,,,,,,,,,,,,,,,,,,,,,,,,,,,,,,,,,,,,,,,,,,,,,,,,
,,5de0b69ba91be311cb773b0b,2022-09-08_09h56.12.123,CGTgamblingSpanTasks,2022.2.1,Win32,59.09816205,,,,,,,,3.0804,,,,,,,,,,,,,,2,n,0.9196,18.51345298,1,4.0804,1,,,,,,18.51345298,0,1.932334278,,,,,,,,,,,,,0,32,32,31,1,0.48658696,1,,,,,,,,,,,,,,,,,,,,,,,,,,,,,,,,,,,,,,,,,,,,,,,,,,,,,,,,,,,,,,,,,,,,,,,,,,,,,,,,
,,5de0b69ba91be311cb773b0b,2022-09-08_09h56.12.123,CGTgamblingSpanTasks,2022.2.1,Win32,59.09816205,,,,,,,,2.9388,,,,,,,,,,,,,,1,v,1.0612,0,1,4.4388,1.5,,,,,,24.479109,0,0.089582697,,,,,,,,,,,,,0,33,33,89,1,0.900200232,0,,,,,,,,,,,,,,,,,,,,,,,,,,,,,,,,,,,,,,,,,,,,,,,,,,,,,,,,,,,,,,,,,,,,,,,,,,,,,,,,
,,5de0b69ba91be311cb773b0b,2022-09-08_09h56.12.123,CGTgamblingSpanTasks,2022.2.1,Win32,59.09816205,,,,,,,,3.0718,,,,,,,,,,,,,,1,v,0.9282,21.46599803,1,4.5718,1.5,,,,,,21.46599803,0,0.059789256,,,,,,,,,,,,,0,34,34,8,1,0.909019081,0,,,,,,,,,,,,,,,,,,,,,,,,,,,,,,,,,,,,,,,,,,,,,,,,,,,,,,,,,,,,,,,,,,,,,,,,,,,,,,,,
,,5de0b69ba91be311cb773b0b,2022-09-08_09h56.12.123,CGTgamblingSpanTasks,2022.2.1,Win32,59.09816205,,,,,,,,2.7635,,,,,,,,,,,,,,1,n,1.2365,10.3417501,0,4.2635,1.5,,,,,,15.21435748,0,10.3417501,,,,,,,,,,,,,0,35,35,72,1,0.060969226,0,,,,,,,,,,,,,,,,,,,,,,,,,,,,,,,,,,,,,,,,,,,,,,,,,,,,,,,,,,,,,,,,,,,,,,,,,,,,,,,,
,,5de0b69ba91be311cb773b0b,2022-09-08_09h56.12.123,CGTgamblingSpanTasks,2022.2.1,Win32,59.09816205,,,,,,,,3.1135,,,,,,,,,,,,,,2,n,0.8865,0,1,4.1135,1,,,,,,21.48443242,0,2.229247341,,,,,,,,,,,,,0,36,36,63,1,0.488155912,1,,,,,,,,,,,,,,,,,,,,,,,,,,,,,,,,,,,,,,,,,,,,,,,,,,,,,,,,,,,,,,,,,,,,,,,,,,,,,,,,
,,5de0b69ba91be311cb773b0b,2022-09-08_09h56.12.123,CGTgamblingSpanTasks,2022.2.1,Win32,59.09816205,,,,,,,,3.1862,,,,,,,,,,,,,,2,n,0.8138,29.76099779,1,4.1862,1,,,,,,29.76099779,0,0.095763086,,,,,,,,,,,,,0,37,37,35,1,0.904537896,0,,,,,,,,,,,,,,,,,,,,,,,,,,,,,,,,,,,,,,,,,,,,,,,,,,,,,,,,,,,,,,,,,,,,,,,,,,,,,,,,
,,5de0b69ba91be311cb773b0b,2022-09-08_09h56.12.123,CGTgamblingSpanTasks,2022.2.1,Win32,59.09816205,,,,,,,,2.184,,,,,,,,,,,,,,1,n,1.816,8.512335864,0,3.184,1,,,,,,10.05300841,0,8.512335864,,,,,,,,,,,,,0,38,38,74,1,0.040729225,0,,,,,,,,,,,,,,,,,,,,,,,,,,,,,,,,,,,,,,,,,,,,,,,,,,,,,,,,,,,,,,,,,,,,,,,,,,,,,,,,
,,5de0b69ba91be311cb773b0b,2022-09-08_09h56.12.123,CGTgamblingSpanTasks,2022.2.1,Win32,59.09816205,,,,,,,,2.9497,,,,,,,,,,,,,,1,v,1.0503,0,1,4.4497,1.5,,,,,,22.25959835,0,0.065383587,,,,,,,,,,,,,0,39,39,97,1,0.907413875,0,,,,,,,,,,,,,,,,,,,,,,,,,,,,,,,,,,,,,,,,,,,,,,,,,,,,,,,,,,,,,,,,,,,,,,,,,,,,,,,,
,,5de0b69ba91be311cb773b0b,2022-09-08_09h56.12.123,CGTgamblingSpanTasks,2022.2.1,Win32,59.09816205,,,,,,,,2.9054,,,,,,,,,,,,,,2,n,1.0946,24.57684014,1,3.9054,1,,,,,,24.57684014,0,0.061756244,,,,,,,,,,,,,0,40,40,68,1,0.911988903,0,,,,,,,,,,,,,,,,,,,,,,,,,,,,,,,,,,,,,,,,,,,,,,,,,,,,,,,,,,,,,,,,,,,,,,,,,,,,,,,,
,,5de0b69ba91be311cb773b0b,2022-09-08_09h56.12.123,CGTgamblingSpanTasks,2022.2.1,Win32,59.09816205,,,,,,,,2.9784,,,,,,,,,,,,,,1,v,1.0216,0,1,4.4784,1.5,,,,,,25.54604005,0,0.088845411,,,,,,,,,,,,,0,41,41,79,1,0.901957831,0,,,,,,,,,,,,,,,,,,,,,,,,,,,,,,,,,,,,,,,,,,,,,,,,,,,,,,,,,,,,,,,,,,,,,,,,,,,,,,,,
,,5de0b69ba91be311cb773b0b,2022-09-08_09h56.12.123,CGTgamblingSpanTasks,2022.2.1,Win32,59.09816205,,,,,,,,3.1403,,,,,,,,,,,,,,2,n,0.8597,0,1,4.6403,1.5,,,,,,27.37527992,0,2.860319095,,,,,,,,,,,,,0,42,42,39,1,0.486304156,1,,,,,,,,,,,,,,,,,,,,,,,,,,,,,,,,,,,,,,,,,,,,,,,,,,,,,,,,,,,,,,,,,,,,,,,,,,,,,,,,
,,5de0b69ba91be311cb773b0b,2022-09-08_09h56.12.123,CGTgamblingSpanTasks,2022.2.1,Win32,59.09816205,,,,,,,,3.1753,,,,,,,,,,,,,,1,n,0.8247,4.462262453,0,4.6753,1.5,,,,,,0.192759042,0,4.462262453,,,,,,,,,,,,,0,43,43,52,1,0.003553223,0,,,,,,,,,,,,,,,,,,,,,,,,,,,,,,,,,,,,,,,,,,,,,,,,,,,,,,,,,,,,,,,,,,,,,,,,,,,,,,,,
,,5de0b69ba91be311cb773b0b,2022-09-08_09h56.12.123,CGTgamblingSpanTasks,2022.2.1,Win32,59.09816205,,,,,,,,2.9692,,,,,,,,,,,,,,2,n,1.0308,0,1,4.4692,1.5,,,,,,26.16821818,0,0.093528069,,,,,,,,,,,,,0,44,44,42,1,0.901022427,0,,,,,,,,,,,,,,,,,,,,,,,,,,,,,,,,,,,,,,,,,,,,,,,,,,,,,,,,,,,,,,,,,,,,,,,,,,,,,,,,
,,5de0b69ba91be311cb773b0b,2022-09-08_09h56.12.123,CGTgamblingSpanTasks,2022.2.1,Win32,59.09816205,,,,,,,,3.0854,,,,,,,,,,,,,,2,n,0.9146,0,1,4.0854,1,,,,,,29.30724159,0,3.247012935,,,,,,,,,,,,,0,45,45,71,1,0.470571125,1,,,,,,,,,,,,,,,,,,,,,,,,,,,,,,,,,,,,,,,,,,,,,,,,,,,,,,,,,,,,,,,,,,,,,,,,,,,,,,,,
,,5de0b69ba91be311cb773b0b,2022-09-08_09h56.12.123,CGTgamblingSpanTasks,2022.2.1,Win32,59.09816205,,,,,,,,2.553,,,,,,,,,,,,,,1,n,1.447,11.42134125,0,4.053,1.5,,,,,,12.9904115,0,11.42134125,,,,,,,,,,,,,0,46,46,118,1,0.037876033,0,,,,,,,,,,,,,,,,,,,,,,,,,,,,,,,,,,,,,,,,,,,,,,,,,,,,,,,,,,,,,,,,,,,,,,,,,,,,,,,,
,,5de0b69ba91be311cb773b0b,2022-09-08_09h56.12.123,CGTgamblingSpanTasks,2022.2.1,Win32,59.09816205,,,,,,,,2.9121,,,,,,,,,,,,,,1,n,1.0879,4.251676631,0,4.4121,1.5,,,,,,3.395192929,0,4.251676631,,,,,,,,,,,,,0,47,47,7,1,0.023467153,0,,,,,,,,,,,,,,,,,,,,,,,,,,,,,,,,,,,,,,,,,,,,,,,,,,,,,,,,,,,,,,,,,,,,,,,,,,,,,,,,
,,5de0b69ba91be311cb773b0b,2022-09-08_09h56.12.123,CGTgamblingSpanTasks,2022.2.1,Win32,59.09816205,,,,,,,,2.9852,,,,,,,,,,,,,,2,n,1.0148,7.066129113,1,4.4852,1.5,,,,,,7.066129113,0,0.585581699,,,,,,,,,,,,,0,48,48,19,1,0.545860632,1,,,,,,,,,,,,,,,,,,,,,,,,,,,,,,,,,,,,,,,,,,,,,,,,,,,,,,,,,,,,,,,,,,,,,,,,,,,,,,,,
,,5de0b69ba91be311cb773b0b,2022-09-08_09h56.12.123,CGTgamblingSpanTasks,2022.2.1,Win32,59.09816205,,,,,,,,2.8992,,,,,,,,,,,,,,1,v,1.1008,19.68065872,1,3.8992,1,,,,,,19.68065872,0,1.843597162,,,,,,,,,,,,,0,49,49,80,1,0.514941058,1,,,,,,,,,,,,,,,,,,,,,,,,,,,,,,,,,,,,,,,,,,,,,,,,,,,,,,,,,,,,,,,,,,,,,,,,,,,,,,,,
,,5de0b69ba91be311cb773b0b,2022-09-08_09h56.12.123,CGTgamblingSpanTasks,2022.2.1,Win32,59.09816205,,,,,,,,3.0097,,,,,,,,,,,,,,1,v,0.9903,18.16238569,1,4.5097,1.5,,,,,,18.16238569,0,1.540604093,,,,,,,,,,,,,0,50,50,34,1,0.540092491,1,,,,,,,,,,,,,,,,,,,,,,,,,,,,,,,,,,,,,,,,,,,,,,,,,,,,,,,,,,,,,,,,,,,,,,,,,,,,,,,,
,,5de0b69ba91be311cb773b0b,2022-09-08_09h56.12.123,CGTgamblingSpanTasks,2022.2.1,Win32,59.09816205,,,,,,,,2.9895,,,,,,,,,,,,,,2,n,1.0105,19.36415485,1,4.4895,1.5,,,,,,19.36415485,0,1.966229494,,,,,,,,,,,,,0,51,51,96,1,0.493893111,1,,,,,,,,,,,,,,,,,,,,,,,,,,,,,,,,,,,,,,,,,,,,,,,,,,,,,,,,,,,,,,,,,,,,,,,,,,,,,,,,
,,5de0b69ba91be311cb773b0b,2022-09-08_09h56.12.123,CGTgamblingSpanTasks,2022.2.1,Win32,59.09816205,,,,,,,,3.0197,,,,,,,,,,,,,,1,v,0.9803,0,1,4.5197,1.5,,,,,,17.4320197,0,1.448620949,,,,,,,,,,,,,0,52,52,30,1,0.545178213,1,,,,,,,,,,,,,,,,,,,,,,,,,,,,,,,,,,,,,,,,,,,,,,,,,,,,,,,,,,,,,,,,,,,,,,,,,,,,,,,,
,,5de0b69ba91be311cb773b0b,2022-09-08_09h56.12.123,CGTgamblingSpanTasks,2022.2.1,Win32,59.09816205,,,,,,,,3.1018,,,,,,,,,,,,,,1,v,0.8982,20.31034258,1,4.1018,1,,,,,,20.31034258,0,1.870404296,,,,,,,,,,,,,0,53,53,85,1,0.519325853,1,,,,,,,,,,,,,,,,,,,,,,,,,,,,,,,,,,,,,,,,,,,,,,,,,,,,,,,,,,,,,,,,,,,,,,,,,,,,,,,,
,,5de0b69ba91be311cb773b0b,2022-09-08_09h56.12.123,CGTgamblingSpanTasks,2022.2.1,Win32,59.09816205,,,,,,,,2.6186,,,,,,,,,,,,,,2,v,1.3814,7.850775577,0,3.6186,1,,,,,,4.622707531,0,7.850775577,,,,,,,,,,,,,0,54,54,6,1,0.017737407,0,,,,,,,,,,,,,,,,,,,,,,,,,,,,,,,,,,,,,,,,,,,,,,,,,,,,,,,,,,,,,,,,,,,,,,,,,,,,,,,,
,,5de0b69ba91be311cb773b0b,2022-09-08_09h56.12.123,CGTgamblingSpanTasks,2022.2.1,Win32,59.09816205,,,,,,,,3.0711,,,,,,,,,,,,,,1,v,0.9289,22.0050376,1,4.5711,1.5,,,,,,22.0050376,0,2.257683666,,,,,,,,,,,,,0,55,55,4,1,0.491147312,1,,,,,,,,,,,,,,,,,,,,,,,,,,,,,,,,,,,,,,,,,,,,,,,,,,,,,,,,,,,,,,,,,,,,,,,,,,,,,,,,
,,5de0b69ba91be311cb773b0b,2022-09-08_09h56.12.123,CGTgamblingSpanTasks,2022.2.1,Win32,59.09816205,,,,,,,,2.9908,,,,,,,,,,,,,,1,n,1.0092,8.42547829,0,4.4908,1.5,,,,,,15.87668502,0,8.42547829,,,,,,,,,,,,,0,56,56,56,1,0.092099462,0,,,,,,,,,,,,,,,,,,,,,,,,,,,,,,,,,,,,,,,,,,,,,,,,,,,,,,,,,,,,,,,,,,,,,,,,,,,,,,,,
,,5de0b69ba91be311cb773b0b,2022-09-08_09h56.12.123,CGTgamblingSpanTasks,2022.2.1,Win32,59.09816205,,,,,,,,3.0566,,,,,,,,,,,,,,2,n,0.9434,13.4287264,1,4.0566,1,,,,,,13.4287264,0,1.317368801,,,,,,,,,,,,,0,57,57,100,1,0.502953125,1,,,,,,,,,,,,,,,,,,,,,,,,,,,,,,,,,,,,,,,,,,,,,,,,,,,,,,,,,,,,,,,,,,,,,,,,,,,,,,,,
,,5de0b69ba91be311cb773b0b,2022-09-08_09h56.12.123,CGTgamblingSpanTasks,2022.2.1,Win32,59.09816205,,,,,,,,3.0072,,,,,,,,,,,,,,2,n,0.9928,0,1,4.0072,1,,,,,,25.56803059,0,2.543951743,,,,,,,,,,,,,0,58,58,41,1,0.499247217,1,,,,,,,,,,,,,,,,,,,,,,,,,,,,,,,,,,,,,,,,,,,,,,,,,,,,,,,,,,,,,,,,,,,,,,,,,,,,,,,,
,,5de0b69ba91be311cb773b0b,2022-09-08_09h56.12.123,CGTgamblingSpanTasks,2022.2.1,Win32,59.09816205,,,,,,,,2.9159,,,,,,,,,,,,,,1,v,1.0841,0,1,4.4159,1.5,,,,,,22.62475578,0,2.397643354,,,,,,,,,,,,,0,59,59,93,1,0.482527609,1,,,,,,,,,,,,,,,,,,,,,,,,,,,,,,,,,,,,,,,,,,,,,,,,,,,,,,,,,,,,,,,,,,,,,,,,,,,,,,,,
,,5de0b69ba91be311cb773b0b,2022-09-08_09h56.12.123,CGTgamblingSpanTasks,2022.2.1,Win32,59.09816205,,,,,,,,3.1309,,,,,,,,,,,,,,1,v,0.8691,0,1,4.1309,1,,,,,,25.26994993,0,2.78925142,,,,,,,,,,,,,0,60,60,108,1,0.471582922,1,,,,,,,,,,,,,,,,,,,,,,,,,,,,,,,,,,,,,,,,,,,,,,,,,,,,,,,,,,,,,,,,,,,,,,,,,,,,,,,,
,,5de0b69ba91be311cb773b0b,2022-09-08_09h56.12.123,CGTgamblingSpanTasks,2022.2.1,Win32,59.09816205,,,,,,,,3.0489,,,,,,,,,,,,,,2,n,0.9511,20.5726842,1,4.5489,1.5,,,,,,20.5726842,0,0.073558523,,,,,,,,,,,,,0,61,61,26,1,0.901008565,0,,,,,,,,,,,,,,,,,,,,,,,,,,,,,,,,,,,,,,,,,,,,,,,,,,,,,,,,,,,,,,,,,,,,,,,,,,,,,,,,
,,5de0b69ba91be311cb773b0b,2022-09-08_09h56.12.123,CGTgamblingSpanTasks,2022.2.1,Win32,59.09816205,,,,,,,,2.7899,,,,,,,,,,,,,,1,v,1.2101,0,1,4.2899,1.5,,,,,,7.534278541,0,0.747140182,,,,,,,,,,,,,0,62,62,37,1,0.50012466,1,,,,,,,,,,,,,,,,,,,,,,,,,,,,,,,,,,,,,,,,,,,,,,,,,,,,,,,,,,,,,,,,,,,,,,,,,,,,,,,,
,,5de0b69ba91be311cb773b0b,2022-09-08_09h56.12.123,CGTgamblingSpanTasks,2022.2.1,Win32,59.09816205,,,,,,,,3.2031,,,,,,,,,,,,,,2,n,0.7969,0,1,4.2031,1,,,,,,27.77179191,0,0.074524436,,,,,,,,,,,,,0,63,63,99,1,0.910114387,0,,,,,,,,,,,,,,,,,,,,,,,,,,,,,,,,,,,,,,,,,,,,,,,,,,,,,,,,,,,,,,,,,,,,,,,,,,,,,,,,
,,5de0b69ba91be311cb773b0b,2022-09-08_09h56.12.123,CGTgamblingSpanTasks,2022.2.1,Win32,59.09816205,,,,,,,,3.0735,,,,,,,,,,,,,,2,n,0.9265,0,1,4.5735,1.5,,,,,,28.68598705,0,0.050674956,,,,,,,,,,,,,0,64,64,62,1,0.920905497,0,,,,,,,,,,,,,,,,,,,,,,,,,,,,,,,,,,,,,,,,,,,,,,,,,,,,,,,,,,,,,,,,,,,,,,,,,,,,,,,,
,,5de0b69ba91be311cb773b0b,2022-09-08_09h56.12.123,CGTgamblingSpanTasks,2022.2.1,Win32,59.09816205,,,,,,,,3.2569,,,,,,,,,,,,,,1,v,0.7431,28.9381277,1,4.2569,1,,,,,,28.9381277,0,2.663622024,,,,,,,,,,,,,0,65,65,103,1,0.519453367,1,,,,,,,,,,,,,,,,,,,,,,,,,,,,,,,,,,,,,,,,,,,,,,,,,,,,,,,,,,,,,,,,,,,,,,,,,,,,,,,,
,,5de0b69ba91be311cb773b0b,2022-09-08_09h56.12.123,CGTgamblingSpanTasks,2022.2.1,Win32,59.09816205,,,,,,,,2.9572,,,,,,,,,,,,,,1,n,1.0428,6.833409611,0,4.4572,1.5,,,,,,6.325091157,0,6.833409611,,,,,,,,,,,,,0,66,66,58,1,0.027113638,0,,,,,,,,,,,,,,,,,,,,,,,,,,,,,,,,,,,,,,,,,,,,,,,,,,,,,,,,,,,,,,,,,,,,,,,,,,,,,,,,
,,5de0b69ba91be311cb773b0b,2022-09-08_09h56.12.123,CGTgamblingSpanTasks,2022.2.1,Win32,59.09816205,,,,,,,,3.1912,,,,,,,,,,,,,,2,n,0.8088,27.60724521,1,4.1912,1,,,,,,27.60724521,0,0.088432325,,,,,,,,,,,,,0,67,67,17,1,0.904684186,0,,,,,,,,,,,,,,,,,,,,,,,,,,,,,,,,,,,,,,,,,,,,,,,,,,,,,,,,,,,,,,,,,,,,,,,,,,,,,,,,
,,5de0b69ba91be311cb773b0b,2022-09-08_09h56.12.123,CGTgamblingSpanTasks,2022.2.1,Win32,59.09816205,,,,,,,,3.0847,,,,,,,,,,,,,,1,v,0.9153,0,1,4.5847,1.5,,,,,,27.2532142,0,0.08089327,,,,,,,,,,,,,0,68,68,119,1,0.907091845,0,,,,,,,,,,,,,,,,,,,,,,,,,,,,,,,,,,,,,,,,,,,,,,,,,,,,,,,,,,,,,,,,,,,,,,,,,,,,,,,,
,,5de0b69ba91be311cb773b0b,2022-09-08_09h56.12.123,CGTgamblingSpanTasks,2022.2.1,Win32,59.09816205,,,,,,,,3.1079,,,,,,,,,,,,,,1,v,0.8921,0,1,4.6079,1.5,,,,,,28.33977875,0,2.768313633,,,,,,,,,,,,,0,69,69,116,1,0.50406901,1,,,,,,,,,,,,,,,,,,,,,,,,,,,,,,,,,,,,,,,,,,,,,,,,,,,,,,,,,,,,,,,,,,,,,,,,,,,,,,,,
,,5de0b69ba91be311cb773b0b,2022-09-08_09h56.12.123,CGTgamblingSpanTasks,2022.2.1,Win32,59.09816205,,,,,,,,3.0891,,,,,,,,,,,,,,2,n,0.9109,0,1,4.5891,1.5,,,,,,29.77342428,0,2.838865588,,,,,,,,,,,,,0,70,70,57,1,0.510363415,1,,,,,,,,,,,,,,,,,,,,,,,,,,,,,,,,,,,,,,,,,,,,,,,,,,,,,,,,,,,,,,,,,,,,,,,,,,,,,,,,
,,5de0b69ba91be311cb773b0b,2022-09-08_09h56.12.123,CGTgamblingSpanTasks,2022.2.1,Win32,59.09816205,,,,,,,,2.7988,,,,,,,,,,,,,,2,n,1.2012,0,1,3.7988,1,,,,,,27.57491653,0,2.99133314,,,,,,,,,,,,,0,71,71,10,1,0.47625893,1,,,,,,,,,,,,,,,,,,,,,,,,,,,,,,,,,,,,,,,,,,,,,,,,,,,,,,,,,,,,,,,,,,,,,,,,,,,,,,,,
,,5de0b69ba91be311cb773b0b,2022-09-08_09h56.12.123,CGTgamblingSpanTasks,2022.2.1,Win32,59.09816205,,,,,,,,3.2734,,,,,,,,,,,,,,2,n,0.7266,0,1,4.7734,1.5,,,,,,27.7711693,0,2.320849632,,,,,,,,,,,,,0,72,72,94,1,0.543786368,1,,,,,,,,,,,,,,,,,,,,,,,,,,,,,,,,,,,,,,,,,,,,,,,,,,,,,,,,,,,,,,,,,,,,,,,,,,,,,,,,
,,5de0b69ba91be311cb773b0b,2022-09-08_09h56.12.123,CGTgamblingSpanTasks,2022.2.1,Win32,59.09816205,,,,,,,,2.5408,,,,,,,,,,,,,,1,v,1.4592,6.662965216,1,4.0408,1.5,,,,,,6.662965216,0,6.091504705,,,,,,,,,,,,,0,73,73,102,1,0.035087099,0,,,,,,,,,,,,,,,,,,,,,,,,,,,,,,,,,,,,,,,,,,,,,,,,,,,,,,,,,,,,,,,,,,,,,,,,,,,,,,,,
,,5de0b69ba91be311cb773b0b,2022-09-08_09h56.12.123,CGTgamblingSpanTasks,2022.2.1,Win32,59.09816205,,,,,,,,2.7738,,,,,,,,,,,,,,2,v,1.2262,6.781500919,0,4.2738,1.5,,,,,,8.363821911,0,6.781500919,,,,,,,,,,,,,0,74,74,61,1,0.044227959,0,,,,,,,,,,,,,,,,,,,,,,,,,,,,,,,,,,,,,,,,,,,,,,,,,,,,,,,,,,,,,,,,,,,,,,,,,,,,,,,,
,,5de0b69ba91be311cb773b0b,2022-09-08_09h56.12.123,CGTgamblingSpanTasks,2022.2.1,Win32,59.09816205,,,,,,,,2.7903,,,,,,,,,,,,,,1,v,1.2097,0,1,3.7903,1,,,,,,23.24777057,0,2.003482335,,,,,,,,,,,,,0,75,75,59,1,0.536135174,1,,,,,,,,,,,,,,,,,,,,,,,,,,,,,,,,,,,,,,,,,,,,,,,,,,,,,,,,,,,,,,,,,,,,,,,,,,,,,,,,
,,5de0b69ba91be311cb773b0b,2022-09-08_09h56.12.123,CGTgamblingSpanTasks,2022.2.1,Win32,59.09816205,,,,,,,,2.8362,,,,,,,,,,,,,,2,n,1.1638,0,1,4.3362,1.5,,,,,,28.18900855,0,0.05384276,,,,,,,,,,,,,0,76,76,55,1,0.919081308,0,,,,,,,,,,,,,,,,,,,,,,,,,,,,,,,,,,,,,,,,,,,,,,,,,,,,,,,,,,,,,,,,,,,,,,,,,,,,,,,,
,,5de0b69ba91be311cb773b0b,2022-09-08_09h56.12.123,CGTgamblingSpanTasks,2022.2.1,Win32,59.09816205,,,,,,,,2.7911,,,,,,,,,,,,,,1,n,1.2089,11.39288827,0,4.2911,1.5,,,,,,20.97851654,0,11.39288827,,,,,,,,,,,,,0,77,77,2,1,0.088791079,0,,,,,,,,,,,,,,,,,,,,,,,,,,,,,,,,,,,,,,,,,,,,,,,,,,,,,,,,,,,,,,,,,,,,,,,,,,,,,,,,
,,5de0b69ba91be311cb773b0b,2022-09-08_09h56.12.123,CGTgamblingSpanTasks,2022.2.1,Win32,59.09816205,,,,,,,,3.0736,,,,,,,,,,,,,,1,v,0.9264,21.03408097,1,4.0736,1,,,,,,21.03408097,0,2.208275162,,,,,,,,,,,,,0,78,78,0,1,0.485031246,1,,,,,,,,,,,,,,,,,,,,,,,,,,,,,,,,,,,,,,,,,,,,,,,,,,,,,,,,,,,,,,,,,,,,,,,,,,,,,,,,
,,5de0b69ba91be311cb773b0b,2022-09-08_09h56.12.123,CGTgamblingSpanTasks,2022.2.1,Win32,59.09816205,,,,,,,,3.2248,,,,,,,,,,,,,,2,n,0.7752,0,1,4.7248,1.5,,,,,,28.94627214,0,2.701896413,,,,,,,,,,,,,0,79,79,111,1,0.515860759,1,,,,,,,,,,,,,,,,,,,,,,,,,,,,,,,,,,,,,,,,,,,,,,,,,,,,,,,,,,,,,,,,,,,,,,,,,,,,,,,,
,,5de0b69ba91be311cb773b0b,2022-09-08_09h56.12.123,CGTgamblingSpanTasks,2022.2.1,Win32,59.09816205,,,,,,,,3.1143,,,,,,,,,,,,,,1,v,0.8857,21.16780451,1,4.6143,1.5,,,,,,21.16780451,0,2.469465385,,,,,,,,,,,,,0,80,80,32,1,0.456531699,1,,,,,,,,,,,,,,,,,,,,,,,,,,,,,,,,,,,,,,,,,,,,,,,,,,,,,,,,,,,,,,,,,,,,,,,,,,,,,,,,
,,5de0b69ba91be311cb773b0b,2022-09-08_09h56.12.123,CGTgamblingSpanTasks,2022.2.1,Win32,59.09816205,,,,,,,,3.1084,,,,,,,,,,,,,,1,n,0.8916,10.41201161,0,4.6084,1.5,,,,,,6.307062696,0,10.41201161,,,,,,,,,,,,,0,81,81,23,1,0.018187109,0,,,,,,,,,,,,,,,,,,,,,,,,,,,,,,,,,,,,,,,,,,,,,,,,,,,,,,,,,,,,,,,,,,,,,,,,,,,,,,,,
,,5de0b69ba91be311cb773b0b,2022-09-08_09h56.12.123,CGTgamblingSpanTasks,2022.2.1,Win32,59.09816205,,,,,,,,3.233,,,,,,,,,,,,,,1,n,0.767,11.61882862,0,4.733,1.5,,,,,,4.022743614,0,11.61882862,,,,,,,,,,,,,0,82,82,38,1,0.011499376,0,,,,,,,,,,,,,,,,,,,,,,,,,,,,,,,,,,,,,,,,,,,,,,,,,,,,,,,,,,,,,,,,,,,,,,,,,,,,,,,,
,,5de0b69ba91be311cb773b0b,2022-09-08_09h56.12.123,CGTgamblingSpanTasks,2022.2.1,Win32,59.09816205,,,,,,,,2.8834,,,,,,,,,,,,,,1,n,1.1166,10.68505773,0,4.3834,1.5,,,,,,17.64114152,0,10.68505773,,,,,,,,,,,,,0,83,83,98,1,0.074299362,0,,,,,,,,,,,,,,,,,,,,,,,,,,,,,,,,,,,,,,,,,,,,,,,,,,,,,,,,,,,,,,,,,,,,,,,,,,,,,,,,
,,5de0b69ba91be311cb773b0b,2022-09-08_09h56.12.123,CGTgamblingSpanTasks,2022.2.1,Win32,59.09816205,,,,,,,,2.9598,,,,,,,,,,,,,,1,v,1.0402,17.23907308,1,3.9598,1,,,,,,17.23907308,0,2.055848574,,,,,,,,,,,,,0,84,84,66,1,0.450504458,1,,,,,,,,,,,,,,,,,,,,,,,,,,,,,,,,,,,,,,,,,,,,,,,,,,,,,,,,,,,,,,,,,,,,,,,,,,,,,,,,
,,5de0b69ba91be311cb773b0b,2022-09-08_09h56.12.123,CGTgamblingSpanTasks,2022.2.1,Win32,59.09816205,,,,,,,,3.1107,,,,,,,,,,,,,,2,n,0.8893,27.88092897,1,4.6107,1.5,,,,,,27.88092897,0,2.771762788,,,,,,,,,,,,,0,85,85,117,1,0.499466648,1,,,,,,,,,,,,,,,,,,,,,,,,,,,,,,,,,,,,,,,,,,,,,,,,,,,,,,,,,,,,,,,,,,,,,,,,,,,,,,,,
,,5de0b69ba91be311cb773b0b,2022-09-08_09h56.12.123,CGTgamblingSpanTasks,2022.2.1,Win32,59.09816205,,,,,,,,3.1012,,,,,,,,,,,,,,2,n,0.8988,0,1,4.1012,1,,,,,,27.4965044,0,2.461467004,,,,,,,,,,,,,0,86,86,36,1,0.526550878,1,,,,,,,,,,,,,,,,,,,,,,,,,,,,,,,,,,,,,,,,,,,,,,,,,,,,,,,,,,,,,,,,,,,,,,,,,,,,,,,,
,,5de0b69ba91be311cb773b0b,2022-09-08_09h56.12.123,CGTgamblingSpanTasks,2022.2.1,Win32,59.09816205,,,,,,,,2.6806,,,,,,,,,,,,,,1,v,1.3194,17.92584289,1,4.1806,1.5,,,,,,17.92584289,0,1.878232496,,,,,,,,,,,,,0,87,87,5,1,0.485559263,1,,,,,,,,,,,,,,,,,,,,,,,,,,,,,,,,,,,,,,,,,,,,,,,,,,,,,,,,,,,,,,,,,,,,,,,,,,,,,,,,
,,5de0b69ba91be311cb773b0b,2022-09-08_09h56.12.123,CGTgamblingSpanTasks,2022.2.1,Win32,59.09816205,,,,,,,,2.7775,,,,,,,,,,,,,,1,n,1.2225,5.526483034,0,4.2775,1.5,,,,,,9.725876653,0,5.526483034,,,,,,,,,,,,,0,88,88,44,1,0.082550696,0,,,,,,,,,,,,,,,,,,,,,,,,,,,,,,,,,,,,,,,,,,,,,,,,,,,,,,,,,,,,,,,,,,,,,,,,,,,,,,,,
,,5de0b69ba91be311cb773b0b,2022-09-08_09h56.12.123,CGTgamblingSpanTasks,2022.2.1,Win32,59.09816205,,,,,,,,2.7775,,,,,,,,,,,,,,1,v,1.2225,26.4985979,1,4.2775,1.5,,,,,,26.4985979,0,0.051324376,,,,,,,,,,,,,0,89,89,106,1,0.918747215,0,,,,,,,,,,,,,,,,,,,,,,,,,,,,,,,,,,,,,,,,,,,,,,,,,,,,,,,,,,,,,,,,,,,,,,,,,,,,,,,,
,,5de0b69ba91be311cb773b0b,2022-09-08_09h56.12.123,CGTgamblingSpanTasks,2022.2.1,Win32,59.09816205,,,,,,,,2.9023,,,,,,,,,,,,,,1,v,1.0977,8.217594828,1,3.9023,1,,,,,,8.217594828,0,0.951019374,,,,,,,,,,,,,0,90,90,87,1,0.458722936,1,,,,,,,,,,,,,,,,,,,,,,,,,,,,,,,,,,,,,,,,,,,,,,,,,,,,,,,,,,,,,,,,,,,,,,,,,,,,,,,,
,,5de0b69ba91be311cb773b0b,2022-09-08_09h56.12.123,CGTgamblingSpanTasks,2022.2.1,Win32,59.09816205,,,,,,,,2.9867,,,,,,,,,,,,,,2,n,1.0133,21.7711579,1,3.9867,1,,,,,,21.7711579,0,2.502728921,,,,,,,,,,,,,0,91,91,101,1,0.460552621,1,,,,,,,,,,,,,,,,,,,,,,,,,,,,,,,,,,,,,,,,,,,,,,,,,,,,,,,,,,,,,,,,,,,,,,,,,,,,,,,,
,,5de0b69ba91be311cb773b0b,2022-09-08_09h56.12.123,CGTgamblingSpanTasks,2022.2.1,Win32,59.09816205,,,,,,,,2.9451,,,,,,,,,,,,,,1,v,1.0549,24.8002852,1,3.9451,1,,,,,,24.8002852,0,0.071848086,,,,,,,,,,,,,0,92,92,16,1,0.90783559,0,,,,,,,,,,,,,,,,,,,,,,,,,,,,,,,,,,,,,,,,,,,,,,,,,,,,,,,,,,,,,,,,,,,,,,,,,,,,,,,,
,,5de0b69ba91be311cb773b0b,2022-09-08_09h56.12.123,CGTgamblingSpanTasks,2022.2.1,Win32,59.09816205,,,,,,,,2.8323,,,,,,,,,,,,,,1,v,1.1677,17.5608285,1,3.8323,1,,,,,,17.5608285,0,1.825111303,,,,,,,,,,,,,0,93,93,104,1,0.487721116,1,,,,,,,,,,,,,,,,,,,,,,,,,,,,,,,,,,,,,,,,,,,,,,,,,,,,,,,,,,,,,,,,,,,,,,,,,,,,,,,,
,,5de0b69ba91be311cb773b0b,2022-09-08_09h56.12.123,CGTgamblingSpanTasks,2022.2.1,Win32,59.09816205,,,,,,,,2.8284,,,,,,,,,,,,,,2,v,1.1716,11.93550497,0,4.3284,1.5,,,,,,14.20587264,0,11.93550497,,,,,,,,,,,,,0,94,94,21,1,0.041340301,0,,,,,,,,,,,,,,,,,,,,,,,,,,,,,,,,,,,,,,,,,,,,,,,,,,,,,,,,,,,,,,,,,,,,,,,,,,,,,,,,
,,5de0b69ba91be311cb773b0b,2022-09-08_09h56.12.123,CGTgamblingSpanTasks,2022.2.1,Win32,59.09816205,,,,,,,,3.0516,,,,,,,,,,,,,,1,v,0.9484,0,1,4.5516,1.5,,,,,,28.13634754,0,2.532806323,,,,,,,,,,,,,0,95,95,28,1,0.525136524,1,,,,,,,,,,,,,,,,,,,,,,,,,,,,,,,,,,,,,,,,,,,,,,,,,,,,,,,,,,,,,,,,,,,,,,,,,,,,,,,,
,,5de0b69ba91be311cb773b0b,2022-09-08_09h56.12.123,CGTgamblingSpanTasks,2022.2.1,Win32,59.09816205,,,,,,,,2.1327,,,,,,,,,,,,,,1,n,1.8673,3.877530383,0,3.1327,1,,,,,,3.471484939,0,3.877530383,,,,,,,,,,,,,0,96,96,40,1,0.02623078,0,,,,,,,,,,,,,,,,,,,,,,,,,,,,,,,,,,,,,,,,,,,,,,,,,,,,,,,,,,,,,,,,,,,,,,,,,,,,,,,,
,,5de0b69ba91be311cb773b0b,2022-09-08_09h56.12.123,CGTgamblingSpanTasks,2022.2.1,Win32,59.09816205,,,,,,,,2.2814,,,,,,,,,,,,,,2,n,1.7186,0,1,3.2814,1,,,,,,22.87092517,0,0.059276504,,,,,,,,,,,,,0,97,97,27,1,0.911114935,0,,,,,,,,,,,,,,,,,,,,,,,,,,,,,,,,,,,,,,,,,,,,,,,,,,,,,,,,,,,,,,,,,,,,,,,,,,,,,,,,
,,5de0b69ba91be311cb773b0b,2022-09-08_09h56.12.123,CGTgamblingSpanTasks,2022.2.1,Win32,59.09816205,,,,,,,,2.9481,,,,,,,,,,,,,,2,n,1.0519,0,1,4.4481,1.5,,,,,,22.72923833,0,0.067170781,,,,,,,,,,,,,0,98,98,86,1,0.907226703,0,,,,,,,,,,,,,,,,,,,,,,,,,,,,,,,,,,,,,,,,,,,,,,,,,,,,,,,,,,,,,,,,,,,,,,,,,,,,,,,,
,,5de0b69ba91be311cb773b0b,2022-09-08_09h56.12.123,CGTgamblingSpanTasks,2022.2.1,Win32,59.09816205,,,,,,,,2.8924,,,,,,,,,,,,,,1,v,1.1076,0,1,3.8924,1,,,,,,17.85020524,0,2.058701084,,,,,,,,,,,,,0,99,99,25,1,0.459662216,1,,,,,,,,,,,,,,,,,,,,,,,,,,,,,,,,,,,,,,,,,,,,,,,,,,,,,,,,,,,,,,,,,,,,,,,,,,,,,,,,
,,5de0b69ba91be311cb773b0b,2022-09-08_09h56.12.123,CGTgamblingSpanTasks,2022.2.1,Win32,59.09816205,,,,,,,,3.1105,,,,,,,,,,,,,,1,n,0.8895,11.19311486,0,4.6105,1.5,,,,,,8.17598802,0,11.19311486,,,,,,,,,,,,,0,100,100,110,1,0.021568003,0,,,,,,,,,,,,,,,,,,,,,,,,,,,,,,,,,,,,,,,,,,,,,,,,,,,,,,,,,,,,,,,,,,,,,,,,,,,,,,,,
,,5de0b69ba91be311cb773b0b,2022-09-08_09h56.12.123,CGTgamblingSpanTasks,2022.2.1,Win32,59.09816205,,,,,,,,3.1047,,,,,,,,,,,,,,2,n,0.8953,0,1,4.1047,1,,,,,,13.84410806,0,1.535873964,,,,,,,,,,,,,0,101,101,88,1,0.470209002,1,,,,,,,,,,,,,,,,,,,,,,,,,,,,,,,,,,,,,,,,,,,,,,,,,,,,,,,,,,,,,,,,,,,,,,,,,,,,,,,,
,,5de0b69ba91be311cb773b0b,2022-09-08_09h56.12.123,CGTgamblingSpanTasks,2022.2.1,Win32,59.09816205,,,,,,,,3.0164,,,,,,,,,,,,,,1,v,0.9836,0,1,4.0164,1,,,,,,21.39646914,0,0.072474078,,,,,,,,,,,,,0,102,102,3,1,0.902848133,0,,,,,,,,,,,,,,,,,,,,,,,,,,,,,,,,,,,,,,,,,,,,,,,,,,,,,,,,,,,,,,,,,,,,,,,,,,,,,,,,
,,5de0b69ba91be311cb773b0b,2022-09-08_09h56.12.123,CGTgamblingSpanTasks,2022.2.1,Win32,59.09816205,,,,,,,,3.1329,,,,,,,,,,,,,,2,n,0.8671,0,1,4.6329,1.5,,,,,,19.5450126,0,2.123581464,,,,,,,,,,,,,0,103,103,65,1,0.475836144,1,,,,,,,,,,,,,,,,,,,,,,,,,,,,,,,,,,,,,,,,,,,,,,,,,,,,,,,,,,,,,,,,,,,,,,,,,,,,,,,,
,,5de0b69ba91be311cb773b0b,2022-09-08_09h56.12.123,CGTgamblingSpanTasks,2022.2.1,Win32,59.09816205,,,,,,,,3.1624,,,,,,,,,,,,,,2,n,0.8376,18.20422443,1,4.6624,1.5,,,,,,18.20422443,0,1.635040165,,,,,,,,,,,,,0,104,104,82,1,0.525708991,1,,,,,,,,,,,,,,,,,,,,,,,,,,,,,,,,,,,,,,,,,,,,,,,,,,,,,,,,,,,,,,,,,,,,,,,,,,,,,,,,
,,5de0b69ba91be311cb773b0b,2022-09-08_09h56.12.123,CGTgamblingSpanTasks,2022.2.1,Win32,59.09816205,,,,,,,,2.5862,,,,,,,,,,,,,,1,v,1.4138,0,1,3.5862,1,,,,,,18.50662664,0,0.052546026,,,,,,,,,,,,,0,105,105,112,1,0.908444837,0,,,,,,,,,,,,,,,,,,,,,,,,,,,,,,,,,,,,,,,,,,,,,,,,,,,,,,,,,,,,,,,,,,,,,,,,,,,,,,,,
,,5de0b69ba91be311cb773b0b,2022-09-08_09h56.12.123,CGTgamblingSpanTasks,2022.2.1,Win32,59.09816205,,,,,,,,3.0695,,,,,,,,,,,,,,2,n,0.9305,0,1,4.5695,1.5,,,,,,25.76582409,0,2.393193076,,,,,,,,,,,,,0,106,106,46,1,0.517129855,1,,,,,,,,,,,,,,,,,,,,,,,,,,,,,,,,,,,,,,,,,,,,,,,,,,,,,,,,,,,,,,,,,,,,,,,,,,,,,,,,
,,5de0b69ba91be311cb773b0b,2022-09-08_09h56.12.123,CGTgamblingSpanTasks,2022.2.1,Win32,59.09816205,,,,,,,,3.3011,,,,,,,,,,,,,,1,v,0.6989,0,1,4.3011,1,,,,,,27.94544945,0,2.32030209,,,,,,,,,,,,,0,107,107,115,1,0.545390564,1,,,,,,,,,,,,,,,,,,,,,,,,,,,,,,,,,,,,,,,,,,,,,,,,,,,,,,,,,,,,,,,,,,,,,,,,,,,,,,,,
,,5de0b69ba91be311cb773b0b,2022-09-08_09h56.12.123,CGTgamblingSpanTasks,2022.2.1,Win32,59.09816205,,,,,,,,2.9386,,,,,,,,,,,,,,1,v,1.0614,0,1,3.9386,1,,,,,,21.00799273,0,0.067969053,,,,,,,,,,,,,0,108,108,92,1,0.904360262,0,,,,,,,,,,,,,,,,,,,,,,,,,,,,,,,,,,,,,,,,,,,,,,,,,,,,,,,,,,,,,,,,,,,,,,,,,,,,,,,,
,,5de0b69ba91be311cb773b0b,2022-09-08_09h56.12.123,CGTgamblingSpanTasks,2022.2.1,Win32,59.09816205,,,,,,,,2.9166,,,,,,,,,,,,,,1,v,1.0834,11.16819157,1,4.4166,1.5,,,,,,11.16819157,0,0.941456753,,,,,,,,,,,,,0,109,109,45,1,0.54163803,1,,,,,,,,,,,,,,,,,,,,,,,,,,,,,,,,,,,,,,,,,,,,,,,,,,,,,,,,,,,,,,,,,,,,,,,,,,,,,,,,
,,5de0b69ba91be311cb773b0b,2022-09-08_09h56.12.123,CGTgamblingSpanTasks,2022.2.1,Win32,59.09816205,,,,,,,,3.1659,,,,,,,,,,,,,,1,v,0.8341,27.76752685,1,4.1659,1,,,,,,27.76752685,0,0.083968035,,,,,,,,,,,,,0,110,110,13,1,0.906513967,0,,,,,,,,,,,,,,,,,,,,,,,,,,,,,,,,,,,,,,,,,,,,,,,,,,,,,,,,,,,,,,,,,,,,,,,,,,,,,,,,
,,5de0b69ba91be311cb773b0b,2022-09-08_09h56.12.123,CGTgamblingSpanTasks,2022.2.1,Win32,59.09816205,,,,,,,,2.4421,,,,,,,,,,,,,,2,v,1.5579,11.6744431,0,3.4421,1,,,,,,10.43004651,0,11.6744431,,,,,,,,,,,,,0,111,111,15,1,0.026176489,0,,,,,,,,,,,,,,,,,,,,,,,,,,,,,,,,,,,,,,,,,,,,,,,,,,,,,,,,,,,,,,,,,,,,,,,,,,,,,,,,
,,5de0b69ba91be311cb773b0b,2022-09-08_09h56.12.123,CGTgamblingSpanTasks,2022.2.1,Win32,59.09816205,,,,,,,,2.5519,,,,,,,,,,,,,,1,v,1.4481,9.012590634,1,4.0519,1.5,,,,,,9.012590634,0,1.002188111,,,,,,,,,,,,,0,112,112,12,1,0.46958041,1,,,,,,,,,,,,,,,,,,,,,,,,,,,,,,,,,,,,,,,,,,,,,,,,,,,,,,,,,,,,,,,,,,,,,,,,,,,,,,,,
,,5de0b69ba91be311cb773b0b,2022-09-08_09h56.12.123,CGTgamblingSpanTasks,2022.2.1,Win32,59.09816205,,,,,,,,2.8429,,,,,,,,,,,,,,2,n,1.1571,0,1,4.3429,1.5,,,,,,28.14876717,0,3.117906378,,,,,,,,,,,,,0,113,113,76,1,0.470636736,1,,,,,,,,,,,,,,,,,,,,,,,,,,,,,,,,,,,,,,,,,,,,,,,,,,,,,,,,,,,,,,,,,,,,,,,,,,,,,,,,
,,5de0b69ba91be311cb773b0b,2022-09-08_09h56.12.123,CGTgamblingSpanTasks,2022.2.1,Win32,59.09816205,,,,,,,,3.1123,,,,,,,,,,,,,,2,n,0.8877,27.38828234,1,4.1123,1,,,,,,27.38828234,0,0.0639233,,,,,,,,,,,,,0,114,114,43,1,0.914010176,0,,,,,,,,,,,,,,,,,,,,,,,,,,,,,,,,,,,,,,,,,,,,,,,,,,,,,,,,,,,,,,,,,,,,,,,,,,,,,,,,
,,5de0b69ba91be311cb773b0b,2022-09-08_09h56.12.123,CGTgamblingSpanTasks,2022.2.1,Win32,59.09816205,,,,,,,,2.7857,,,,,,,,,,,,,,2,v,1.2143,5.683635938,0,3.7857,1,,,,,,4.941039335,0,5.683635938,,,,,,,,,,,,,0,115,115,9,1,0.025481984,0,,,,,,,,,,,,,,,,,,,,,,,,,,,,,,,,,,,,,,,,,,,,,,,,,,,,,,,,,,,,,,,,,,,,,,,,,,,,,,,,
,,5de0b69ba91be311cb773b0b,2022-09-08_09h56.12.123,CGTgamblingSpanTasks,2022.2.1,Win32,59.09816205,,,,,,,,2.6695,,,,,,,,,,,,,,1,v,1.3305,0,1,3.6695,1,,,,,,24.35708027,0,2.738695417,,,,,,,,,,,,,0,116,116,114,1,0.466573634,1,,,,,,,,,,,,,,,,,,,,,,,,,,,,,,,,,,,,,,,,,,,,,,,,,,,,,,,,,,,,,,,,,,,,,,,,,,,,,,,,
,,5de0b69ba91be311cb773b0b,2022-09-08_09h56.12.123,CGTgamblingSpanTasks,2022.2.1,Win32,59.09816205,,,,,,,,3.0184,,,,,,,,,,,,,,1,v,0.9816,0,1,4.5184,1.5,,,,,,19.3050342,0,2.030232342,,,,,,,,,,,,,0,117,117,73,1,0.484573227,1,,,,,,,,,,,,,,,,,,,,,,,,,,,,,,,,,,,,,,,,,,,,,,,,,,,,,,,,,,,,,,,,,,,,,,,,,,,,,,,,
,,5de0b69ba91be311cb773b0b,2022-09-08_09h56.12.123,CGTgamblingSpanTasks,2022.2.1,Win32,59.09816205,,,,,,,,2.9471,,,,,,,,,,,,,,2,v,1.0529,11.35147481,0,3.9471,1,,,,,,17.67865084,0,11.35147481,,,,,,,,,,,,,0,118,118,91,1,0.067304606,0,,,,,,,,,,,,,,,,,,,,,,,,,,,,,,,,,,,,,,,,,,,,,,,,,,,,,,,,,,,,,,,,,,,,,,,,,,,,,,,,
,,5de0b69ba91be311cb773b0b,2022-09-08_09h56.12.123,CGTgamblingSpanTasks,2022.2.1,Win32,59.09816205,,,,,,,,3.0164,,,,,,,,,,,,,,1,v,0.9836,0,1,4.0164,1,,,,,,27.12325385,0,0.080932047,,,,,,,,,,,,,0,119,119,14,1,0.906929184,0,,,,,,,,,,,,,,,,,,,,,,,,,,,,,,,,,,,,,,,,,,,,,,,,,,,,,,,,,,,,,,,,,,,,,,,,,,,,,,,,
,,5de0b69ba91be311cb773b0b,2022-09-08_09h56.12.123,CGTgamblingSpanTasks,2022.2.1,Win32,59.09816205,,,,,,,,,,,,,,,,,,,,,,,,,,,,,,,,,,,,,,,,,,,,,,,,,,,,,,,,return,54.2815,,,,,,,,,,,,,,,,,,,,,,,,,,,,,,,,,,,,,,,,,,,,,,,,,,,,,,,,,,,,,,,,,,,,,,,,,,,,,,
,,5de0b69ba91be311cb773b0b,2022-09-08_09h56.12.123,CGTgamblingSpanTasks,2022.2.1,Win32,59.09816205,,,,,,,,,,,,,,,,,,,,,,,,,,,,,,,,,,,,,,,,,,,,,,,,,,,,,,,,,,return,6.601,,,,,,,,,,,,,,,,,,,,,,,,,,,,,,,,,,,,,,,,,,,,,,,,,,,,,,,,,,,,,,,,,,,,,,,,,,,,
,,5de0b69ba91be311cb773b0b,2022-09-08_09h56.12.123,CGTgamblingSpanTasks,2022.2.1,Win32,59.09816205,,,,,,,,,,,,,,,,,,,,,,,,,,,,,,,,,,,,,,,,,,,,,,,,,,,,,,,,,,,,return,13.1669,,,,,,,,,,,,,,,,,,,,,,,,,,,,,,,,,,,,,,,,,,,,,,,,,,,,,,,,,,,,,,,,,,,,,,,,,,
,,5de0b69ba91be311cb773b0b,2022-09-08_09h56.12.123,CGTgamblingSpanTasks,2022.2.1,Win32,59.09816205,,,,,,,,,,,,,,,,,,,,,,,,,,,,,,,,,,,,,,,,,,,,,,,,,,,,,,,,,,,,,,342,1,-0.028703704,-0.422222222,1,0,0,cont_buttonPractice,0,0,0,0,1,3,342,24,2,42,,,,,,,,,,,,,,,,,,,,,,,,,,,,,,,,,,,,,,,,,,,,,,,,,,,,,,,,
,,5de0b69ba91be311cb773b0b,2022-09-08_09h56.12.123,CGTgamblingSpanTasks,2022.2.1,Win32,59.09816205,,,,,,,,,,,,,,,,,,,,,,,,,,,,,,,,,,,,,,,,,,,,,,,,,,,,,,,,,,,,,,937,1,0.083333333,-0.385185185,1,0,0,cont_buttonPractice,0,1,1,1,1,3,937,73,2,37,,,,,,,,,,,,,,,,,,,,,,,,,,,,,,,,,,,,,,,,,,,,,,,,,,,,,,,,
,,5de0b69ba91be311cb773b0b,2022-09-08_09h56.12.123,CGTgamblingSpanTasks,2022.2.1,Win32,59.09816205,,,,,,,,,,,,,,,,,,,,,,,,,,,,,,,,,,,,,,,,,,,,,,,,,,,,,,,,,,,,,,,,,,,,,,,,,,,,,,,,return,6.0785,,,,,,,,,,,,,,,,,,,,,,,,,,,,,,,,,,,,,,,,,,,,,,,,,,,,,,
,,5de0b69ba91be311cb773b0b,2022-09-08_09h56.12.123,CGTgamblingSpanTasks,2022.2.1,Win32,59.09816205,,,,,,,,,,,,,,,,,,,,,,,,,,,,,,,,,,,,,,,,,,,,,,,,,,,,,,,,,,,,,,,,,,,,,,,,,,,,,,,,,,"[5,3,2]",0,0,0,0,1,,,,,,,,,,,,,,,,,,,,,,,,,,,,,,,,,,,,,,,,,,,,,,,,
,,5de0b69ba91be311cb773b0b,2022-09-08_09h56.12.123,CGTgamblingSpanTasks,2022.2.1,Win32,59.09816205,,,,,,,,,,,,,,,,,,,,,,,,,,,,,,,,,,,,,,,,,,,,,,,,,,,,,,,,,,,,,,,,,,,,,,,,,,,,,,,,,,"[5,3,2]",1,0,1,0,1,,,,,,,,,,,,,,,,,,,,,,,,,,,,,,,,,,,,,,,,,,,,,,,,
,,5de0b69ba91be311cb773b0b,2022-09-08_09h56.12.123,CGTgamblingSpanTasks,2022.2.1,Win32,59.09816205,,,,,,,,,,,,,,,,,,,,,,,,,,,,,,,,,,,,,,,,,,,,,,,,,,,,,,,,,,,,,,,,,,,,,,,,,,,,,,,,,,"[5,3,2]",2,0,2,0,1,,,,,,,,,,,,,,,,,,,,,,,,,,,,,,,,,,,,,,,,,,,,,,,,
,,5de0b69ba91be311cb773b0b,2022-09-08_09h56.12.123,CGTgamblingSpanTasks,2022.2.1,Win32,59.09816205,,,,,,,,,,,,,,,,,,,,,,,,,,,,,,,,,,,,,,,,,,,,,,,,,,,,,,,,,,,,,,,1,,,,,,,,,,,,,,,,,,,,,,,,,532,-0.013888889,-0.4,1,0,0,cont_button,0,0,0,0,1,1,,,,,,,,,,,,,,,,,,,,,,,,,,,,,,,,,,,
,,5de0b69ba91be311cb773b0b,2022-09-08_09h56.12.123,CGTgamblingSpanTasks,2022.2.1,Win32,59.09816205,,,,,,,,,,,,,,,,,,,,,,,,,,,,,,,,,,,,,,,,,,,,,,,,,,,,,,,,,,,,,,,,,,,,,,,,,,,,,,,,,,"[8,2,6,9]",0,0,0,0,1,,,,,,,,,,,,,,,,,,,,,,,,,,,,,,,,,,,,,,,,,,,,,,,,
,,5de0b69ba91be311cb773b0b,2022-09-08_09h56.12.123,CGTgamblingSpanTasks,2022.2.1,Win32,59.09816205,,,,,,,,,,,,,,,,,,,,,,,,,,,,,,,,,,,,,,,,,,,,,,,,,,,,,,,,,,,,,,,,,,,,,,,,,,,,,,,,,,"[8,2,6,9]",1,0,1,0,1,,,,,,,,,,,,,,,,,,,,,,,,,,,,,,,,,,,,,,,,,,,,,,,,
,,5de0b69ba91be311cb773b0b,2022-09-08_09h56.12.123,CGTgamblingSpanTasks,2022.2.1,Win32,59.09816205,,,,,,,,,,,,,,,,,,,,,,,,,,,,,,,,,,,,,,,,,,,,,,,,,,,,,,,,,,,,,,,,,,,,,,,,,,,,,,,,,,"[8,2,6,9]",2,0,2,0,1,,,,,,,,,,,,,,,,,,,,,,,,,,,,,,,,,,,,,,,,,,,,,,,,
,,5de0b69ba91be311cb773b0b,2022-09-08_09h56.12.123,CGTgamblingSpanTasks,2022.2.1,Win32,59.09816205,,,,,,,,,,,,,,,,,,,,,,,,,,,,,,,,,,,,,,,,,,,,,,,,,,,,,,,,,,,,,,,,,,,,,,,,,,,,,,,,,,"[8,2,6,9]",3,0,3,0,1,,,,,,,,,,,,,,,,,,,,,,,,,,,,,,,,,,,,,,,,,,,,,,,,
,,5de0b69ba91be311cb773b0b,2022-09-08_09h56.12.123,CGTgamblingSpanTasks,2022.2.1,Win32,59.09816205,,,,,,,,,,,,,,,,,,,,,,,,,,,,,,,,,,,,,,,,,,,,,,,,,,,,,,,,,,,,,,,1,,,,,,,,,,,,,,,,,,,,,,,,,8269,-0.013888889,-0.4,1,0,0,cont_button,0,1,1,1,1,2,,,,,,,,,,,,,,,,,,,,,,,,,,,,,,,,,,,
,,5de0b69ba91be311cb773b0b,2022-09-08_09h56.12.123,CGTgamblingSpanTasks,2022.2.1,Win32,59.09816205,,,,,,,,,,,,,,,,,,,,,,,,,,,,,,,,,,,,,,,,,,,,,,,,,,,,,,,,,,,,,,,,,,,,,,,,,,,,,,,,,,"[6,7,5,3,1]",0,0,0,0,1,,,,,,,,,,,,,,,,,,,,,,,,,,,,,,,,,,,,,,,,,,,,,,,,
,,5de0b69ba91be311cb773b0b,2022-09-08_09h56.12.123,CGTgamblingSpanTasks,2022.2.1,Win32,59.09816205,,,,,,,,,,,,,,,,,,,,,,,,,,,,,,,,,,,,,,,,,,,,,,,,,,,,,,,,,,,,,,,,,,,,,,,,,,,,,,,,,,"[6,7,5,3,1]",1,0,1,0,1,,,,,,,,,,,,,,,,,,,,,,,,,,,,,,,,,,,,,,,,,,,,,,,,
,,5de0b69ba91be311cb773b0b,2022-09-08_09h56.12.123,CGTgamblingSpanTasks,2022.2.1,Win32,59.09816205,,,,,,,,,,,,,,,,,,,,,,,,,,,,,,,,,,,,,,,,,,,,,,,,,,,,,,,,,,,,,,,,,,,,,,,,,,,,,,,,,,"[6,7,5,3,1]",2,0,2,0,1,,,,,,,,,,,,,,,,,,,,,,,,,,,,,,,,,,,,,,,,,,,,,,,,
,,5de0b69ba91be311cb773b0b,2022-09-08_09h56.12.123,CGTgamblingSpanTasks,2022.2.1,Win32,59.09816205,,,,,,,,,,,,,,,,,,,,,,,,,,,,,,,,,,,,,,,,,,,,,,,,,,,,,,,,,,,,,,,,,,,,,,,,,,,,,,,,,,"[6,7,5,3,1]",3,0,3,0,1,,,,,,,,,,,,,,,,,,,,,,,,,,,,,,,,,,,,,,,,,,,,,,,,
,,5de0b69ba91be311cb773b0b,2022-09-08_09h56.12.123,CGTgamblingSpanTasks,2022.2.1,Win32,59.09816205,,,,,,,,,,,,,,,,,,,,,,,,,,,,,,,,,,,,,,,,,,,,,,,,,,,,,,,,,,,,,,,,,,,,,,,,,,,,,,,,,,"[6,7,5,3,1]",4,0,4,0,1,,,,,,,,,,,,,,,,,,,,,,,,,,,,,,,,,,,,,,,,,,,,,,,,
,,5de0b69ba91be311cb773b0b,2022-09-08_09h56.12.123,CGTgamblingSpanTasks,2022.2.1,Win32,59.09816205,,,,,,,,,,,,,,,,,,,,,,,,,,,,,,,,,,,,,,,,,,,,,,,,,,,,,,,,,,,,,,,1,,,,,,,,,,,,,,,,,,,,,,,,,67531,-0.013888889,-0.4,1,0,0,cont_button,0,2,2,2,1,3,,,,,,,,,,,,,,,,,,,,,,,,,,,,,,,,,,,
,,5de0b69ba91be311cb773b0b,2022-09-08_09h56.12.123,CGTgamblingSpanTasks,2022.2.1,Win32,59.09816205,,,,,,,,,,,,,,,,,,,,,,,,,,,,,,,,,,,,,,,,,,,,,,,,,,,,,,,,,,,,,,,,,,,,,,,,,,,,,,,,,,"[4,1,7,6,8,5]",0,0,0,0,1,,,,,,,,,,,,,,,,,,,,,,,,,,,,,,,,,,,,,,,,,,,,,,,,
,,5de0b69ba91be311cb773b0b,2022-09-08_09h56.12.123,CGTgamblingSpanTasks,2022.2.1,Win32,59.09816205,,,,,,,,,,,,,,,,,,,,,,,,,,,,,,,,,,,,,,,,,,,,,,,,,,,,,,,,,,,,,,,,,,,,,,,,,,,,,,,,,,"[4,1,7,6,8,5]",1,0,1,0,1,,,,,,,,,,,,,,,,,,,,,,,,,,,,,,,,,,,,,,,,,,,,,,,,
,,5de0b69ba91be311cb773b0b,2022-09-08_09h56.12.123,CGTgamblingSpanTasks,2022.2.1,Win32,59.09816205,,,,,,,,,,,,,,,,,,,,,,,,,,,,,,,,,,,,,,,,,,,,,,,,,,,,,,,,,,,,,,,,,,,,,,,,,,,,,,,,,,"[4,1,7,6,8,5]",2,0,2,0,1,,,,,,,,,,,,,,,,,,,,,,,,,,,,,,,,,,,,,,,,,,,,,,,,
,,5de0b69ba91be311cb773b0b,2022-09-08_09h56.12.123,CGTgamblingSpanTasks,2022.2.1,Win32,59.09816205,,,,,,,,,,,,,,,,,,,,,,,,,,,,,,,,,,,,,,,,,,,,,,,,,,,,,,,,,,,,,,,,,,,,,,,,,,,,,,,,,,"[4,1,7,6,8,5]",3,0,3,0,1,,,,,,,,,,,,,,,,,,,,,,,,,,,,,,,,,,,,,,,,,,,,,,,,
,,5de0b69ba91be311cb773b0b,2022-09-08_09h56.12.123,CGTgamblingSpanTasks,2022.2.1,Win32,59.09816205,,,,,,,,,,,,,,,,,,,,,,,,,,,,,,,,,,,,,,,,,,,,,,,,,,,,,,,,,,,,,,,,,,,,,,,,,,,,,,,,,,"[4,1,7,6,8,5]",4,0,4,0,1,,,,,,,,,,,,,,,,,,,,,,,,,,,,,,,,,,,,,,,,,,,,,,,,
,,5de0b69ba91be311cb773b0b,2022-09-08_09h56.12.123,CGTgamblingSpanTasks,2022.2.1,Win32,59.09816205,,,,,,,,,,,,,,,,,,,,,,,,,,,,,,,,,,,,,,,,,,,,,,,,,,,,,,,,,,,,,,,,,,,,,,,,,,,,,,,,,,"[4,1,7,6,8,5]",5,0,5,0,1,,,,,,,,,,,,,,,,,,,,,,,,,,,,,,,,,,,,,,,,,,,,,,,,
,,5de0b69ba91be311cb773b0b,2022-09-08_09h56.12.123,CGTgamblingSpanTasks,2022.2.1,Win32,59.09816205,,,,,,,,,,,,,,,,,,,,,,,,,,,,,,,,,,,,,,,,,,,,,,,,,,,,,,,,,,,,,,,1,,,,,,,,,,,,,,,,,,,,,,,,,417685,-0.013888889,-0.4,1,0,0,cont_button,0,3,3,3,1,4,,,,,,,,,,,,,,,,,,,,,,,,,,,,,,,,,,,
,,5de0b69ba91be311cb773b0b,2022-09-08_09h56.12.123,CGTgamblingSpanTasks,2022.2.1,Win32,59.09816205,,,,,,,,,,,,,,,,,,,,,,,,,,,,,,,,,,,,,,,,,,,,,,,,,,,,,,,,,,,,,,,,,,,,,,,,,,,,,,,,,,"[9,2,8,6,4,1,5]",0,0,0,0,1,,,,,,,,,,,,,,,,,,,,,,,,,,,,,,,,,,,,,,,,,,,,,,,,
,,5de0b69ba91be311cb773b0b,2022-09-08_09h56.12.123,CGTgamblingSpanTasks,2022.2.1,Win32,59.09816205,,,,,,,,,,,,,,,,,,,,,,,,,,,,,,,,,,,,,,,,,,,,,,,,,,,,,,,,,,,,,,,,,,,,,,,,,,,,,,,,,,"[9,2,8,6,4,1,5]",1,0,1,0,1,,,,,,,,,,,,,,,,,,,,,,,,,,,,,,,,,,,,,,,,,,,,,,,,
,,5de0b69ba91be311cb773b0b,2022-09-08_09h56.12.123,CGTgamblingSpanTasks,2022.2.1,Win32,59.09816205,,,,,,,,,,,,,,,,,,,,,,,,,,,,,,,,,,,,,,,,,,,,,,,,,,,,,,,,,,,,,,,,,,,,,,,,,,,,,,,,,,"[9,2,8,6,4,1,5]",2,0,2,0,1,,,,,,,,,,,,,,,,,,,,,,,,,,,,,,,,,,,,,,,,,,,,,,,,
,,5de0b69ba91be311cb773b0b,2022-09-08_09h56.12.123,CGTgamblingSpanTasks,2022.2.1,Win32,59.09816205,,,,,,,,,,,,,,,,,,,,,,,,,,,,,,,,,,,,,,,,,,,,,,,,,,,,,,,,,,,,,,,,,,,,,,,,,,,,,,,,,,"[9,2,8,6,4,1,5]",3,0,3,0,1,,,,,,,,,,,,,,,,,,,,,,,,,,,,,,,,,,,,,,,,,,,,,,,,
,,5de0b69ba91be311cb773b0b,2022-09-08_09h56.12.123,CGTgamblingSpanTasks,2022.2.1,Win32,59.09816205,,,,,,,,,,,,,,,,,,,,,,,,,,,,,,,,,,,,,,,,,,,,,,,,,,,,,,,,,,,,,,,,,,,,,,,,,,,,,,,,,,"[9,2,8,6,4,1,5]",4,0,4,0,1,,,,,,,,,,,,,,,,,,,,,,,,,,,,,,,,,,,,,,,,,,,,,,,,
,,5de0b69ba91be311cb773b0b,2022-09-08_09h56.12.123,CGTgamblingSpanTasks,2022.2.1,Win32,59.09816205,,,,,,,,,,,,,,,,,,,,,,,,,,,,,,,,,,,,,,,,,,,,,,,,,,,,,,,,,,,,,,,,,,,,,,,,,,,,,,,,,,"[9,2,8,6,4,1,5]",5,0,5,0,1,,,,,,,,,,,,,,,,,,,,,,,,,,,,,,,,,,,,,,,,,,,,,,,,
,,5de0b69ba91be311cb773b0b,2022-09-08_09h56.12.123,CGTgamblingSpanTasks,2022.2.1,Win32,59.09816205,,,,,,,,,,,,,,,,,,,,,,,,,,,,,,,,,,,,,,,,,,,,,,,,,,,,,,,,,,,,,,,,,,,,,,,,,,,,,,,,,,"[9,2,8,6,4,1,5]",6,0,6,0,1,,,,,,,,,,,,,,,,,,,,,,,,,,,,,,,,,,,,,,,,,,,,,,,,
,,5de0b69ba91be311cb773b0b,2022-09-08_09h56.12.123,CGTgamblingSpanTasks,2022.2.1,Win32,59.09816205,,,,,,,,,,,,,,,,,,,,,,,,,,,,,,,,,,,,,,,,,,,,,,,,,,,,,,,,,,,,,,,0,,,,,,,,,,,,,,,,,,,,,,,,,9286145,-0.013888889,-0.4,1,0,0,cont_button,0,4,4,4,1,5,,,,,,,,,,,,,,,,,,,,,,,,,,,,,,,,,,,
,,5de0b69ba91be311cb773b0b,2022-09-08_09h56.12.123,CGTgamblingSpanTasks,2022.2.1,Win32,59.09816205,,,,,,,,,,,,,,,,,,,,,,,,,,,,,,,,,,,,,,,,,,,,,,,,,,,,,,,,,,,,,,,,,,,,,,,,,,,,,,,,,,"[9,3,2,8,6,1,7]",0,0,0,0,1,,,,,,,,,,,,,,,,,,,,,,,,,,,,,,,,,,,,,,,,,,,,,,,,
,,5de0b69ba91be311cb773b0b,2022-09-08_09h56.12.123,CGTgamblingSpanTasks,2022.2.1,Win32,59.09816205,,,,,,,,,,,,,,,,,,,,,,,,,,,,,,,,,,,,,,,,,,,,,,,,,,,,,,,,,,,,,,,,,,,,,,,,,,,,,,,,,,"[9,3,2,8,6,1,7]",1,0,1,0,1,,,,,,,,,,,,,,,,,,,,,,,,,,,,,,,,,,,,,,,,,,,,,,,,
,,5de0b69ba91be311cb773b0b,2022-09-08_09h56.12.123,CGTgamblingSpanTasks,2022.2.1,Win32,59.09816205,,,,,,,,,,,,,,,,,,,,,,,,,,,,,,,,,,,,,,,,,,,,,,,,,,,,,,,,,,,,,,,,,,,,,,,,,,,,,,,,,,"[9,3,2,8,6,1,7]",2,0,2,0,1,,,,,,,,,,,,,,,,,,,,,,,,,,,,,,,,,,,,,,,,,,,,,,,,
,,5de0b69ba91be311cb773b0b,2022-09-08_09h56.12.123,CGTgamblingSpanTasks,2022.2.1,Win32,59.09816205,,,,,,,,,,,,,,,,,,,,,,,,,,,,,,,,,,,,,,,,,,,,,,,,,,,,,,,,,,,,,,,,,,,,,,,,,,,,,,,,,,"[9,3,2,8,6,1,7]",3,0,3,0,1,,,,,,,,,,,,,,,,,,,,,,,,,,,,,,,,,,,,,,,,,,,,,,,,
,,5de0b69ba91be311cb773b0b,2022-09-08_09h56.12.123,CGTgamblingSpanTasks,2022.2.1,Win32,59.09816205,,,,,,,,,,,,,,,,,,,,,,,,,,,,,,,,,,,,,,,,,,,,,,,,,,,,,,,,,,,,,,,,,,,,,,,,,,,,,,,,,,"[9,3,2,8,6,1,7]",4,0,4,0,1,,,,,,,,,,,,,,,,,,,,,,,,,,,,,,,,,,,,,,,,,,,,,,,,
,,5de0b69ba91be311cb773b0b,2022-09-08_09h56.12.123,CGTgamblingSpanTasks,2022.2.1,Win32,59.09816205,,,,,,,,,,,,,,,,,,,,,,,,,,,,,,,,,,,,,,,,,,,,,,,,,,,,,,,,,,,,,,,,,,,,,,,,,,,,,,,,,,"[9,3,2,8,6,1,7]",5,0,5,0,1,,,,,,,,,,,,,,,,,,,,,,,,,,,,,,,,,,,,,,,,,,,,,,,,
,,5de0b69ba91be311cb773b0b,2022-09-08_09h56.12.123,CGTgamblingSpanTasks,2022.2.1,Win32,59.09816205,,,,,,,,,,,,,,,,,,,,,,,,,,,,,,,,,,,,,,,,,,,,,,,,,,,,,,,,,,,,,,,,,,,,,,,,,,,,,,,,,,"[9,3,2,8,6,1,7]",6,0,6,0,1,,,,,,,,,,,,,,,,,,,,,,,,,,,,,,,,,,,,,,,,,,,,,,,,
,,5de0b69ba91be311cb773b0b,2022-09-08_09h56.12.123,CGTgamblingSpanTasks,2022.2.1,Win32,59.09816205,,,,,,,,,,,,,,,,,,,,,,,,,,,,,,,,,,,,,,,,,,,,,,,,,,,,,,,,,,,,,,,1,,,,,,,,,,,,,,,,,,,,,,,,,9328617,-0.013888889,-0.4,1,0,0,cont_button,0,5,5,5,1,6,,,,,,,,,,,,,,,,,,,,,,,,,,,,,,,,,,,
,,5de0b69ba91be311cb773b0b,2022-09-08_09h56.12.123,CGTgamblingSpanTasks,2022.2.1,Win32,59.09816205,,,,,,,,,,,,,,,,,,,,,,,,,,,,,,,,,,,,,,,,,,,,,,,,,,,,,,,,,,,,,,,,,,,,,,,,,,,,,,,,,,"[6,9,1,3,4,7,5,8]",0,0,0,0,1,,,,,,,,,,,,,,,,,,,,,,,,,,,,,,,,,,,,,,,,,,,,,,,,
,,5de0b69ba91be311cb773b0b,2022-09-08_09h56.12.123,CGTgamblingSpanTasks,2022.2.1,Win32,59.09816205,,,,,,,,,,,,,,,,,,,,,,,,,,,,,,,,,,,,,,,,,,,,,,,,,,,,,,,,,,,,,,,,,,,,,,,,,,,,,,,,,,"[6,9,1,3,4,7,5,8]",1,0,1,0,1,,,,,,,,,,,,,,,,,,,,,,,,,,,,,,,,,,,,,,,,,,,,,,,,
,,5de0b69ba91be311cb773b0b,2022-09-08_09h56.12.123,CGTgamblingSpanTasks,2022.2.1,Win32,59.09816205,,,,,,,,,,,,,,,,,,,,,,,,,,,,,,,,,,,,,,,,,,,,,,,,,,,,,,,,,,,,,,,,,,,,,,,,,,,,,,,,,,"[6,9,1,3,4,7,5,8]",2,0,2,0,1,,,,,,,,,,,,,,,,,,,,,,,,,,,,,,,,,,,,,,,,,,,,,,,,
,,5de0b69ba91be311cb773b0b,2022-09-08_09h56.12.123,CGTgamblingSpanTasks,2022.2.1,Win32,59.09816205,,,,,,,,,,,,,,,,,,,,,,,,,,,,,,,,,,,,,,,,,,,,,,,,,,,,,,,,,,,,,,,,,,,,,,,,,,,,,,,,,,"[6,9,1,3,4,7,5,8]",3,0,3,0,1,,,,,,,,,,,,,,,,,,,,,,,,,,,,,,,,,,,,,,,,,,,,,,,,
,,5de0b69ba91be311cb773b0b,2022-09-08_09h56.12.123,CGTgamblingSpanTasks,2022.2.1,Win32,59.09816205,,,,,,,,,,,,,,,,,,,,,,,,,,,,,,,,,,,,,,,,,,,,,,,,,,,,,,,,,,,,,,,,,,,,,,,,,,,,,,,,,,"[6,9,1,3,4,7,5,8]",4,0,4,0,1,,,,,,,,,,,,,,,,,,,,,,,,,,,,,,,,,,,,,,,,,,,,,,,,
,,5de0b69ba91be311cb773b0b,2022-09-08_09h56.12.123,CGTgamblingSpanTasks,2022.2.1,Win32,59.09816205,,,,,,,,,,,,,,,,,,,,,,,,,,,,,,,,,,,,,,,,,,,,,,,,,,,,,,,,,,,,,,,,,,,,,,,,,,,,,,,,,,"[6,9,1,3,4,7,5,8]",5,0,5,0,1,,,,,,,,,,,,,,,,,,,,,,,,,,,,,,,,,,,,,,,,,,,,,,,,
,,5de0b69ba91be311cb773b0b,2022-09-08_09h56.12.123,CGTgamblingSpanTasks,2022.2.1,Win32,59.09816205,,,,,,,,,,,,,,,,,,,,,,,,,,,,,,,,,,,,,,,,,,,,,,,,,,,,,,,,,,,,,,,,,,,,,,,,,,,,,,,,,,"[6,9,1,3,4,7,5,8]",6,0,6,0,1,,,,,,,,,,,,,,,,,,,,,,,,,,,,,,,,,,,,,,,,,,,,,,,,
,,5de0b69ba91be311cb773b0b,2022-09-08_09h56.12.123,CGTgamblingSpanTasks,2022.2.1,Win32,59.09816205,,,,,,,,,,,,,,,,,,,,,,,,,,,,,,,,,,,,,,,,,,,,,,,,,,,,,,,,,,,,,,,,,,,,,,,,,,,,,,,,,,"[6,9,1,3,4,7,5,8]",7,0,7,0,1,,,,,,,,,,,,,,,,,,,,,,,,,,,,,,,,,,,,,,,,,,,,,,,,
,,5de0b69ba91be311cb773b0b,2022-09-08_09h56.12.123,CGTgamblingSpanTasks,2022.2.1,Win32,59.09816205,,,,,,,,,,,,,,,,,,,,,,,,,,,,,,,,,,,,,,,,,,,,,,,,,,,,,,,,,,,,,,,0,,,,,,,,,,,,,,,,,,,,,,,,,69231845,-0.014814815,-0.400925926,1,0,0,cont_button,0,6,6,6,1,7,,,,,,,,,,,,,,,,,,,,,,,,,,,,,,,,,,,
,,5de0b69ba91be311cb773b0b,2022-09-08_09h56.12.123,CGTgamblingSpanTasks,2022.2.1,Win32,59.09816205,,,,,,,,,,,,,,,,,,,,,,,,,,,,,,,,,,,,,,,,,,,,,,,,,,,,,,,,,,,,,,,,,,,,,,,,,,,,,,,,,,"[2,6,1,5,7,9,8,4]",0,0,0,0,1,,,,,,,,,,,,,,,,,,,,,,,,,,,,,,,,,,,,,,,,,,,,,,,,
,,5de0b69ba91be311cb773b0b,2022-09-08_09h56.12.123,CGTgamblingSpanTasks,2022.2.1,Win32,59.09816205,,,,,,,,,,,,,,,,,,,,,,,,,,,,,,,,,,,,,,,,,,,,,,,,,,,,,,,,,,,,,,,,,,,,,,,,,,,,,,,,,,"[2,6,1,5,7,9,8,4]",1,0,1,0,1,,,,,,,,,,,,,,,,,,,,,,,,,,,,,,,,,,,,,,,,,,,,,,,,
,,5de0b69ba91be311cb773b0b,2022-09-08_09h56.12.123,CGTgamblingSpanTasks,2022.2.1,Win32,59.09816205,,,,,,,,,,,,,,,,,,,,,,,,,,,,,,,,,,,,,,,,,,,,,,,,,,,,,,,,,,,,,,,,,,,,,,,,,,,,,,,,,,"[2,6,1,5,7,9,8,4]",2,0,2,0,1,,,,,,,,,,,,,,,,,,,,,,,,,,,,,,,,,,,,,,,,,,,,,,,,
,,5de0b69ba91be311cb773b0b,2022-09-08_09h56.12.123,CGTgamblingSpanTasks,2022.2.1,Win32,59.09816205,,,,,,,,,,,,,,,,,,,,,,,,,,,,,,,,,,,,,,,,,,,,,,,,,,,,,,,,,,,,,,,,,,,,,,,,,,,,,,,,,,"[2,6,1,5,7,9,8,4]",3,0,3,0,1,,,,,,,,,,,,,,,,,,,,,,,,,,,,,,,,,,,,,,,,,,,,,,,,
,,5de0b69ba91be311cb773b0b,2022-09-08_09h56.12.123,CGTgamblingSpanTasks,2022.2.1,Win32,59.09816205,,,,,,,,,,,,,,,,,,,,,,,,,,,,,,,,,,,,,,,,,,,,,,,,,,,,,,,,,,,,,,,,,,,,,,,,,,,,,,,,,,"[2,6,1,5,7,9,8,4]",4,0,4,0,1,,,,,,,,,,,,,,,,,,,,,,,,,,,,,,,,,,,,,,,,,,,,,,,,
,,5de0b69ba91be311cb773b0b,2022-09-08_09h56.12.123,CGTgamblingSpanTasks,2022.2.1,Win32,59.09816205,,,,,,,,,,,,,,,,,,,,,,,,,,,,,,,,,,,,,,,,,,,,,,,,,,,,,,,,,,,,,,,,,,,,,,,,,,,,,,,,,,"[2,6,1,5,7,9,8,4]",5,0,5,0,1,,,,,,,,,,,,,,,,,,,,,,,,,,,,,,,,,,,,,,,,,,,,,,,,
,,5de0b69ba91be311cb773b0b,2022-09-08_09h56.12.123,CGTgamblingSpanTasks,2022.2.1,Win32,59.09816205,,,,,,,,,,,,,,,,,,,,,,,,,,,,,,,,,,,,,,,,,,,,,,,,,,,,,,,,,,,,,,,,,,,,,,,,,,,,,,,,,,"[2,6,1,5,7,9,8,4]",6,0,6,0,1,,,,,,,,,,,,,,,,,,,,,,,,,,,,,,,,,,,,,,,,,,,,,,,,
,,5de0b69ba91be311cb773b0b,2022-09-08_09h56.12.123,CGTgamblingSpanTasks,2022.2.1,Win32,59.09816205,,,,,,,,,,,,,,,,,,,,,,,,,,,,,,,,,,,,,,,,,,,,,,,,,,,,,,,,,,,,,,,,,,,,,,,,,,,,,,,,,,"[2,6,1,5,7,9,8,4]",7,0,7,0,1,,,,,,,,,,,,,,,,,,,,,,,,,,,,,,,,,,,,,,,,,,,,,,,,
,,5de0b69ba91be311cb773b0b,2022-09-08_09h56.12.123,CGTgamblingSpanTasks,2022.2.1,Win32,59.09816205,,,,,,,,,,,,,,,,,,,,,,,,,,,,,,,,,,,,,,,,,,,,,,,,,,,,,,,,,,,,,,,0,,,,,,,,,,,,,,,,,,,,,,,,,26179854,-0.014814815,-0.400925926,1,0,0,cont_button,0,7,7,7,1,8,,,,,,,,,,,,,,,,,,,,,,,,,,,,,,,,,,,
,,5de0b69ba91be311cb773b0b,2022-09-08_09h56.12.123,CGTgamblingSpanTasks,2022.2.1,Win32,59.09816205,,,,,,,,,,,,,,,,,,,,,,,,,,,,,,,,,,,,,,,,,,,,,,,,,,,,,,,,,,,,,,,,,,,,,,,,,,,,,,,,,,"[3,4,6,7,9,5,2]",0,0,0,0,1,,,,,,,,,,,,,,,,,,,,,,,,,,,,,,,,,,,,,,,,,,,,,,,,
,,5de0b69ba91be311cb773b0b,2022-09-08_09h56.12.123,CGTgamblingSpanTasks,2022.2.1,Win32,59.09816205,,,,,,,,,,,,,,,,,,,,,,,,,,,,,,,,,,,,,,,,,,,,,,,,,,,,,,,,,,,,,,,,,,,,,,,,,,,,,,,,,,"[3,4,6,7,9,5,2]",1,0,1,0,1,,,,,,,,,,,,,,,,,,,,,,,,,,,,,,,,,,,,,,,,,,,,,,,,
,,5de0b69ba91be311cb773b0b,2022-09-08_09h56.12.123,CGTgamblingSpanTasks,2022.2.1,Win32,59.09816205,,,,,,,,,,,,,,,,,,,,,,,,,,,,,,,,,,,,,,,,,,,,,,,,,,,,,,,,,,,,,,,,,,,,,,,,,,,,,,,,,,"[3,4,6,7,9,5,2]",2,0,2,0,1,,,,,,,,,,,,,,,,,,,,,,,,,,,,,,,,,,,,,,,,,,,,,,,,
,,5de0b69ba91be311cb773b0b,2022-09-08_09h56.12.123,CGTgamblingSpanTasks,2022.2.1,Win32,59.09816205,,,,,,,,,,,,,,,,,,,,,,,,,,,,,,,,,,,,,,,,,,,,,,,,,,,,,,,,,,,,,,,,,,,,,,,,,,,,,,,,,,"[3,4,6,7,9,5,2]",3,0,3,0,1,,,,,,,,,,,,,,,,,,,,,,,,,,,,,,,,,,,,,,,,,,,,,,,,
,,5de0b69ba91be311cb773b0b,2022-09-08_09h56.12.123,CGTgamblingSpanTasks,2022.2.1,Win32,59.09816205,,,,,,,,,,,,,,,,,,,,,,,,,,,,,,,,,,,,,,,,,,,,,,,,,,,,,,,,,,,,,,,,,,,,,,,,,,,,,,,,,,"[3,4,6,7,9,5,2]",4,0,4,0,1,,,,,,,,,,,,,,,,,,,,,,,,,,,,,,,,,,,,,,,,,,,,,,,,
,,5de0b69ba91be311cb773b0b,2022-09-08_09h56.12.123,CGTgamblingSpanTasks,2022.2.1,Win32,59.09816205,,,,,,,,,,,,,,,,,,,,,,,,,,,,,,,,,,,,,,,,,,,,,,,,,,,,,,,,,,,,,,,,,,,,,,,,,,,,,,,,,,"[3,4,6,7,9,5,2]",5,0,5,0,1,,,,,,,,,,,,,,,,,,,,,,,,,,,,,,,,,,,,,,,,,,,,,,,,
,,5de0b69ba91be311cb773b0b,2022-09-08_09h56.12.123,CGTgamblingSpanTasks,2022.2.1,Win32,59.09816205,,,,,,,,,,,,,,,,,,,,,,,,,,,,,,,,,,,,,,,,,,,,,,,,,,,,,,,,,,,,,,,,,,,,,,,,,,,,,,,,,,"[3,4,6,7,9,5,2]",6,0,6,0,1,,,,,,,,,,,,,,,,,,,,,,,,,,,,,,,,,,,,,,,,,,,,,,,,
,,5de0b69ba91be311cb773b0b,2022-09-08_09h56.12.123,CGTgamblingSpanTasks,2022.2.1,Win32,59.09816205,,,,,,,,,,,,,,,,,,,,,,,,,,,,,,,,,,,,,,,,,,,,,,,,,,,,,,,,,,,,,,,1,,,,,,,,,,,,,,,,,,,,,,,,,3467952,-0.014814815,-0.400925926,1,0,0,cont_button,0,8,8,8,1,9,,,,,,,,,,,,,,,,,,,,,,,,,,,,,,,,,,,
,,5de0b69ba91be311cb773b0b,2022-09-08_09h56.12.123,CGTgamblingSpanTasks,2022.2.1,Win32,59.09816205,,,,,,,,,,,,,,,,,,,,,,,,,,,,,,,,,,,,,,,,,,,,,,,,,,,,,,,,,,,,,,,,,,,,,,,,,,,,,,,,,,"[9,6,3,1,2,4,7,5]",0,0,0,0,1,,,,,,,,,,,,,,,,,,,,,,,,,,,,,,,,,,,,,,,,,,,,,,,,
,,5de0b69ba91be311cb773b0b,2022-09-08_09h56.12.123,CGTgamblingSpanTasks,2022.2.1,Win32,59.09816205,,,,,,,,,,,,,,,,,,,,,,,,,,,,,,,,,,,,,,,,,,,,,,,,,,,,,,,,,,,,,,,,,,,,,,,,,,,,,,,,,,"[9,6,3,1,2,4,7,5]",1,0,1,0,1,,,,,,,,,,,,,,,,,,,,,,,,,,,,,,,,,,,,,,,,,,,,,,,,
,,5de0b69ba91be311cb773b0b,2022-09-08_09h56.12.123,CGTgamblingSpanTasks,2022.2.1,Win32,59.09816205,,,,,,,,,,,,,,,,,,,,,,,,,,,,,,,,,,,,,,,,,,,,,,,,,,,,,,,,,,,,,,,,,,,,,,,,,,,,,,,,,,"[9,6,3,1,2,4,7,5]",2,0,2,0,1,,,,,,,,,,,,,,,,,,,,,,,,,,,,,,,,,,,,,,,,,,,,,,,,
,,5de0b69ba91be311cb773b0b,2022-09-08_09h56.12.123,CGTgamblingSpanTasks,2022.2.1,Win32,59.09816205,,,,,,,,,,,,,,,,,,,,,,,,,,,,,,,,,,,,,,,,,,,,,,,,,,,,,,,,,,,,,,,,,,,,,,,,,,,,,,,,,,"[9,6,3,1,2,4,7,5]",3,0,3,0,1,,,,,,,,,,,,,,,,,,,,,,,,,,,,,,,,,,,,,,,,,,,,,,,,
,,5de0b69ba91be311cb773b0b,2022-09-08_09h56.12.123,CGTgamblingSpanTasks,2022.2.1,Win32,59.09816205,,,,,,,,,,,,,,,,,,,,,,,,,,,,,,,,,,,,,,,,,,,,,,,,,,,,,,,,,,,,,,,,,,,,,,,,,,,,,,,,,,"[9,6,3,1,2,4,7,5]",4,0,4,0,1,,,,,,,,,,,,,,,,,,,,,,,,,,,,,,,,,,,,,,,,,,,,,,,,
,,5de0b69ba91be311cb773b0b,2022-09-08_09h56.12.123,CGTgamblingSpanTasks,2022.2.1,Win32,59.09816205,,,,,,,,,,,,,,,,,,,,,,,,,,,,,,,,,,,,,,,,,,,,,,,,,,,,,,,,,,,,,,,,,,,,,,,,,,,,,,,,,,"[9,6,3,1,2,4,7,5]",5,0,5,0,1,,,,,,,,,,,,,,,,,,,,,,,,,,,,,,,,,,,,,,,,,,,,,,,,
,,5de0b69ba91be311cb773b0b,2022-09-08_09h56.12.123,CGTgamblingSpanTasks,2022.2.1,Win32,59.09816205,,,,,,,,,,,,,,,,,,,,,,,,,,,,,,,,,,,,,,,,,,,,,,,,,,,,,,,,,,,,,,,,,,,,,,,,,,,,,,,,,,"[9,6,3,1,2,4,7,5]",6,0,6,0,1,,,,,,,,,,,,,,,,,,,,,,,,,,,,,,,,,,,,,,,,,,,,,,,,
,,5de0b69ba91be311cb773b0b,2022-09-08_09h56.12.123,CGTgamblingSpanTasks,2022.2.1,Win32,59.09816205,,,,,,,,,,,,,,,,,,,,,,,,,,,,,,,,,,,,,,,,,,,,,,,,,,,,,,,,,,,,,,,,,,,,,,,,,,,,,,,,,,"[9,6,3,1,2,4,7,5]",7,0,7,0,1,,,,,,,,,,,,,,,,,,,,,,,,,,,,,,,,,,,,,,,,,,,,,,,,
,,5de0b69ba91be311cb773b0b,2022-09-08_09h56.12.123,CGTgamblingSpanTasks,2022.2.1,Win32,59.09816205,,,,,,,,,,,,,,,,,,,,,,,,,,,,,,,,,,,,,,,,,,,,,,,,,,,,,,,,,,,,,,,0,,,,,,,,,,,,,,,,,,,,,,,,,96312457,-0.014814815,-0.400925926,1,0,0,cont_button,0,9,9,9,1,10,,,,,,,,,,,,,,,,,,,,,,,,,,,,,,,,,,,
,,5de0b69ba91be311cb773b0b,2022-09-08_09h56.12.123,CGTgamblingSpanTasks,2022.2.1,Win32,59.09816205,,,,,,,,,,,,,,,,,,,,,,,,,,,,,,,,,,,,,,,,,,,,,,,,,,,,,,,,,,,,,,,,,,,,,,,,,,,,,,,,,,"[3,7,9,5,2,8,1,4]",0,0,0,0,1,,,,,,,,,,,,,,,,,,,,,,,,,,,,,,,,,,,,,,,,,,,,,,,,
,,5de0b69ba91be311cb773b0b,2022-09-08_09h56.12.123,CGTgamblingSpanTasks,2022.2.1,Win32,59.09816205,,,,,,,,,,,,,,,,,,,,,,,,,,,,,,,,,,,,,,,,,,,,,,,,,,,,,,,,,,,,,,,,,,,,,,,,,,,,,,,,,,"[3,7,9,5,2,8,1,4]",1,0,1,0,1,,,,,,,,,,,,,,,,,,,,,,,,,,,,,,,,,,,,,,,,,,,,,,,,
,,5de0b69ba91be311cb773b0b,2022-09-08_09h56.12.123,CGTgamblingSpanTasks,2022.2.1,Win32,59.09816205,,,,,,,,,,,,,,,,,,,,,,,,,,,,,,,,,,,,,,,,,,,,,,,,,,,,,,,,,,,,,,,,,,,,,,,,,,,,,,,,,,"[3,7,9,5,2,8,1,4]",2,0,2,0,1,,,,,,,,,,,,,,,,,,,,,,,,,,,,,,,,,,,,,,,,,,,,,,,,
,,5de0b69ba91be311cb773b0b,2022-09-08_09h56.12.123,CGTgamblingSpanTasks,2022.2.1,Win32,59.09816205,,,,,,,,,,,,,,,,,,,,,,,,,,,,,,,,,,,,,,,,,,,,,,,,,,,,,,,,,,,,,,,,,,,,,,,,,,,,,,,,,,"[3,7,9,5,2,8,1,4]",3,0,3,0,1,,,,,,,,,,,,,,,,,,,,,,,,,,,,,,,,,,,,,,,,,,,,,,,,
,,5de0b69ba91be311cb773b0b,2022-09-08_09h56.12.123,CGTgamblingSpanTasks,2022.2.1,Win32,59.09816205,,,,,,,,,,,,,,,,,,,,,,,,,,,,,,,,,,,,,,,,,,,,,,,,,,,,,,,,,,,,,,,,,,,,,,,,,,,,,,,,,,"[3,7,9,5,2,8,1,4]",4,0,4,0,1,,,,,,,,,,,,,,,,,,,,,,,,,,,,,,,,,,,,,,,,,,,,,,,,
,,5de0b69ba91be311cb773b0b,2022-09-08_09h56.12.123,CGTgamblingSpanTasks,2022.2.1,Win32,59.09816205,,,,,,,,,,,,,,,,,,,,,,,,,,,,,,,,,,,,,,,,,,,,,,,,,,,,,,,,,,,,,,,,,,,,,,,,,,,,,,,,,,"[3,7,9,5,2,8,1,4]",5,0,5,0,1,,,,,,,,,,,,,,,,,,,,,,,,,,,,,,,,,,,,,,,,,,,,,,,,
,,5de0b69ba91be311cb773b0b,2022-09-08_09h56.12.123,CGTgamblingSpanTasks,2022.2.1,Win32,59.09816205,,,,,,,,,,,,,,,,,,,,,,,,,,,,,,,,,,,,,,,,,,,,,,,,,,,,,,,,,,,,,,,,,,,,,,,,,,,,,,,,,,"[3,7,9,5,2,8,1,4]",6,0,6,0,1,,,,,,,,,,,,,,,,,,,,,,,,,,,,,,,,,,,,,,,,,,,,,,,,
,,5de0b69ba91be311cb773b0b,2022-09-08_09h56.12.123,CGTgamblingSpanTasks,2022.2.1,Win32,59.09816205,,,,,,,,,,,,,,,,,,,,,,,,,,,,,,,,,,,,,,,,,,,,,,,,,,,,,,,,,,,,,,,,,,,,,,,,,,,,,,,,,,"[3,7,9,5,2,8,1,4]",7,0,7,0,1,,,,,,,,,,,,,,,,,,,,,,,,,,,,,,,,,,,,,,,,,,,,,,,,
,,5de0b69ba91be311cb773b0b,2022-09-08_09h56.12.123,CGTgamblingSpanTasks,2022.2.1,Win32,59.09816205,,,,,,,,,,,,,,,,,,,,,,,,,,,,,,,,,,,,,,,,,,,,,,,,,,,,,,,,,,,,,,,0,,,,,,,,,,,,,,,,,,,,,,,,,96532814,-0.014814815,-0.400925926,1,0,0,cont_button,0,10,10,10,1,11,,,,,,,,,,,,,,,,,,,,,,,,,,,,,,,,,,,
,,5de0b69ba91be311cb773b0b,2022-09-08_09h56.12.123,CGTgamblingSpanTasks,2022.2.1,Win32,59.09816205,,,,,,,,,,,,,,,,,,,,,,,,,,,,,,,,,,,,,,,,,,,,,,,,,,,,,,,,,,,,,,,,,,,,,,,,,,,,,,,,,,"[5,3,6,1,4,9,7]",0,0,0,0,1,,,,,,,,,,,,,,,,,,,,,,,,,,,,,,,,,,,,,,,,,,,,,,,,
,,5de0b69ba91be311cb773b0b,2022-09-08_09h56.12.123,CGTgamblingSpanTasks,2022.2.1,Win32,59.09816205,,,,,,,,,,,,,,,,,,,,,,,,,,,,,,,,,,,,,,,,,,,,,,,,,,,,,,,,,,,,,,,,,,,,,,,,,,,,,,,,,,"[5,3,6,1,4,9,7]",1,0,1,0,1,,,,,,,,,,,,,,,,,,,,,,,,,,,,,,,,,,,,,,,,,,,,,,,,
,,5de0b69ba91be311cb773b0b,2022-09-08_09h56.12.123,CGTgamblingSpanTasks,2022.2.1,Win32,59.09816205,,,,,,,,,,,,,,,,,,,,,,,,,,,,,,,,,,,,,,,,,,,,,,,,,,,,,,,,,,,,,,,,,,,,,,,,,,,,,,,,,,"[5,3,6,1,4,9,7]",2,0,2,0,1,,,,,,,,,,,,,,,,,,,,,,,,,,,,,,,,,,,,,,,,,,,,,,,,
,,5de0b69ba91be311cb773b0b,2022-09-08_09h56.12.123,CGTgamblingSpanTasks,2022.2.1,Win32,59.09816205,,,,,,,,,,,,,,,,,,,,,,,,,,,,,,,,,,,,,,,,,,,,,,,,,,,,,,,,,,,,,,,,,,,,,,,,,,,,,,,,,,"[5,3,6,1,4,9,7]",3,0,3,0,1,,,,,,,,,,,,,,,,,,,,,,,,,,,,,,,,,,,,,,,,,,,,,,,,
,,5de0b69ba91be311cb773b0b,2022-09-08_09h56.12.123,CGTgamblingSpanTasks,2022.2.1,Win32,59.09816205,,,,,,,,,,,,,,,,,,,,,,,,,,,,,,,,,,,,,,,,,,,,,,,,,,,,,,,,,,,,,,,,,,,,,,,,,,,,,,,,,,"[5,3,6,1,4,9,7]",4,0,4,0,1,,,,,,,,,,,,,,,,,,,,,,,,,,,,,,,,,,,,,,,,,,,,,,,,
,,5de0b69ba91be311cb773b0b,2022-09-08_09h56.12.123,CGTgamblingSpanTasks,2022.2.1,Win32,59.09816205,,,,,,,,,,,,,,,,,,,,,,,,,,,,,,,,,,,,,,,,,,,,,,,,,,,,,,,,,,,,,,,,,,,,,,,,,,,,,,,,,,"[5,3,6,1,4,9,7]",5,0,5,0,1,,,,,,,,,,,,,,,,,,,,,,,,,,,,,,,,,,,,,,,,,,,,,,,,
,,5de0b69ba91be311cb773b0b,2022-09-08_09h56.12.123,CGTgamblingSpanTasks,2022.2.1,Win32,59.09816205,,,,,,,,,,,,,,,,,,,,,,,,,,,,,,,,,,,,,,,,,,,,,,,,,,,,,,,,,,,,,,,,,,,,,,,,,,,,,,,,,,"[5,3,6,1,4,9,7]",6,0,6,0,1,,,,,,,,,,,,,,,,,,,,,,,,,,,,,,,,,,,,,,,,,,,,,,,,
,,5de0b69ba91be311cb773b0b,2022-09-08_09h56.12.123,CGTgamblingSpanTasks,2022.2.1,Win32,59.09816205,,,,,,,,,,,,,,,,,,,,,,,,,,,,,,,,,,,,,,,,,,,,,,,,,,,,,,,,,,,,,,,1,,,,,,,,,,,,,,,,,,,,,,,,,5361497,-0.014814815,-0.400925926,1,0,0,cont_button,0,11,11,11,1,12,,,,,,,,,,,,,,,,,,,,,,,,,,,,,,,,,,,
,,5de0b69ba91be311cb773b0b,2022-09-08_09h56.12.123,CGTgamblingSpanTasks,2022.2.1,Win32,59.09816205,,,,,,,,,,,,,,,,,,,,,,,,,,,,,,,,,,,,,,,,,,,,,,,,,,,,,,,,,,,,,,,,,,,,,,,,,,,,,,,,,,"[2,1,3,7,9,6,5,8]",0,0,0,0,1,,,,,,,,,,,,,,,,,,,,,,,,,,,,,,,,,,,,,,,,,,,,,,,,
,,5de0b69ba91be311cb773b0b,2022-09-08_09h56.12.123,CGTgamblingSpanTasks,2022.2.1,Win32,59.09816205,,,,,,,,,,,,,,,,,,,,,,,,,,,,,,,,,,,,,,,,,,,,,,,,,,,,,,,,,,,,,,,,,,,,,,,,,,,,,,,,,,"[2,1,3,7,9,6,5,8]",1,0,1,0,1,,,,,,,,,,,,,,,,,,,,,,,,,,,,,,,,,,,,,,,,,,,,,,,,
,,5de0b69ba91be311cb773b0b,2022-09-08_09h56.12.123,CGTgamblingSpanTasks,2022.2.1,Win32,59.09816205,,,,,,,,,,,,,,,,,,,,,,,,,,,,,,,,,,,,,,,,,,,,,,,,,,,,,,,,,,,,,,,,,,,,,,,,,,,,,,,,,,"[2,1,3,7,9,6,5,8]",2,0,2,0,1,,,,,,,,,,,,,,,,,,,,,,,,,,,,,,,,,,,,,,,,,,,,,,,,
,,5de0b69ba91be311cb773b0b,2022-09-08_09h56.12.123,CGTgamblingSpanTasks,2022.2.1,Win32,59.09816205,,,,,,,,,,,,,,,,,,,,,,,,,,,,,,,,,,,,,,,,,,,,,,,,,,,,,,,,,,,,,,,,,,,,,,,,,,,,,,,,,,"[2,1,3,7,9,6,5,8]",3,0,3,0,1,,,,,,,,,,,,,,,,,,,,,,,,,,,,,,,,,,,,,,,,,,,,,,,,
,,5de0b69ba91be311cb773b0b,2022-09-08_09h56.12.123,CGTgamblingSpanTasks,2022.2.1,Win32,59.09816205,,,,,,,,,,,,,,,,,,,,,,,,,,,,,,,,,,,,,,,,,,,,,,,,,,,,,,,,,,,,,,,,,,,,,,,,,,,,,,,,,,"[2,1,3,7,9,6,5,8]",4,0,4,0,1,,,,,,,,,,,,,,,,,,,,,,,,,,,,,,,,,,,,,,,,,,,,,,,,
,,5de0b69ba91be311cb773b0b,2022-09-08_09h56.12.123,CGTgamblingSpanTasks,2022.2.1,Win32,59.09816205,,,,,,,,,,,,,,,,,,,,,,,,,,,,,,,,,,,,,,,,,,,,,,,,,,,,,,,,,,,,,,,,,,,,,,,,,,,,,,,,,,"[2,1,3,7,9,6,5,8]",5,0,5,0,1,,,,,,,,,,,,,,,,,,,,,,,,,,,,,,,,,,,,,,,,,,,,,,,,
,,5de0b69ba91be311cb773b0b,2022-09-08_09h56.12.123,CGTgamblingSpanTasks,2022.2.1,Win32,59.09816205,,,,,,,,,,,,,,,,,,,,,,,,,,,,,,,,,,,,,,,,,,,,,,,,,,,,,,,,,,,,,,,,,,,,,,,,,,,,,,,,,,"[2,1,3,7,9,6,5,8]",6,0,6,0,1,,,,,,,,,,,,,,,,,,,,,,,,,,,,,,,,,,,,,,,,,,,,,,,,
,,5de0b69ba91be311cb773b0b,2022-09-08_09h56.12.123,CGTgamblingSpanTasks,2022.2.1,Win32,59.09816205,,,,,,,,,,,,,,,,,,,,,,,,,,,,,,,,,,,,,,,,,,,,,,,,,,,,,,,,,,,,,,,,,,,,,,,,,,,,,,,,,,"[2,1,3,7,9,6,5,8]",7,0,7,0,1,,,,,,,,,,,,,,,,,,,,,,,,,,,,,,,,,,,,,,,,,,,,,,,,
,,5de0b69ba91be311cb773b0b,2022-09-08_09h56.12.123,CGTgamblingSpanTasks,2022.2.1,Win32,59.09816205,,,,,,,,,,,,,,,,,,,,,,,,,,,,,,,,,,,,,,,,,,,,,,,,,,,,,,,,,,,,,,,1,,,,,,,,,,,,,,,,,,,,,,,,,21379658,-0.014814815,-0.400925926,1,0,0,cont_button,0,12,12,12,1,13,,,,,,,,,,,,,,,,,,,,,,,,,,,,,,,,,,,
,,5de0b69ba91be311cb773b0b,2022-09-08_09h56.12.123,CGTgamblingSpanTasks,2022.2.1,Win32,59.09816205,,,,,,,,,,,,,,,,,,,,,,,,,,,,,,,,,,,,,,,,,,,,,,,,,,,,,,,,,,,,,,,,,,,,,,,,,,,,,,,,,,"[8,2,6,7,5,4,1,3,9]",0,0,0,0,1,,,,,,,,,,,,,,,,,,,,,,,,,,,,,,,,,,,,,,,,,,,,,,,,
,,5de0b69ba91be311cb773b0b,2022-09-08_09h56.12.123,CGTgamblingSpanTasks,2022.2.1,Win32,59.09816205,,,,,,,,,,,,,,,,,,,,,,,,,,,,,,,,,,,,,,,,,,,,,,,,,,,,,,,,,,,,,,,,,,,,,,,,,,,,,,,,,,"[8,2,6,7,5,4,1,3,9]",1,0,1,0,1,,,,,,,,,,,,,,,,,,,,,,,,,,,,,,,,,,,,,,,,,,,,,,,,
,,5de0b69ba91be311cb773b0b,2022-09-08_09h56.12.123,CGTgamblingSpanTasks,2022.2.1,Win32,59.09816205,,,,,,,,,,,,,,,,,,,,,,,,,,,,,,,,,,,,,,,,,,,,,,,,,,,,,,,,,,,,,,,,,,,,,,,,,,,,,,,,,,"[8,2,6,7,5,4,1,3,9]",2,0,2,0,1,,,,,,,,,,,,,,,,,,,,,,,,,,,,,,,,,,,,,,,,,,,,,,,,
,,5de0b69ba91be311cb773b0b,2022-09-08_09h56.12.123,CGTgamblingSpanTasks,2022.2.1,Win32,59.09816205,,,,,,,,,,,,,,,,,,,,,,,,,,,,,,,,,,,,,,,,,,,,,,,,,,,,,,,,,,,,,,,,,,,,,,,,,,,,,,,,,,"[8,2,6,7,5,4,1,3,9]",3,0,3,0,1,,,,,,,,,,,,,,,,,,,,,,,,,,,,,,,,,,,,,,,,,,,,,,,,
,,5de0b69ba91be311cb773b0b,2022-09-08_09h56.12.123,CGTgamblingSpanTasks,2022.2.1,Win32,59.09816205,,,,,,,,,,,,,,,,,,,,,,,,,,,,,,,,,,,,,,,,,,,,,,,,,,,,,,,,,,,,,,,,,,,,,,,,,,,,,,,,,,"[8,2,6,7,5,4,1,3,9]",4,0,4,0,1,,,,,,,,,,,,,,,,,,,,,,,,,,,,,,,,,,,,,,,,,,,,,,,,
,,5de0b69ba91be311cb773b0b,2022-09-08_09h56.12.123,CGTgamblingSpanTasks,2022.2.1,Win32,59.09816205,,,,,,,,,,,,,,,,,,,,,,,,,,,,,,,,,,,,,,,,,,,,,,,,,,,,,,,,,,,,,,,,,,,,,,,,,,,,,,,,,,"[8,2,6,7,5,4,1,3,9]",5,0,5,0,1,,,,,,,,,,,,,,,,,,,,,,,,,,,,,,,,,,,,,,,,,,,,,,,,
,,5de0b69ba91be311cb773b0b,2022-09-08_09h56.12.123,CGTgamblingSpanTasks,2022.2.1,Win32,59.09816205,,,,,,,,,,,,,,,,,,,,,,,,,,,,,,,,,,,,,,,,,,,,,,,,,,,,,,,,,,,,,,,,,,,,,,,,,,,,,,,,,,"[8,2,6,7,5,4,1,3,9]",6,0,6,0,1,,,,,,,,,,,,,,,,,,,,,,,,,,,,,,,,,,,,,,,,,,,,,,,,
,,5de0b69ba91be311cb773b0b,2022-09-08_09h56.12.123,CGTgamblingSpanTasks,2022.2.1,Win32,59.09816205,,,,,,,,,,,,,,,,,,,,,,,,,,,,,,,,,,,,,,,,,,,,,,,,,,,,,,,,,,,,,,,,,,,,,,,,,,,,,,,,,,"[8,2,6,7,5,4,1,3,9]",7,0,7,0,1,,,,,,,,,,,,,,,,,,,,,,,,,,,,,,,,,,,,,,,,,,,,,,,,
,,5de0b69ba91be311cb773b0b,2022-09-08_09h56.12.123,CGTgamblingSpanTasks,2022.2.1,Win32,59.09816205,,,,,,,,,,,,,,,,,,,,,,,,,,,,,,,,,,,,,,,,,,,,,,,,,,,,,,,,,,,,,,,,,,,,,,,,,,,,,,,,,,"[8,2,6,7,5,4,1,3,9]",8,0,8,0,1,,,,,,,,,,,,,,,,,,,,,,,,,,,,,,,,,,,,,,,,,,,,,,,,
,,5de0b69ba91be311cb773b0b,2022-09-08_09h56.12.123,CGTgamblingSpanTasks,2022.2.1,Win32,59.09816205,,,,,,,,,,,,,,,,,,,,,,,,,,,,,,,,,,,,,,,,,,,,,,,,,,,,,,,,,,,,,,,0,,,,,,,,,,,,,,,,,,,,,,,,,672854139,-0.014814815,-0.400925926,1,0,0,cont_button,0,13,13,13,1,14,,,,,,,,,,,,,,,,,,,,,,,,,,,,,,,,,,,
,,5de0b69ba91be311cb773b0b,2022-09-08_09h56.12.123,CGTgamblingSpanTasks,2022.2.1,Win32,59.09816205,,,,,,,,,,,,,,,,,,,,,,,,,,,,,,,,,,,,,,,,,,,,,,,,,,,,,,,,,,,,,,,,,,,,,,,,,,,,,,,,,,,,,,,,,,,,,,,,,,,,,return,2.6542,,,,,,,,,,,,,,,,,,,,,,,,,,,,,,,,,
,,5de0b69ba91be311cb773b0b,2022-09-08_09h56.12.123,CGTgamblingSpanTasks,2022.2.1,Win32,59.09816205,,,,,,,,,,,,,,,,,,,,,,,,,,,,,,,,,,,,,,,,,,,,,,,,,,,,,,,,,,,,,,,,,,,,,,,,,,,,,,,,,,,,,,,,,,,,,,,,,,,,,,,return,7.2798,,,,,,,,,,,,,,,,,,,,,,,,,,,,,,,
,,5de0b69ba91be311cb773b0b,2022-09-08_09h56.12.123,CGTgamblingSpanTasks,2022.2.1,Win32,59.09816205,,,,,,,,,,,,,,,,,,,,,,,,,,,,,,,,,,,,,,,,,,,,,,,,,,,,,,,,,,,,,,,1,,,,,,,,,,,,3,342,24,2,42,,,,,,,,,,,,,,,,,,,,,,,,,,42,-0.014814815,-0.400925926,1,0,0,cont_buttonPractice_2,0,0,0,0,1,,,,,,,,,,,,,,,,,,,
,,5de0b69ba91be311cb773b0b,2022-09-08_09h56.12.123,CGTgamblingSpanTasks,2022.2.1,Win32,59.09816205,,,,,,,,,,,,,,,,,,,,,,,,,,,,,,,,,,,,,,,,,,,,,,,,,,,,,,,,,,,,,,,1,,,,,,,,,,,,3,937,73,2,37,,,,,,,,,,,,,,,,,,,,,,,,,,37,-0.014814815,-0.400925926,1,0,0,cont_buttonPractice_2,0,1,1,1,1,,,,,,,,,,,,,,,,,,,
,,5de0b69ba91be311cb773b0b,2022-09-08_09h56.12.123,CGTgamblingSpanTasks,2022.2.1,Win32,59.09816205,,,,,,,,,,,,,,,,,,,,,,,,,,,,,,,,,,,,,,,,,,,,,,,,,,,,,,,,,,,,,,,,,,,,,,,,,,,,,,,,,,,,,,,,,,,,,,,,,,,,,,,,,,,,,,,,,,,,,return,3.4728,,,,,,,,,,,,,,,,,
,,5de0b69ba91be311cb773b0b,2022-09-08_09h56.12.123,CGTgamblingSpanTasks,2022.2.1,Win32,59.09816205,,,,,,,,,,,,,,,,,,,,,,,,,,,,,,,,,,,,,,,,,,,,,,,,,,,,,,,,,,,,,,,,,,,,,,,,,,,,,,,,,,"[2,6]",,,,,,,,,,,,,,,,,,,,,,,,,,,,,,,,,,,,,0,0,0,0,1,,,,,,,,,,,,
,,5de0b69ba91be311cb773b0b,2022-09-08_09h56.12.123,CGTgamblingSpanTasks,2022.2.1,Win32,59.09816205,,,,,,,,,,,,,,,,,,,,,,,,,,,,,,,,,,,,,,,,,,,,,,,,,,,,,,,,,,,,,,,,,,,,,,,,,,,,,,,,,,"[2,6]",,,,,,,,,,,,,,,,,,,,,,,,,,,,,,,,,,,,,1,0,1,0,1,,,,,,,,,,,,
,,5de0b69ba91be311cb773b0b,2022-09-08_09h56.12.123,CGTgamblingSpanTasks,2022.2.1,Win32,59.09816205,,,,,,,,,,,,,,,,,,,,,,,,,,,,,,,,,,,,,,,,,,,,,,,,,,,,,,,,,,,,,,,1,,,,,,,,,,,,,,,,,,,,,,,,,,,,,,,,,,,,,1,,,,,,,,,,,,,,,,,,,,,,,,62,-0.014814815,-0.400925926,1,0,0,cont_buttonBS,0,0,0,0,1
,,5de0b69ba91be311cb773b0b,2022-09-08_09h56.12.123,CGTgamblingSpanTasks,2022.2.1,Win32,59.09816205,,,,,,,,,,,,,,,,,,,,,,,,,,,,,,,,,,,,,,,,,,,,,,,,,,,,,,,,,,,,,,,,,,,,,,,,,,,,,,,,,,"[3,7,2]",,,,,,,,,,,,,,,,,,,,,,,,,,,,,,,,,,,,,0,0,0,0,1,,,,,,,,,,,,
,,5de0b69ba91be311cb773b0b,2022-09-08_09h56.12.123,CGTgamblingSpanTasks,2022.2.1,Win32,59.09816205,,,,,,,,,,,,,,,,,,,,,,,,,,,,,,,,,,,,,,,,,,,,,,,,,,,,,,,,,,,,,,,,,,,,,,,,,,,,,,,,,,"[3,7,2]",,,,,,,,,,,,,,,,,,,,,,,,,,,,,,,,,,,,,1,0,1,0,1,,,,,,,,,,,,
,,5de0b69ba91be311cb773b0b,2022-09-08_09h56.12.123,CGTgamblingSpanTasks,2022.2.1,Win32,59.09816205,,,,,,,,,,,,,,,,,,,,,,,,,,,,,,,,,,,,,,,,,,,,,,,,,,,,,,,,,,,,,,,,,,,,,,,,,,,,,,,,,,"[3,7,2]",,,,,,,,,,,,,,,,,,,,,,,,,,,,,,,,,,,,,2,0,2,0,1,,,,,,,,,,,,
,,5de0b69ba91be311cb773b0b,2022-09-08_09h56.12.123,CGTgamblingSpanTasks,2022.2.1,Win32,59.09816205,,,,,,,,,,,,,,,,,,,,,,,,,,,,,,,,,,,,,,,,,,,,,,,,,,,,,,,,,,,,,,,1,,,,,,,,,,,,,,,,,,,,,,,,,,,,,,,,,,,,,2,,,,,,,,,,,,,,,,,,,,,,,,273,-0.014814815,-0.400925926,1,0,0,cont_buttonBS,0,1,1,1,1
,,5de0b69ba91be311cb773b0b,2022-09-08_09h56.12.123,CGTgamblingSpanTasks,2022.2.1,Win32,59.09816205,,,,,,,,,,,,,,,,,,,,,,,,,,,,,,,,,,,,,,,,,,,,,,,,,,,,,,,,,,,,,,,,,,,,,,,,,,,,,,,,,,"[7,4,8,9]",,,,,,,,,,,,,,,,,,,,,,,,,,,,,,,,,,,,,0,0,0,0,1,,,,,,,,,,,,
,,5de0b69ba91be311cb773b0b,2022-09-08_09h56.12.123,CGTgamblingSpanTasks,2022.2.1,Win32,59.09816205,,,,,,,,,,,,,,,,,,,,,,,,,,,,,,,,,,,,,,,,,,,,,,,,,,,,,,,,,,,,,,,,,,,,,,,,,,,,,,,,,,"[7,4,8,9]",,,,,,,,,,,,,,,,,,,,,,,,,,,,,,,,,,,,,1,0,1,0,1,,,,,,,,,,,,
,,5de0b69ba91be311cb773b0b,2022-09-08_09h56.12.123,CGTgamblingSpanTasks,2022.2.1,Win32,59.09816205,,,,,,,,,,,,,,,,,,,,,,,,,,,,,,,,,,,,,,,,,,,,,,,,,,,,,,,,,,,,,,,,,,,,,,,,,,,,,,,,,,"[7,4,8,9]",,,,,,,,,,,,,,,,,,,,,,,,,,,,,,,,,,,,,2,0,2,0,1,,,,,,,,,,,,
,,5de0b69ba91be311cb773b0b,2022-09-08_09h56.12.123,CGTgamblingSpanTasks,2022.2.1,Win32,59.09816205,,,,,,,,,,,,,,,,,,,,,,,,,,,,,,,,,,,,,,,,,,,,,,,,,,,,,,,,,,,,,,,,,,,,,,,,,,,,,,,,,,"[7,4,8,9]",,,,,,,,,,,,,,,,,,,,,,,,,,,,,,,,,,,,,3,0,3,0,1,,,,,,,,,,,,
,,5de0b69ba91be311cb773b0b,2022-09-08_09h56.12.123,CGTgamblingSpanTasks,2022.2.1,Win32,59.09816205,,,,,,,,,,,,,,,,,,,,,,,,,,,,,,,,,,,,,,,,,,,,,,,,,,,,,,,,,,,,,,,1,,,,,,,,,,,,,,,,,,,,,,,,,,,,,,,,,,,,,3,,,,,,,,,,,,,,,,,,,,,,,,9847,-0.014814815,-0.400925926,1,0,0,cont_buttonBS,0,2,2,2,1
,,5de0b69ba91be311cb773b0b,2022-09-08_09h56.12.123,CGTgamblingSpanTasks,2022.2.1,Win32,59.09816205,,,,,,,,,,,,,,,,,,,,,,,,,,,,,,,,,,,,,,,,,,,,,,,,,,,,,,,,,,,,,,,,,,,,,,,,,,,,,,,,,,"[1,5,4,9,6]",,,,,,,,,,,,,,,,,,,,,,,,,,,,,,,,,,,,,0,0,0,0,1,,,,,,,,,,,,
,,5de0b69ba91be311cb773b0b,2022-09-08_09h56.12.123,CGTgamblingSpanTasks,2022.2.1,Win32,59.09816205,,,,,,,,,,,,,,,,,,,,,,,,,,,,,,,,,,,,,,,,,,,,,,,,,,,,,,,,,,,,,,,,,,,,,,,,,,,,,,,,,,"[1,5,4,9,6]",,,,,,,,,,,,,,,,,,,,,,,,,,,,,,,,,,,,,1,0,1,0,1,,,,,,,,,,,,
,,5de0b69ba91be311cb773b0b,2022-09-08_09h56.12.123,CGTgamblingSpanTasks,2022.2.1,Win32,59.09816205,,,,,,,,,,,,,,,,,,,,,,,,,,,,,,,,,,,,,,,,,,,,,,,,,,,,,,,,,,,,,,,,,,,,,,,,,,,,,,,,,,"[1,5,4,9,6]",,,,,,,,,,,,,,,,,,,,,,,,,,,,,,,,,,,,,2,0,2,0,1,,,,,,,,,,,,
,,5de0b69ba91be311cb773b0b,2022-09-08_09h56.12.123,CGTgamblingSpanTasks,2022.2.1,Win32,59.09816205,,,,,,,,,,,,,,,,,,,,,,,,,,,,,,,,,,,,,,,,,,,,,,,,,,,,,,,,,,,,,,,,,,,,,,,,,,,,,,,,,,"[1,5,4,9,6]",,,,,,,,,,,,,,,,,,,,,,,,,,,,,,,,,,,,,3,0,3,0,1,,,,,,,,,,,,
,,5de0b69ba91be311cb773b0b,2022-09-08_09h56.12.123,CGTgamblingSpanTasks,2022.2.1,Win32,59.09816205,,,,,,,,,,,,,,,,,,,,,,,,,,,,,,,,,,,,,,,,,,,,,,,,,,,,,,,,,,,,,,,,,,,,,,,,,,,,,,,,,,"[1,5,4,9,6]",,,,,,,,,,,,,,,,,,,,,,,,,,,,,,,,,,,,,4,0,4,0,1,,,,,,,,,,,,
,,5de0b69ba91be311cb773b0b,2022-09-08_09h56.12.123,CGTgamblingSpanTasks,2022.2.1,Win32,59.09816205,,,,,,,,,,,,,,,,,,,,,,,,,,,,,,,,,,,,,,,,,,,,,,,,,,,,,,,,,,,,,,,1,,,,,,,,,,,,,,,,,,,,,,,,,,,,,,,,,,,,,4,,,,,,,,,,,,,,,,,,,,,,,,69451,-0.014814815,-0.400925926,1,0,0,cont_buttonBS,0,3,3,3,1
,,5de0b69ba91be311cb773b0b,2022-09-08_09h56.12.123,CGTgamblingSpanTasks,2022.2.1,Win32,59.09816205,,,,,,,,,,,,,,,,,,,,,,,,,,,,,,,,,,,,,,,,,,,,,,,,,,,,,,,,,,,,,,,,,,,,,,,,,,,,,,,,,,"[7,1,4,9,8,5]",,,,,,,,,,,,,,,,,,,,,,,,,,,,,,,,,,,,,0,0,0,0,1,,,,,,,,,,,,
,,5de0b69ba91be311cb773b0b,2022-09-08_09h56.12.123,CGTgamblingSpanTasks,2022.2.1,Win32,59.09816205,,,,,,,,,,,,,,,,,,,,,,,,,,,,,,,,,,,,,,,,,,,,,,,,,,,,,,,,,,,,,,,,,,,,,,,,,,,,,,,,,,"[7,1,4,9,8,5]",,,,,,,,,,,,,,,,,,,,,,,,,,,,,,,,,,,,,1,0,1,0,1,,,,,,,,,,,,
,,5de0b69ba91be311cb773b0b,2022-09-08_09h56.12.123,CGTgamblingSpanTasks,2022.2.1,Win32,59.09816205,,,,,,,,,,,,,,,,,,,,,,,,,,,,,,,,,,,,,,,,,,,,,,,,,,,,,,,,,,,,,,,,,,,,,,,,,,,,,,,,,,"[7,1,4,9,8,5]",,,,,,,,,,,,,,,,,,,,,,,,,,,,,,,,,,,,,2,0,2,0,1,,,,,,,,,,,,
,,5de0b69ba91be311cb773b0b,2022-09-08_09h56.12.123,CGTgamblingSpanTasks,2022.2.1,Win32,59.09816205,,,,,,,,,,,,,,,,,,,,,,,,,,,,,,,,,,,,,,,,,,,,,,,,,,,,,,,,,,,,,,,,,,,,,,,,,,,,,,,,,,"[7,1,4,9,8,5]",,,,,,,,,,,,,,,,,,,,,,,,,,,,,,,,,,,,,3,0,3,0,1,,,,,,,,,,,,
,,5de0b69ba91be311cb773b0b,2022-09-08_09h56.12.123,CGTgamblingSpanTasks,2022.2.1,Win32,59.09816205,,,,,,,,,,,,,,,,,,,,,,,,,,,,,,,,,,,,,,,,,,,,,,,,,,,,,,,,,,,,,,,,,,,,,,,,,,,,,,,,,,"[7,1,4,9,8,5]",,,,,,,,,,,,,,,,,,,,,,,,,,,,,,,,,,,,,4,0,4,0,1,,,,,,,,,,,,
,,5de0b69ba91be311cb773b0b,2022-09-08_09h56.12.123,CGTgamblingSpanTasks,2022.2.1,Win32,59.09816205,,,,,,,,,,,,,,,,,,,,,,,,,,,,,,,,,,,,,,,,,,,,,,,,,,,,,,,,,,,,,,,,,,,,,,,,,,,,,,,,,,"[7,1,4,9,8,5]",,,,,,,,,,,,,,,,,,,,,,,,,,,,,,,,,,,,,5,0,5,0,1,,,,,,,,,,,,
,,5de0b69ba91be311cb773b0b,2022-09-08_09h56.12.123,CGTgamblingSpanTasks,2022.2.1,Win32,59.09816205,,,,,,,,,,,,,,,,,,,,,,,,,,,,,,,,,,,,,,,,,,,,,,,,,,,,,,,,,,,,,,,0,,,,,,,,,,,,,,,,,,,,,,,,,,,,,,,,,,,,,5,,,,,,,,,,,,,,,,,,,,,,,,598471,-0.014814815,-0.400925926,1,0,0,cont_buttonBS,0,4,4,4,1
,,5de0b69ba91be311cb773b0b,2022-09-08_09h56.12.123,CGTgamblingSpanTasks,2022.2.1,Win32,59.09816205,,,,,,,,,,,,,,,,,,,,,,,,,,,,,,,,,,,,,,,,,,,,,,,,,,,,,,,,,,,,,,,,,,,,,,,,,,,,,,,,,,"[4,2,1,3,6,9]",,,,,,,,,,,,,,,,,,,,,,,,,,,,,,,,,,,,,0,0,0,0,1,,,,,,,,,,,,
,,5de0b69ba91be311cb773b0b,2022-09-08_09h56.12.123,CGTgamblingSpanTasks,2022.2.1,Win32,59.09816205,,,,,,,,,,,,,,,,,,,,,,,,,,,,,,,,,,,,,,,,,,,,,,,,,,,,,,,,,,,,,,,,,,,,,,,,,,,,,,,,,,"[4,2,1,3,6,9]",,,,,,,,,,,,,,,,,,,,,,,,,,,,,,,,,,,,,1,0,1,0,1,,,,,,,,,,,,
,,5de0b69ba91be311cb773b0b,2022-09-08_09h56.12.123,CGTgamblingSpanTasks,2022.2.1,Win32,59.09816205,,,,,,,,,,,,,,,,,,,,,,,,,,,,,,,,,,,,,,,,,,,,,,,,,,,,,,,,,,,,,,,,,,,,,,,,,,,,,,,,,,"[4,2,1,3,6,9]",,,,,,,,,,,,,,,,,,,,,,,,,,,,,,,,,,,,,2,0,2,0,1,,,,,,,,,,,,
,,5de0b69ba91be311cb773b0b,2022-09-08_09h56.12.123,CGTgamblingSpanTasks,2022.2.1,Win32,59.09816205,,,,,,,,,,,,,,,,,,,,,,,,,,,,,,,,,,,,,,,,,,,,,,,,,,,,,,,,,,,,,,,,,,,,,,,,,,,,,,,,,,"[4,2,1,3,6,9]",,,,,,,,,,,,,,,,,,,,,,,,,,,,,,,,,,,,,3,0,3,0,1,,,,,,,,,,,,
,,5de0b69ba91be311cb773b0b,2022-09-08_09h56.12.123,CGTgamblingSpanTasks,2022.2.1,Win32,59.09816205,,,,,,,,,,,,,,,,,,,,,,,,,,,,,,,,,,,,,,,,,,,,,,,,,,,,,,,,,,,,,,,,,,,,,,,,,,,,,,,,,,"[4,2,1,3,6,9]",,,,,,,,,,,,,,,,,,,,,,,,,,,,,,,,,,,,,4,0,4,0,1,,,,,,,,,,,,
,,5de0b69ba91be311cb773b0b,2022-09-08_09h56.12.123,CGTgamblingSpanTasks,2022.2.1,Win32,59.09816205,,,,,,,,,,,,,,,,,,,,,,,,,,,,,,,,,,,,,,,,,,,,,,,,,,,,,,,,,,,,,,,,,,,,,,,,,,,,,,,,,,"[4,2,1,3,6,9]",,,,,,,,,,,,,,,,,,,,,,,,,,,,,,,,,,,,,5,0,5,0,1,,,,,,,,,,,,
,,5de0b69ba91be311cb773b0b,2022-09-08_09h56.12.123,CGTgamblingSpanTasks,2022.2.1,Win32,59.09816205,,,,,,,,,,,,,,,,,,,,,,,,,,,,,,,,,,,,,,,,,,,,,,,,,,,,,,,,,,,,,,,1,,,,,,,,,,,,,,,,,,,,,,,,,,,,,,,,,,,,,6,,,,,,,,,,,,,,,,,,,,,,,,963124,-0.014814815,-0.400925926,1,0,0,cont_buttonBS,0,5,5,5,1
,,5de0b69ba91be311cb773b0b,2022-09-08_09h56.12.123,CGTgamblingSpanTasks,2022.2.1,Win32,59.09816205,,,,,,,,,,,,,,,,,,,,,,,,,,,,,,,,,,,,,,,,,,,,,,,,,,,,,,,,,,,,,,,,,,,,,,,,,,,,,,,,,,"[7,3,9,1,2,5,4]",,,,,,,,,,,,,,,,,,,,,,,,,,,,,,,,,,,,,0,0,0,0,1,,,,,,,,,,,,
,,5de0b69ba91be311cb773b0b,2022-09-08_09h56.12.123,CGTgamblingSpanTasks,2022.2.1,Win32,59.09816205,,,,,,,,,,,,,,,,,,,,,,,,,,,,,,,,,,,,,,,,,,,,,,,,,,,,,,,,,,,,,,,,,,,,,,,,,,,,,,,,,,"[7,3,9,1,2,5,4]",,,,,,,,,,,,,,,,,,,,,,,,,,,,,,,,,,,,,1,0,1,0,1,,,,,,,,,,,,
,,5de0b69ba91be311cb773b0b,2022-09-08_09h56.12.123,CGTgamblingSpanTasks,2022.2.1,Win32,59.09816205,,,,,,,,,,,,,,,,,,,,,,,,,,,,,,,,,,,,,,,,,,,,,,,,,,,,,,,,,,,,,,,,,,,,,,,,,,,,,,,,,,"[7,3,9,1,2,5,4]",,,,,,,,,,,,,,,,,,,,,,,,,,,,,,,,,,,,,2,0,2,0,1,,,,,,,,,,,,
,,5de0b69ba91be311cb773b0b,2022-09-08_09h56.12.123,CGTgamblingSpanTasks,2022.2.1,Win32,59.09816205,,,,,,,,,,,,,,,,,,,,,,,,,,,,,,,,,,,,,,,,,,,,,,,,,,,,,,,,,,,,,,,,,,,,,,,,,,,,,,,,,,"[7,3,9,1,2,5,4]",,,,,,,,,,,,,,,,,,,,,,,,,,,,,,,,,,,,,3,0,3,0,1,,,,,,,,,,,,
,,5de0b69ba91be311cb773b0b,2022-09-08_09h56.12.123,CGTgamblingSpanTasks,2022.2.1,Win32,59.09816205,,,,,,,,,,,,,,,,,,,,,,,,,,,,,,,,,,,,,,,,,,,,,,,,,,,,,,,,,,,,,,,,,,,,,,,,,,,,,,,,,,"[7,3,9,1,2,5,4]",,,,,,,,,,,,,,,,,,,,,,,,,,,,,,,,,,,,,4,0,4,0,1,,,,,,,,,,,,
,,5de0b69ba91be311cb773b0b,2022-09-08_09h56.12.123,CGTgamblingSpanTasks,2022.2.1,Win32,59.09816205,,,,,,,,,,,,,,,,,,,,,,,,,,,,,,,,,,,,,,,,,,,,,,,,,,,,,,,,,,,,,,,,,,,,,,,,,,,,,,,,,,"[7,3,9,1,2,5,4]",,,,,,,,,,,,,,,,,,,,,,,,,,,,,,,,,,,,,5,0,5,0,1,,,,,,,,,,,,
,,5de0b69ba91be311cb773b0b,2022-09-08_09h56.12.123,CGTgamblingSpanTasks,2022.2.1,Win32,59.09816205,,,,,,,,,,,,,,,,,,,,,,,,,,,,,,,,,,,,,,,,,,,,,,,,,,,,,,,,,,,,,,,,,,,,,,,,,,,,,,,,,,"[7,3,9,1,2,5,4]",,,,,,,,,,,,,,,,,,,,,,,,,,,,,,,,,,,,,6,0,6,0,1,,,,,,,,,,,,
,,5de0b69ba91be311cb773b0b,2022-09-08_09h56.12.123,CGTgamblingSpanTasks,2022.2.1,Win32,59.09816205,,,,,,,,,,,,,,,,,,,,,,,,,,,,,,,,,,,,,,,,,,,,,,,,,,,,,,,,,,,,,,,0,,,,,,,,,,,,,,,,,,,,,,,,,,,,,,,,,,,,,7,,,,,,,,,,,,,,,,,,,,,,,,4259137,-0.014814815,-0.400925926,1,0,0,cont_buttonBS,0,6,6,6,1
,,5de0b69ba91be311cb773b0b,2022-09-08_09h56.12.123,CGTgamblingSpanTasks,2022.2.1,Win32,59.09816205,,,,,,,,,,,,,,,,,,,,,,,,,,,,,,,,,,,,,,,,,,,,,,,,,,,,,,,,,,,,,,,,,,,,,,,,,,,,,,,,,,"[3,1,9,8,4,2,5]",,,,,,,,,,,,,,,,,,,,,,,,,,,,,,,,,,,,,0,0,0,0,1,,,,,,,,,,,,
,,5de0b69ba91be311cb773b0b,2022-09-08_09h56.12.123,CGTgamblingSpanTasks,2022.2.1,Win32,59.09816205,,,,,,,,,,,,,,,,,,,,,,,,,,,,,,,,,,,,,,,,,,,,,,,,,,,,,,,,,,,,,,,,,,,,,,,,,,,,,,,,,,"[3,1,9,8,4,2,5]",,,,,,,,,,,,,,,,,,,,,,,,,,,,,,,,,,,,,1,0,1,0,1,,,,,,,,,,,,
,,5de0b69ba91be311cb773b0b,2022-09-08_09h56.12.123,CGTgamblingSpanTasks,2022.2.1,Win32,59.09816205,,,,,,,,,,,,,,,,,,,,,,,,,,,,,,,,,,,,,,,,,,,,,,,,,,,,,,,,,,,,,,,,,,,,,,,,,,,,,,,,,,"[3,1,9,8,4,2,5]",,,,,,,,,,,,,,,,,,,,,,,,,,,,,,,,,,,,,2,0,2,0,1,,,,,,,,,,,,
,,5de0b69ba91be311cb773b0b,2022-09-08_09h56.12.123,CGTgamblingSpanTasks,2022.2.1,Win32,59.09816205,,,,,,,,,,,,,,,,,,,,,,,,,,,,,,,,,,,,,,,,,,,,,,,,,,,,,,,,,,,,,,,,,,,,,,,,,,,,,,,,,,"[3,1,9,8,4,2,5]",,,,,,,,,,,,,,,,,,,,,,,,,,,,,,,,,,,,,3,0,3,0,1,,,,,,,,,,,,
,,5de0b69ba91be311cb773b0b,2022-09-08_09h56.12.123,CGTgamblingSpanTasks,2022.2.1,Win32,59.09816205,,,,,,,,,,,,,,,,,,,,,,,,,,,,,,,,,,,,,,,,,,,,,,,,,,,,,,,,,,,,,,,,,,,,,,,,,,,,,,,,,,"[3,1,9,8,4,2,5]",,,,,,,,,,,,,,,,,,,,,,,,,,,,,,,,,,,,,4,0,4,0,1,,,,,,,,,,,,
