initITIstatic,initITIdynamic,participant,date,expName,psychopyVersion,OS,frameRate,inst1.keys,inst1.rt,startPracResp.keys,startPracResp.rt,choice1.keys,outcome,extraITI,trials.thisRepN,trials.thisTrialN,trials.thisN,trials.thisIndex,trials.ran,riskyGain,riskyLoss,alternative,isi,iti,loc,choice1.rt,postPractResp.keys,postPractResp.rt,realloc,realChoice.keys,realChoice.rt,outcomes,choices,actualITI,init ITI,staticRDM.thisRepN,staticRDM.thisTrialN,staticRDM.thisN,staticRDM.thisIndex,staticRDM.ran,riskyoption1,riskyoption2,safeoption,ischecktrial,dynamicChoiceSetName,dynamicChoiceSetPath,bestRho,bestMu,trials_2.thisRepN,trials_2.thisTrialN,trials_2.thisN,trials_2.thisIndex,trials_2.ran,key_resp.keys,key_resp.rt,dynamicRDM.thisRepN,dynamicRDM.thisTrialN,dynamicRDM.thisN,dynamicRDM.thisIndex,dynamicRDM.ran,choiceP,easy0difficult1,stopBreak.keys,stopBreak.rt,movealong.keys,movealong.rt,startPractice.keys,startPractice.rt,textboxPractice.text,correct,mousePractice.x,mousePractice.y,mousePractice.leftButton,mousePractice.midButton,mousePractice.rightButton,mousePractice.clicked_name,trialFSPractice.thisRepN,trialFSPractice.thisTrialN,trialFSPractice.thisN,trialFSPractice.thisIndex,trialFSPractice.ran,digitSpanForward,digits,digitsReverse,digitSpanReverse,digitsReverseCorrAnswer,startFSreal.keys,startFSreal.rt,digitsForTrial,digitLoop.thisRepN,digitLoop.thisTrialN,digitLoop.thisN,digitLoop.thisIndex,digitLoop.ran,textbox.text,mouse_3.x,mouse_3.y,mouse_3.leftButton,mouse_3.midButton,mouse_3.rightButton,mouse_3.clicked_name,trialsFS.thisRepN,trialsFS.thisTrialN,trialsFS.thisN,trialsFS.thisIndex,trialsFS.ran,trialNumber,moveToBS.keys,moveToBS.rt,startBSprac.keys,startBSprac.rt,textboxPractice_2.text,mousePractice_2.x,mousePractice_2.y,mousePractice_2.leftButton,mousePractice_2.midButton,mousePractice_2.rightButton,mousePractice_2.clicked_name,trialsPracticeBS.thisRepN,trialsPracticeBS.thisTrialN,trialsPracticeBS.thisN,trialsPracticeBS.thisIndex,trialsPracticeBS.ran,startBSreal.keys,startBSreal.rt,digitLoopBS.thisRepN,digitLoopBS.thisTrialN,digitLoopBS.thisN,digitLoopBS.thisIndex,digitLoopBS.ran,textboxBS.text,mouseBS.x,mouseBS.y,mouseBS.leftButton,mouseBS.midButton,mouseBS.rightButton,mouseBS.clicked_name,trialsBS.thisRepN,trialsBS.thisTrialN,trialsBS.thisN,trialsBS.thisIndex,trialsBS.ran
"[1,1,1,1.5,1.5,1,1,1.5,1.5,1.5,1.5,1,1,1.5,1,1.5,1.5,1,1.5,1,1,1.5,1,1,1.5,1.5,1.5,1.5,1,1,1.5,1.5,1.5,1.5,1.5,1,1.5,1,1.5,1,1,1.5,1,1,1.5,1,1,1.5,1,1]","[1.5,1,1,1,1,1.5,1.5,1,1,1.5,1.5,1.5,1.5,1.5,1.5,1.5,1.5,1.5,1,1,1.5,1,1,1,1,1.5,1.5,1.5,1,1.5,1.5,1,1,1.5,1.5,1,1,1.5,1.5,1,1.5,1,1.5,1.5,1,1,1.5,1.5,1,1,1.5,1.5,1.5,1,1,1,1,1.5,1.5,1.5,1,1,1.5,1,1.5,1.5,1.5,1,1.5,1,1,1,1,1.5,1,1.5,1.5,1.5,1.5,1.5,1,1.5,1,1,1,1.5,1,1.5,1,1.5,1,1.5,1,1,1.5,1.5,1.5,1.5,1,1,1.5,1,1.5,1,1.5,1,1.5,1,1.5,1,1,1.5,1,1,1,1.5,1,1,1,1]",614ee4370d85f20de1b9548f,2022-09-08_19h03.52.677,CGTgamblingSpanTasks,2022.2.1,Win32,60.0240096,,,,,,,,,,,,,,,,,,,,,,,,,,,,,,,,,,,,,,,,,,,,,,,,,,,,,,,,,,,,,,,,,,,,,,,,,,,,,,,,,,,,,,,,,,,,,,,,,,,,,,,,,,,,,,,,,,,,,,,,,,,,,,,,,,,,,,,
,,614ee4370d85f20de1b9548f,2022-09-08_19h03.52.677,CGTgamblingSpanTasks,2022.2.1,Win32,60.0240096,return,13.317,,,,,,,,,,,,,,,,,,,,,,,,,,,,,,,,,,,,,,,,,,,,,,,,,,,,,,,,,,,,,,,,,,,,,,,,,,,,,,,,,,,,,,,,,,,,,,,,,,,,,,,,,,,,,,,,,,,,,,,,,,,,,,,,,,,,,
,,614ee4370d85f20de1b9548f,2022-09-08_19h03.52.677,CGTgamblingSpanTasks,2022.2.1,Win32,60.0240096,,,v,4.569,,,,,,,,,,,,,,,,,,,,,,,,,,,,,,,,,,,,,,,,,,,,,,,,,,,,,,,,,,,,,,,,,,,,,,,,,,,,,,,,,,,,,,,,,,,,,,,,,,,,,,,,,,,,,,,,,,,,,,,,,,,,,,,,,,,
,,614ee4370d85f20de1b9548f,2022-09-08_19h03.52.677,CGTgamblingSpanTasks,2022.2.1,Win32,60.0240096,,,,,, ,0,0,0,0,0,1,18.23,0,9.45,2,1,1,,,,,,,,,,,,,,,,,,,,,,,,,,,,,,,,,,,,,,,,,,,,,,,,,,,,,,,,,,,,,,,,,,,,,,,,,,,,,,,,,,,,,,,,,,,,,,,,,,,,,,,,,,,,,,,,,,,,,
,,614ee4370d85f20de1b9548f,2022-09-08_19h03.52.677,CGTgamblingSpanTasks,2022.2.1,Win32,60.0240096,,,,,n,35.16,3.161,0,1,1,1,1,53.27,0,35.16,1,1.5,1,0.839,,,,,,,,,,,,,,,,,,,,,,,,,,,,,,,,,,,,,,,,,,,,,,,,,,,,,,,,,,,,,,,,,,,,,,,,,,,,,,,,,,,,,,,,,,,,,,,,,,,,,,,,,,,,,,,,,,,,
,,614ee4370d85f20de1b9548f,2022-09-08_19h03.52.677,CGTgamblingSpanTasks,2022.2.1,Win32,60.0240096,,,,,v,1.15,3.059,0,2,2,2,1,8.27,0,1.15,1,1.5,2,0.941,,,,,,,,,,,,,,,,,,,,,,,,,,,,,,,,,,,,,,,,,,,,,,,,,,,,,,,,,,,,,,,,,,,,,,,,,,,,,,,,,,,,,,,,,,,,,,,,,,,,,,,,,,,,,,,,,,,,
,,614ee4370d85f20de1b9548f,2022-09-08_19h03.52.677,CGTgamblingSpanTasks,2022.2.1,Win32,60.0240096,,,,,n,40.41,1.711,0,3,3,3,1,45.88,0,40.41,3,1,1,2.289,,,,,,,,,,,,,,,,,,,,,,,,,,,,,,,,,,,,,,,,,,,,,,,,,,,,,,,,,,,,,,,,,,,,,,,,,,,,,,,,,,,,,,,,,,,,,,,,,,,,,,,,,,,,,,,,,,,,
,,614ee4370d85f20de1b9548f,2022-09-08_19h03.52.677,CGTgamblingSpanTasks,2022.2.1,Win32,60.0240096,,,,,v,11.96,2.658,0,4,4,4,1,21.56,0,11.96,1,1.5,2,1.342,,,,,,,,,,,,,,,,,,,,,,,,,,,,,,,,,,,,,,,,,,,,,,,,,,,,,,,,,,,,,,,,,,,,,,,,,,,,,,,,,,,,,,,,,,,,,,,,,,,,,,,,,,,,,,,,,,,,
,,614ee4370d85f20de1b9548f,2022-09-08_19h03.52.677,CGTgamblingSpanTasks,2022.2.1,Win32,60.0240096,,,,,,,,,,,,,,,,,,,,v,10.905,,,,,,,,,,,,,,,,,,,,,,,,,,,,,,,,,,,,,,,,,,,,,,,,,,,,,,,,,,,,,,,,,,,,,,,,,,,,,,,,,,,,,,,,,,,,,,,,,,,,,,,,,,,,,,,,,,
,,614ee4370d85f20de1b9548f,2022-09-08_19h03.52.677,CGTgamblingSpanTasks,2022.2.1,Win32,60.0240096,,,,,,,0.108,,,,,,,,,,,,,,,2,v,3.892,6.81,0,1.108,1,0,0,0,34,1,10.39,0,6.81,0,,,,,,,,,,,,,,,,,,,,,,,,,,,,,,,,,,,,,,,,,,,,,,,,,,,,,,,,,,,,,,,,,,,,,,,,,,,,,,,,,,,,,,,,,,,,,,,,,,
,,614ee4370d85f20de1b9548f,2022-09-08_19h03.52.677,CGTgamblingSpanTasks,2022.2.1,Win32,60.0240096,,,,,,,2.996,,,,,,,,,,,,,,,2,n,1.004,10.73,1,3.996,1,0,1,1,30,1,10.73,0,6.63,0,,,,,,,,,,,,,,,,,,,,,,,,,,,,,,,,,,,,,,,,,,,,,,,,,,,,,,,,,,,,,,,,,,,,,,,,,,,,,,,,,,,,,,,,,,,,,,,,,,
,,614ee4370d85f20de1b9548f,2022-09-08_19h03.52.677,CGTgamblingSpanTasks,2022.2.1,Win32,60.0240096,,,,,,,3.445,,,,,,,,,,,,,,,1,v,0.555,13.1,1,4.445,1,0,2,2,44,1,13.1,7.73,4.68,1,,,,,,,,,,,,,,,,,,,,,,,,,,,,,,,,,,,,,,,,,,,,,,,,,,,,,,,,,,,,,,,,,,,,,,,,,,,,,,,,,,,,,,,,,,,,,,,,,,
,,614ee4370d85f20de1b9548f,2022-09-08_19h03.52.677,CGTgamblingSpanTasks,2022.2.1,Win32,60.0240096,,,,,,,3.278,,,,,,,,,,,,,,,1,n,0.722,9.92,0,4.778,1.5,0,3,3,49,1,6.79,0,9.92,1,,,,,,,,,,,,,,,,,,,,,,,,,,,,,,,,,,,,,,,,,,,,,,,,,,,,,,,,,,,,,,,,,,,,,,,,,,,,,,,,,,,,,,,,,,,,,,,,,,
,,614ee4370d85f20de1b9548f,2022-09-08_19h03.52.677,CGTgamblingSpanTasks,2022.2.1,Win32,60.0240096,,,,,,,1.411,,,,,,,,,,,,,,,2,v,2.589,9.36,0,2.911,1.5,0,4,4,23,1,17.28,0,9.36,0,,,,,,,,,,,,,,,,,,,,,,,,,,,,,,,,,,,,,,,,,,,,,,,,,,,,,,,,,,,,,,,,,,,,,,,,,,,,,,,,,,,,,,,,,,,,,,,,,,
,,614ee4370d85f20de1b9548f,2022-09-08_19h03.52.677,CGTgamblingSpanTasks,2022.2.1,Win32,60.0240096,,,,,,,1.775,,,,,,,,,,,,,,,2,v,2.225,6.19,0,2.775,1,0,5,5,22,1,11.62,0,6.19,0,,,,,,,,,,,,,,,,,,,,,,,,,,,,,,,,,,,,,,,,,,,,,,,,,,,,,,,,,,,,,,,,,,,,,,,,,,,,,,,,,,,,,,,,,,,,,,,,,,
,,614ee4370d85f20de1b9548f,2022-09-08_19h03.52.677,CGTgamblingSpanTasks,2022.2.1,Win32,60.0240096,,,,,,,3.318,,,,,,,,,,,,,,,2,n,0.682,0,1,4.318,1,0,6,6,8,1,13.94,0,5.03,0,,,,,,,,,,,,,,,,,,,,,,,,,,,,,,,,,,,,,,,,,,,,,,,,,,,,,,,,,,,,,,,,,,,,,,,,,,,,,,,,,,,,,,,,,,,,,,,,,,
,,614ee4370d85f20de1b9548f,2022-09-08_19h03.52.677,CGTgamblingSpanTasks,2022.2.1,Win32,60.0240096,,,,,,,2.391,,,,,,,,,,,,,,,2,v,1.609,5.66,0,3.891,1.5,0,7,7,14,1,12.68,0,5.66,0,,,,,,,,,,,,,,,,,,,,,,,,,,,,,,,,,,,,,,,,,,,,,,,,,,,,,,,,,,,,,,,,,,,,,,,,,,,,,,,,,,,,,,,,,,,,,,,,,,
,,614ee4370d85f20de1b9548f,2022-09-08_19h03.52.677,CGTgamblingSpanTasks,2022.2.1,Win32,60.0240096,,,,,,,2.147,,,,,,,,,,,,,,,2,n,1.853,15.7,1,3.647,1.5,0,8,8,33,1,15.7,0,10.15,0,,,,,,,,,,,,,,,,,,,,,,,,,,,,,,,,,,,,,,,,,,,,,,,,,,,,,,,,,,,,,,,,,,,,,,,,,,,,,,,,,,,,,,,,,,,,,,,,,,
,,614ee4370d85f20de1b9548f,2022-09-08_19h03.52.677,CGTgamblingSpanTasks,2022.2.1,Win32,60.0240096,,,,,,,2.911,,,,,,,,,,,,,,,2,v,1.089,6.51,0,4.411,1.5,0,9,9,5,1,22.97,0,6.51,0,,,,,,,,,,,,,,,,,,,,,,,,,,,,,,,,,,,,,,,,,,,,,,,,,,,,,,,,,,,,,,,,,,,,,,,,,,,,,,,,,,,,,,,,,,,,,,,,,,
,,614ee4370d85f20de1b9548f,2022-09-08_19h03.52.677,CGTgamblingSpanTasks,2022.2.1,Win32,60.0240096,,,,,,,2.129,,,,,,,,,,,,,,,2,n,1.871,10.68,1,3.629,1.5,0,10,10,48,1,10.68,0,10.68,1,,,,,,,,,,,,,,,,,,,,,,,,,,,,,,,,,,,,,,,,,,,,,,,,,,,,,,,,,,,,,,,,,,,,,,,,,,,,,,,,,,,,,,,,,,,,,,,,,,
,,614ee4370d85f20de1b9548f,2022-09-08_19h03.52.677,CGTgamblingSpanTasks,2022.2.1,Win32,60.0240096,,,,,,,1.924,,,,,,,,,,,,,,,1,v,2.076,0,1,2.924,1,0,11,11,13,1,19.28,0,8.36,0,,,,,,,,,,,,,,,,,,,,,,,,,,,,,,,,,,,,,,,,,,,,,,,,,,,,,,,,,,,,,,,,,,,,,,,,,,,,,,,,,,,,,,,,,,,,,,,,,,
,,614ee4370d85f20de1b9548f,2022-09-08_19h03.52.677,CGTgamblingSpanTasks,2022.2.1,Win32,60.0240096,,,,,,,2.753,,,,,,,,,,,,,,,2,v,1.247,6.73,0,3.753,1,0,12,12,32,1,10.55,0,6.73,0,,,,,,,,,,,,,,,,,,,,,,,,,,,,,,,,,,,,,,,,,,,,,,,,,,,,,,,,,,,,,,,,,,,,,,,,,,,,,,,,,,,,,,,,,,,,,,,,,,
,,614ee4370d85f20de1b9548f,2022-09-08_19h03.52.677,CGTgamblingSpanTasks,2022.2.1,Win32,60.0240096,,,,,,,2.26,,,,,,,,,,,,,,,1,n,1.74,6.08,0,3.76,1.5,0,13,13,20,1,11.84,0,6.08,0,,,,,,,,,,,,,,,,,,,,,,,,,,,,,,,,,,,,,,,,,,,,,,,,,,,,,,,,,,,,,,,,,,,,,,,,,,,,,,,,,,,,,,,,,,,,,,,,,,
,,614ee4370d85f20de1b9548f,2022-09-08_19h03.52.677,CGTgamblingSpanTasks,2022.2.1,Win32,60.0240096,,,,,,,2.429,,,,,,,,,,,,,,,1,v,1.571,0,1,3.429,1,0,14,14,7,1,21.32,0,7.34,0,,,,,,,,,,,,,,,,,,,,,,,,,,,,,,,,,,,,,,,,,,,,,,,,,,,,,,,,,,,,,,,,,,,,,,,,,,,,,,,,,,,,,,,,,,,,,,,,,,
,,614ee4370d85f20de1b9548f,2022-09-08_19h03.52.677,CGTgamblingSpanTasks,2022.2.1,Win32,60.0240096,,,,,,,1.792,,,,,,,,,,,,,,,1,v,2.208,0,1,3.292,1.5,0,15,15,40,1,10.35,0,0,1,,,,,,,,,,,,,,,,,,,,,,,,,,,,,,,,,,,,,,,,,,,,,,,,,,,,,,,,,,,,,,,,,,,,,,,,,,,,,,,,,,,,,,,,,,,,,,,,,,
,,614ee4370d85f20de1b9548f,2022-09-08_19h03.52.677,CGTgamblingSpanTasks,2022.2.1,Win32,60.0240096,,,,,,,2.292,,,,,,,,,,,,,,,2,v,1.708,9.87,0,3.792,1.5,0,16,16,29,1,16.26,0,9.87,0,,,,,,,,,,,,,,,,,,,,,,,,,,,,,,,,,,,,,,,,,,,,,,,,,,,,,,,,,,,,,,,,,,,,,,,,,,,,,,,,,,,,,,,,,,,,,,,,,,
,,614ee4370d85f20de1b9548f,2022-09-08_19h03.52.677,CGTgamblingSpanTasks,2022.2.1,Win32,60.0240096,,,,,,,2.379,,,,,,,,,,,,,,,1,n,1.621,6.94,0,3.379,1,0,17,17,38,1,10.12,0,6.94,0,,,,,,,,,,,,,,,,,,,,,,,,,,,,,,,,,,,,,,,,,,,,,,,,,,,,,,,,,,,,,,,,,,,,,,,,,,,,,,,,,,,,,,,,,,,,,,,,,,
,,614ee4370d85f20de1b9548f,2022-09-08_19h03.52.677,CGTgamblingSpanTasks,2022.2.1,Win32,60.0240096,,,,,,,2.36,,,,,,,,,,,,,,,2,n,1.64,0,1,3.86,1.5,0,18,18,28,1,10.95,0,6.53,0,,,,,,,,,,,,,,,,,,,,,,,,,,,,,,,,,,,,,,,,,,,,,,,,,,,,,,,,,,,,,,,,,,,,,,,,,,,,,,,,,,,,,,,,,,,,,,,,,,
,,614ee4370d85f20de1b9548f,2022-09-08_19h03.52.677,CGTgamblingSpanTasks,2022.2.1,Win32,60.0240096,,,,,,,1.954,,,,,,,,,,,,,,,1,n,2.046,5.48,0,2.954,1,0,19,19,12,1,13.04,0,5.48,0,,,,,,,,,,,,,,,,,,,,,,,,,,,,,,,,,,,,,,,,,,,,,,,,,,,,,,,,,,,,,,,,,,,,,,,,,,,,,,,,,,,,,,,,,,,,,,,,,,
,,614ee4370d85f20de1b9548f,2022-09-08_19h03.52.677,CGTgamblingSpanTasks,2022.2.1,Win32,60.0240096,,,,,,,2.746,,,,,,,,,,,,,,,2,v,1.254,3.13,0,3.746,1,0,20,20,2,1,17.73,0,3.13,0,,,,,,,,,,,,,,,,,,,,,,,,,,,,,,,,,,,,,,,,,,,,,,,,,,,,,,,,,,,,,,,,,,,,,,,,,,,,,,,,,,,,,,,,,,,,,,,,,,
,,614ee4370d85f20de1b9548f,2022-09-08_19h03.52.677,CGTgamblingSpanTasks,2022.2.1,Win32,60.0240096,,,,,,,2.792,,,,,,,,,,,,,,,2,n,1.208,19.86,1,4.292,1.5,0,21,21,42,1,19.86,0,0,1,,,,,,,,,,,,,,,,,,,,,,,,,,,,,,,,,,,,,,,,,,,,,,,,,,,,,,,,,,,,,,,,,,,,,,,,,,,,,,,,,,,,,,,,,,,,,,,,,,
,,614ee4370d85f20de1b9548f,2022-09-08_19h03.52.677,CGTgamblingSpanTasks,2022.2.1,Win32,60.0240096,,,,,,,2.944,,,,,,,,,,,,,,,1,n,1.056,9.7,0,3.944,1,0,22,22,27,1,16.6,0,9.7,0,,,,,,,,,,,,,,,,,,,,,,,,,,,,,,,,,,,,,,,,,,,,,,,,,,,,,,,,,,,,,,,,,,,,,,,,,,,,,,,,,,,,,,,,,,,,,,,,,,
,,614ee4370d85f20de1b9548f,2022-09-08_19h03.52.677,CGTgamblingSpanTasks,2022.2.1,Win32,60.0240096,,,,,,,0.294,,,,,,,,,,,,,,,2,v,3.706,7.55,0,1.294,1,0,23,23,45,1,0,0,7.55,1,,,,,,,,,,,,,,,,,,,,,,,,,,,,,,,,,,,,,,,,,,,,,,,,,,,,,,,,,,,,,,,,,,,,,,,,,,,,,,,,,,,,,,,,,,,,,,,,,,
,,614ee4370d85f20de1b9548f,2022-09-08_19h03.52.677,CGTgamblingSpanTasks,2022.2.1,Win32,60.0240096,,,,,,,2.81,,,,,,,,,,,,,,,2,n,1.19,0,1,4.31,1.5,0,24,24,21,1,17.59,0,9.2,0,,,,,,,,,,,,,,,,,,,,,,,,,,,,,,,,,,,,,,,,,,,,,,,,,,,,,,,,,,,,,,,,,,,,,,,,,,,,,,,,,,,,,,,,,,,,,,,,,,
,,614ee4370d85f20de1b9548f,2022-09-08_19h03.52.677,CGTgamblingSpanTasks,2022.2.1,Win32,60.0240096,,,,,,,3.161,,,,,,,,,,,,,,,2,v,0.839,6.88,0,4.661,1.5,0,25,25,36,1,10.24,0,6.88,0,,,,,,,,,,,,,,,,,,,,,,,,,,,,,,,,,,,,,,,,,,,,,,,,,,,,,,,,,,,,,,,,,,,,,,,,,,,,,,,,,,,,,,,,,,,,,,,,,,
,,614ee4370d85f20de1b9548f,2022-09-08_19h03.52.677,CGTgamblingSpanTasks,2022.2.1,Win32,60.0240096,,,,,,,3.088,,,,,,,,,,,,,,,1,n,0.912,1.99,0,4.588,1.5,0,26,26,0,1,20.03,0,1.99,0,,,,,,,,,,,,,,,,,,,,,,,,,,,,,,,,,,,,,,,,,,,,,,,,,,,,,,,,,,,,,,,,,,,,,,,,,,,,,,,,,,,,,,,,,,,,,,,,,,
,,614ee4370d85f20de1b9548f,2022-09-08_19h03.52.677,CGTgamblingSpanTasks,2022.2.1,Win32,60.0240096,,,,,,,3.061,,,,,,,,,,,,,,,2,v,0.939,8.61,0,4.561,1.5,0,27,27,15,1,18.77,0,8.61,0,,,,,,,,,,,,,,,,,,,,,,,,,,,,,,,,,,,,,,,,,,,,,,,,,,,,,,,,,,,,,,,,,,,,,,,,,,,,,,,,,,,,,,,,,,,,,,,,,,
,,614ee4370d85f20de1b9548f,2022-09-08_19h03.52.677,CGTgamblingSpanTasks,2022.2.1,Win32,60.0240096,,,,,,,2.52,,,,,,,,,,,,,,,1,n,1.48,10.46,0,3.52,1,0,28,28,39,1,15.09,0,10.46,0,,,,,,,,,,,,,,,,,,,,,,,,,,,,,,,,,,,,,,,,,,,,,,,,,,,,,,,,,,,,,,,,,,,,,,,,,,,,,,,,,,,,,,,,,,,,,,,,,,
,,614ee4370d85f20de1b9548f,2022-09-08_19h03.52.677,CGTgamblingSpanTasks,2022.2.1,Win32,60.0240096,,,,,,,3.276,,,,,,,,,,,,,,,2,v,0.724,8.07,0,4.276,1,0,29,29,11,1,19.86,0,8.07,0,,,,,,,,,,,,,,,,,,,,,,,,,,,,,,,,,,,,,,,,,,,,,,,,,,,,,,,,,,,,,,,,,,,,,,,,,,,,,,,,,,,,,,,,,,,,,,,,,,
,,614ee4370d85f20de1b9548f,2022-09-08_19h03.52.677,CGTgamblingSpanTasks,2022.2.1,Win32,60.0240096,,,,,,,3.508,,,,,,,,,,,,,,,1,n,0.492,6.29,0,5.008,1.5,0,30,30,24,1,11.43,0,6.29,0,,,,,,,,,,,,,,,,,,,,,,,,,,,,,,,,,,,,,,,,,,,,,,,,,,,,,,,,,,,,,,,,,,,,,,,,,,,,,,,,,,,,,,,,,,,,,,,,,,
,,614ee4370d85f20de1b9548f,2022-09-08_19h03.52.677,CGTgamblingSpanTasks,2022.2.1,Win32,60.0240096,,,,,,,2.596,,,,,,,,,,,,,,,1,v,1.404,16.11,1,4.096,1.5,0,31,31,43,1,16.11,6.99,6.99,1,,,,,,,,,,,,,,,,,,,,,,,,,,,,,,,,,,,,,,,,,,,,,,,,,,,,,,,,,,,,,,,,,,,,,,,,,,,,,,,,,,,,,,,,,,,,,,,,,,
,,614ee4370d85f20de1b9548f,2022-09-08_19h03.52.677,CGTgamblingSpanTasks,2022.2.1,Win32,60.0240096,,,,,,,2.71,,,,,,,,,,,,,,,2,v,1.29,6.4,0,4.21,1.5,0,32,32,26,1,11.2,0,6.4,0,,,,,,,,,,,,,,,,,,,,,,,,,,,,,,,,,,,,,,,,,,,,,,,,,,,,,,,,,,,,,,,,,,,,,,,,,,,,,,,,,,,,,,,,,,,,,,,,,,
,,614ee4370d85f20de1b9548f,2022-09-08_19h03.52.677,CGTgamblingSpanTasks,2022.2.1,Win32,60.0240096,,,,,,,2.567,,,,,,,,,,,,,,,1,n,1.433,5.27,0,4.067,1.5,0,33,33,10,1,13.45,0,5.27,0,,,,,,,,,,,,,,,,,,,,,,,,,,,,,,,,,,,,,,,,,,,,,,,,,,,,,,,,,,,,,,,,,,,,,,,,,,,,,,,,,,,,,,,,,,,,,,,,,,
,,614ee4370d85f20de1b9548f,2022-09-08_19h03.52.677,CGTgamblingSpanTasks,2022.2.1,Win32,60.0240096,,,,,,,1.944,,,,,,,,,,,,,,,2,n,2.056,0,1,3.444,1.5,0,34,34,4,1,16,0,4,0,,,,,,,,,,,,,,,,,,,,,,,,,,,,,,,,,,,,,,,,,,,,,,,,,,,,,,,,,,,,,,,,,,,,,,,,,,,,,,,,,,,,,,,,,,,,,,,,,,
,,614ee4370d85f20de1b9548f,2022-09-08_19h03.52.677,CGTgamblingSpanTasks,2022.2.1,Win32,60.0240096,,,,,,,3.44,,,,,,,,,,,,,,,1,v,0.56,0,1,4.44,1,0,35,35,3,1,25.2,0,5.4,0,,,,,,,,,,,,,,,,,,,,,,,,,,,,,,,,,,,,,,,,,,,,,,,,,,,,,,,,,,,,,,,,,,,,,,,,,,,,,,,,,,,,,,,,,,,,,,,,,,
,,614ee4370d85f20de1b9548f,2022-09-08_19h03.52.677,CGTgamblingSpanTasks,2022.2.1,Win32,60.0240096,,,,,,,0.862,,,,,,,,,,,,,,,1,v,3.138,0,1,2.362,1.5,0,36,36,31,1,15.96,0,10.02,0,,,,,,,,,,,,,,,,,,,,,,,,,,,,,,,,,,,,,,,,,,,,,,,,,,,,,,,,,,,,,,,,,,,,,,,,,,,,,,,,,,,,,,,,,,,,,,,,,,
,,614ee4370d85f20de1b9548f,2022-09-08_19h03.52.677,CGTgamblingSpanTasks,2022.2.1,Win32,60.0240096,,,,,,,1.876,,,,,,,,,,,,,,,1,v,2.124,0,1,2.876,1,0,37,37,47,1,0,0,3.13,1,,,,,,,,,,,,,,,,,,,,,,,,,,,,,,,,,,,,,,,,,,,,,,,,,,,,,,,,,,,,,,,,,,,,,,,,,,,,,,,,,,,,,,,,,,,,,,,,,,
,,614ee4370d85f20de1b9548f,2022-09-08_19h03.52.677,CGTgamblingSpanTasks,2022.2.1,Win32,60.0240096,,,,,,,1.776,,,,,,,,,,,,,,,2,v,2.224,9.03,0,3.276,1.5,0,38,38,19,1,17.94,0,9.03,0,,,,,,,,,,,,,,,,,,,,,,,,,,,,,,,,,,,,,,,,,,,,,,,,,,,,,,,,,,,,,,,,,,,,,,,,,,,,,,,,,,,,,,,,,,,,,,,,,,
,,614ee4370d85f20de1b9548f,2022-09-08_19h03.52.677,CGTgamblingSpanTasks,2022.2.1,Win32,60.0240096,,,,,,,1.908,,,,,,,,,,,,,,,2,v,2.092,5.96,0,2.908,1,0,39,39,18,1,12.08,0,5.96,0,,,,,,,,,,,,,,,,,,,,,,,,,,,,,,,,,,,,,,,,,,,,,,,,,,,,,,,,,,,,,,,,,,,,,,,,,,,,,,,,,,,,,,,,,,,,,,,,,,
,,614ee4370d85f20de1b9548f,2022-09-08_19h03.52.677,CGTgamblingSpanTasks,2022.2.1,Win32,60.0240096,,,,,,,1.609,,,,,,,,,,,,,,,2,n,2.391,0,1,2.609,1,0,40,40,46,1,0,0,10.25,1,,,,,,,,,,,,,,,,,,,,,,,,,,,,,,,,,,,,,,,,,,,,,,,,,,,,,,,,,,,,,,,,,,,,,,,,,,,,,,,,,,,,,,,,,,,,,,,,,,
,,614ee4370d85f20de1b9548f,2022-09-08_19h03.52.677,CGTgamblingSpanTasks,2022.2.1,Win32,60.0240096,,,,,,,0.926,,,,,,,,,,,,,,,1,n,3.074,7.73,0,2.426,1.5,0,41,41,9,1,20.53,0,7.73,0,,,,,,,,,,,,,,,,,,,,,,,,,,,,,,,,,,,,,,,,,,,,,,,,,,,,,,,,,,,,,,,,,,,,,,,,,,,,,,,,,,,,,,,,,,,,,,,,,,
,,614ee4370d85f20de1b9548f,2022-09-08_19h03.52.677,CGTgamblingSpanTasks,2022.2.1,Win32,60.0240096,,,,,,,2.394,,,,,,,,,,,,,,,1,n,1.606,8.84,0,3.394,1,0,42,42,17,1,18.33,0,8.84,0,,,,,,,,,,,,,,,,,,,,,,,,,,,,,,,,,,,,,,,,,,,,,,,,,,,,,,,,,,,,,,,,,,,,,,,,,,,,,,,,,,,,,,,,,,,,,,,,,,
,,614ee4370d85f20de1b9548f,2022-09-08_19h03.52.677,CGTgamblingSpanTasks,2022.2.1,Win32,60.0240096,,,,,,,1.401,,,,,,,,,,,,,,,1,v,2.599,14.26,1,2.401,1,0,43,43,41,1,14.26,0,0,1,,,,,,,,,,,,,,,,,,,,,,,,,,,,,,,,,,,,,,,,,,,,,,,,,,,,,,,,,,,,,,,,,,,,,,,,,,,,,,,,,,,,,,,,,,,,,,,,,,
,,614ee4370d85f20de1b9548f,2022-09-08_19h03.52.677,CGTgamblingSpanTasks,2022.2.1,Win32,60.0240096,,,,,,,2.592,,,,,,,,,,,,,,,1,n,1.408,10.27,0,4.092,1.5,0,44,44,35,1,15.47,0,10.27,0,,,,,,,,,,,,,,,,,,,,,,,,,,,,,,,,,,,,,,,,,,,,,,,,,,,,,,,,,,,,,,,,,,,,,,,,,,,,,,,,,,,,,,,,,,,,,,,,,,
,,614ee4370d85f20de1b9548f,2022-09-08_19h03.52.677,CGTgamblingSpanTasks,2022.2.1,Win32,60.0240096,,,,,,,2.26,,,,,,,,,,,,,,,2,v,1.74,10.37,0,3.26,1,0,45,45,37,1,15.27,0,10.37,0,,,,,,,,,,,,,,,,,,,,,,,,,,,,,,,,,,,,,,,,,,,,,,,,,,,,,,,,,,,,,,,,,,,,,,,,,,,,,,,,,,,,,,,,,,,,,,,,,,
,,614ee4370d85f20de1b9548f,2022-09-08_19h03.52.677,CGTgamblingSpanTasks,2022.2.1,Win32,60.0240096,,,,,,,2.095,,,,,,,,,,,,,,,1,n,1.905,3.89,0,3.095,1,0,46,46,1,1,28.21,0,3.89,0,,,,,,,,,,,,,,,,,,,,,,,,,,,,,,,,,,,,,,,,,,,,,,,,,,,,,,,,,,,,,,,,,,,,,,,,,,,,,,,,,,,,,,,,,,,,,,,,,,
,,614ee4370d85f20de1b9548f,2022-09-08_19h03.52.677,CGTgamblingSpanTasks,2022.2.1,Win32,60.0240096,,,,,,,2.299,,,,,,,,,,,,,,,2,v,1.701,9.5,0,3.799,1.5,0,47,47,25,1,17,0,9.5,0,,,,,,,,,,,,,,,,,,,,,,,,,,,,,,,,,,,,,,,,,,,,,,,,,,,,,,,,,,,,,,,,,,,,,,,,,,,,,,,,,,,,,,,,,,,,,,,,,,
,,614ee4370d85f20de1b9548f,2022-09-08_19h03.52.677,CGTgamblingSpanTasks,2022.2.1,Win32,60.0240096,,,,,,,2.596,,,,,,,,,,,,,,,1,n,1.404,5.82,0,3.596,1,0,48,48,16,1,12.36,0,5.82,0,,,,,,,,,,,,,,,,,,,,,,,,,,,,,,,,,,,,,,,,,,,,,,,,,,,,,,,,,,,,,,,,,,,,,,,,,,,,,,,,,,,,,,,,,,,,,,,,,,
,,614ee4370d85f20de1b9548f,2022-09-08_19h03.52.677,CGTgamblingSpanTasks,2022.2.1,Win32,60.0240096,,,,,,,1.392,,,,,,,,,,,,,,,1,v,2.608,0,1,2.392,1,0,49,49,6,1,14.72,0,4.64,0,,,,,,,,,,,,,,,,,,,,,,,,,,,,,,,,,,,,,,,,,,,,,,,,,,,,,,,,,,,,,,,,,,,,,,,,,,,,,,,,,,,,,,,,,,,,,,,,,,
,,614ee4370d85f20de1b9548f,2022-09-08_19h03.52.677,CGTgamblingSpanTasks,2022.2.1,Win32,60.0240096,,,,,,,,,,,,,,,,,,,,,,,,,,,,,,,,,,,,,,bespoke_choiceset_rhoInd029_muInd001.csv,bespoke_choicesets/bespoke_choiceset_rhoInd029_muInd001.csv,29,1,0,0,0,0,1,,,,,,,,,,,,,,,,,,,,,,,,,,,,,,,,,,,,,,,,,,,,,,,,,,,,,,,,,,,,,,,,,,,,,,,,,,,,,,,,,,,,,,,,,
,,614ee4370d85f20de1b9548f,2022-09-08_19h03.52.677,CGTgamblingSpanTasks,2022.2.1,Win32,60.0240096,,,,,,,,,,,,,,,,,,,,,,,,,,,,,,,,,,,,,,,,,,,,,,,,,,,,,,,,,,,,,,,,,,,,,,,,,,,,,,,,,,,,,,,,,,,,,,,,,,,,,,,,,,,,,,,,,,,,,,,,,,,,,,,,,,,,,,,
,,614ee4370d85f20de1b9548f,2022-09-08_19h03.52.677,CGTgamblingSpanTasks,2022.2.1,Win32,60.0240096,,,,,,,,,,,,,,,,,,,,,,,,,,,,,,,,,,,,,,,,,,,,,,,v,4.772,,,,,,,,,,,,,,,,,,,,,,,,,,,,,,,,,,,,,,,,,,,,,,,,,,,,,,,,,,,,,,,,,,,,,,,,,,,,,,,,,,,,,,,
,,614ee4370d85f20de1b9548f,2022-09-08_19h03.52.677,CGTgamblingSpanTasks,2022.2.1,Win32,60.0240096,,,,,,,1.378,,,,,,,,,,,,,,,1,v,2.622,0,1,2.878,1.5,,,,,,10.43004651,0,11.6744431,,,,,,,,,,,,,0,0,0,15,1,0.026176489,0,,,,,,,,,,,,,,,,,,,,,,,,,,,,,,,,,,,,,,,,,,,,,,,,,,,,,,,,,,,,,,,,,,,,,,,,,,,,,,,,
,,614ee4370d85f20de1b9548f,2022-09-08_19h03.52.677,CGTgamblingSpanTasks,2022.2.1,Win32,60.0240096,,,,,,,1.943,,,,,,,,,,,,,,,2,v,2.057,0.089582697,0,2.943,1,,,,,,24.479109,0,0.089582697,,,,,,,,,,,,,0,1,1,89,1,0.900200232,0,,,,,,,,,,,,,,,,,,,,,,,,,,,,,,,,,,,,,,,,,,,,,,,,,,,,,,,,,,,,,,,,,,,,,,,,,,,,,,,,
,,614ee4370d85f20de1b9548f,2022-09-08_19h03.52.677,CGTgamblingSpanTasks,2022.2.1,Win32,60.0240096,,,,,,,2.142,,,,,,,,,,,,,,,1,n,1.858,2.99133314,0,3.142,1,,,,,,27.57491653,0,2.99133314,,,,,,,,,,,,,0,2,2,10,1,0.47625893,1,,,,,,,,,,,,,,,,,,,,,,,,,,,,,,,,,,,,,,,,,,,,,,,,,,,,,,,,,,,,,,,,,,,,,,,,,,,,,,,,
,,614ee4370d85f20de1b9548f,2022-09-08_19h03.52.677,CGTgamblingSpanTasks,2022.2.1,Win32,60.0240096,,,,,,,2.354,,,,,,,,,,,,,,,2,n,1.646,0,1,3.354,1,,,,,,17.85020524,0,2.058701084,,,,,,,,,,,,,0,3,3,25,1,0.459662216,1,,,,,,,,,,,,,,,,,,,,,,,,,,,,,,,,,,,,,,,,,,,,,,,,,,,,,,,,,,,,,,,,,,,,,,,,,,,,,,,,
,,614ee4370d85f20de1b9548f,2022-09-08_19h03.52.677,CGTgamblingSpanTasks,2022.2.1,Win32,60.0240096,,,,,,,1.293,,,,,,,,,,,,,,,2,n,2.707,4.622707531,1,2.293,1,,,,,,4.622707531,0,7.850775577,,,,,,,,,,,,,0,4,4,6,1,0.017737407,0,,,,,,,,,,,,,,,,,,,,,,,,,,,,,,,,,,,,,,,,,,,,,,,,,,,,,,,,,,,,,,,,,,,,,,,,,,,,,,,,
,,614ee4370d85f20de1b9548f,2022-09-08_19h03.52.677,CGTgamblingSpanTasks,2022.2.1,Win32,60.0240096,,,,,,,1.593,,,,,,,,,,,,,,,1,v,2.407,0,1,3.093,1.5,,,,,,25.65316415,0,0.079652925,,,,,,,,,,,,,0,5,5,109,1,0.90568168,0,,,,,,,,,,,,,,,,,,,,,,,,,,,,,,,,,,,,,,,,,,,,,,,,,,,,,,,,,,,,,,,,,,,,,,,,,,,,,,,,
,,614ee4370d85f20de1b9548f,2022-09-08_19h03.52.677,CGTgamblingSpanTasks,2022.2.1,Win32,60.0240096,,,,,,,2.557,,,,,,,,,,,,,,,1,v,1.443,0,1,4.057,1.5,,,,,,19.3050342,0,2.030232342,,,,,,,,,,,,,0,6,6,73,1,0.484573227,1,,,,,,,,,,,,,,,,,,,,,,,,,,,,,,,,,,,,,,,,,,,,,,,,,,,,,,,,,,,,,,,,,,,,,,,,,,,,,,,,
,,614ee4370d85f20de1b9548f,2022-09-08_19h03.52.677,CGTgamblingSpanTasks,2022.2.1,Win32,60.0240096,,,,,,,1.894,,,,,,,,,,,,,,,2,v,2.106,11.42134125,0,2.894,1,,,,,,12.9904115,0,11.42134125,,,,,,,,,,,,,0,7,7,118,1,0.037876033,0,,,,,,,,,,,,,,,,,,,,,,,,,,,,,,,,,,,,,,,,,,,,,,,,,,,,,,,,,,,,,,,,,,,,,,,,,,,,,,,,
,,614ee4370d85f20de1b9548f,2022-09-08_19h03.52.677,CGTgamblingSpanTasks,2022.2.1,Win32,60.0240096,,,,,,,2.59,,,,,,,,,,,,,,,2,v,1.41,2.810531415,0,3.59,1,,,,,,29.75778644,0,2.810531415,,,,,,,,,,,,,0,8,8,113,1,0.512824233,1,,,,,,,,,,,,,,,,,,,,,,,,,,,,,,,,,,,,,,,,,,,,,,,,,,,,,,,,,,,,,,,,,,,,,,,,,,,,,,,,
,,614ee4370d85f20de1b9548f,2022-09-08_19h03.52.677,CGTgamblingSpanTasks,2022.2.1,Win32,60.0240096,,,,,,,2.351,,,,,,,,,,,,,,,2,v,1.649,6.781500919,0,3.851,1.5,,,,,,8.363821911,0,6.781500919,,,,,,,,,,,,,0,9,9,61,1,0.044227959,0,,,,,,,,,,,,,,,,,,,,,,,,,,,,,,,,,,,,,,,,,,,,,,,,,,,,,,,,,,,,,,,,,,,,,,,,,,,,,,,,
,,614ee4370d85f20de1b9548f,2022-09-08_19h03.52.677,CGTgamblingSpanTasks,2022.2.1,Win32,60.0240096,,,,,,,2.34,,,,,,,,,,,,,,,2,v,1.66,8.830252162,0,3.84,1.5,,,,,,15.73000491,0,8.830252162,,,,,,,,,,,,,0,10,10,95,1,0.084193143,0,,,,,,,,,,,,,,,,,,,,,,,,,,,,,,,,,,,,,,,,,,,,,,,,,,,,,,,,,,,,,,,,,,,,,,,,,,,,,,,,
,,614ee4370d85f20de1b9548f,2022-09-08_19h03.52.677,CGTgamblingSpanTasks,2022.2.1,Win32,60.0240096,,,,,,,2.753,,,,,,,,,,,,,,,2,v,1.247,11.39288827,0,4.253,1.5,,,,,,20.97851654,0,11.39288827,,,,,,,,,,,,,0,11,11,2,1,0.088791079,0,,,,,,,,,,,,,,,,,,,,,,,,,,,,,,,,,,,,,,,,,,,,,,,,,,,,,,,,,,,,,,,,,,,,,,,,,,,,,,,,
,,614ee4370d85f20de1b9548f,2022-09-08_19h03.52.677,CGTgamblingSpanTasks,2022.2.1,Win32,60.0240096,,,,,,,2.573,,,,,,,,,,,,,,,2,v,1.427,9.936178001,0,4.073,1.5,,,,,,19.58698544,0,9.936178001,,,,,,,,,,,,,0,12,12,77,1,0.098812204,0,,,,,,,,,,,,,,,,,,,,,,,,,,,,,,,,,,,,,,,,,,,,,,,,,,,,,,,,,,,,,,,,,,,,,,,,,,,,,,,,
,,614ee4370d85f20de1b9548f,2022-09-08_19h03.52.677,CGTgamblingSpanTasks,2022.2.1,Win32,60.0240096,,,,,,,1.708,,,,,,,,,,,,,,,1,v,2.292,0,1,3.208,1.5,,,,,,2.042350179,0,7.646213173,,,,,,,,,,,,,0,13,13,53,1,0.009522273,0,,,,,,,,,,,,,,,,,,,,,,,,,,,,,,,,,,,,,,,,,,,,,,,,,,,,,,,,,,,,,,,,,,,,,,,,,,,,,,,,
,,614ee4370d85f20de1b9548f,2022-09-08_19h03.52.677,CGTgamblingSpanTasks,2022.2.1,Win32,60.0240096,,,,,,,2.213,,,,,,,,,,,,,,,2,v,1.787,2.893007023,0,3.713,1.5,,,,,,28.9323758,0,2.893007023,,,,,,,,,,,,,0,14,14,11,1,0.497943321,1,,,,,,,,,,,,,,,,,,,,,,,,,,,,,,,,,,,,,,,,,,,,,,,,,,,,,,,,,,,,,,,,,,,,,,,,,,,,,,,,
,,614ee4370d85f20de1b9548f,2022-09-08_19h03.52.677,CGTgamblingSpanTasks,2022.2.1,Win32,60.0240096,,,,,,,1.876,,,,,,,,,,,,,,,2,v,2.124,0.067969053,0,3.376,1.5,,,,,,21.00799273,0,0.067969053,,,,,,,,,,,,,0,15,15,92,1,0.904360262,0,,,,,,,,,,,,,,,,,,,,,,,,,,,,,,,,,,,,,,,,,,,,,,,,,,,,,,,,,,,,,,,,,,,,,,,,,,,,,,,,
,,614ee4370d85f20de1b9548f,2022-09-08_19h03.52.677,CGTgamblingSpanTasks,2022.2.1,Win32,60.0240096,,,,,,,2.607,,,,,,,,,,,,,,,2,v,1.393,2.543951743,0,4.107,1.5,,,,,,25.56803059,0,2.543951743,,,,,,,,,,,,,0,16,16,41,1,0.499247217,1,,,,,,,,,,,,,,,,,,,,,,,,,,,,,,,,,,,,,,,,,,,,,,,,,,,,,,,,,,,,,,,,,,,,,,,,,,,,,,,,
,,614ee4370d85f20de1b9548f,2022-09-08_19h03.52.677,CGTgamblingSpanTasks,2022.2.1,Win32,60.0240096,,,,,,,2.245,,,,,,,,,,,,,,,2,n,1.755,18.50662664,1,3.745,1.5,,,,,,18.50662664,0,0.052546026,,,,,,,,,,,,,0,17,17,112,1,0.908444837,0,,,,,,,,,,,,,,,,,,,,,,,,,,,,,,,,,,,,,,,,,,,,,,,,,,,,,,,,,,,,,,,,,,,,,,,,,,,,,,,,
,,614ee4370d85f20de1b9548f,2022-09-08_19h03.52.677,CGTgamblingSpanTasks,2022.2.1,Win32,60.0240096,,,,,,,1.674,,,,,,,,,,,,,,,1,n,2.326,2.055848574,0,2.674,1,,,,,,17.23907308,0,2.055848574,,,,,,,,,,,,,0,18,18,66,1,0.450504458,1,,,,,,,,,,,,,,,,,,,,,,,,,,,,,,,,,,,,,,,,,,,,,,,,,,,,,,,,,,,,,,,,,,,,,,,,,,,,,,,,
,,614ee4370d85f20de1b9548f,2022-09-08_19h03.52.677,CGTgamblingSpanTasks,2022.2.1,Win32,60.0240096,,,,,,,2.261,,,,,,,,,,,,,,,1,v,1.739,21.2188881,1,3.261,1,,,,,,21.2188881,0,2.067660742,,,,,,,,,,,,,0,19,19,107,1,0.50470775,1,,,,,,,,,,,,,,,,,,,,,,,,,,,,,,,,,,,,,,,,,,,,,,,,,,,,,,,,,,,,,,,,,,,,,,,,,,,,,,,,
,,614ee4370d85f20de1b9548f,2022-09-08_19h03.52.677,CGTgamblingSpanTasks,2022.2.1,Win32,60.0240096,,,,,,,1.564,,,,,,,,,,,,,,,2,v,2.436,1.870404296,0,3.064,1.5,,,,,,20.31034258,0,1.870404296,,,,,,,,,,,,,0,20,20,85,1,0.519325853,1,,,,,,,,,,,,,,,,,,,,,,,,,,,,,,,,,,,,,,,,,,,,,,,,,,,,,,,,,,,,,,,,,,,,,,,,,,,,,,,,
,,614ee4370d85f20de1b9548f,2022-09-08_19h03.52.677,CGTgamblingSpanTasks,2022.2.1,Win32,60.0240096,,,,,,,2.129,,,,,,,,,,,,,,,2,v,1.871,2.293289792,0,3.129,1,,,,,,22.86604061,0,2.293289792,,,,,,,,,,,,,0,21,21,51,1,0.49715382,1,,,,,,,,,,,,,,,,,,,,,,,,,,,,,,,,,,,,,,,,,,,,,,,,,,,,,,,,,,,,,,,,,,,,,,,,,,,,,,,,
,,614ee4370d85f20de1b9548f,2022-09-08_19h03.52.677,CGTgamblingSpanTasks,2022.2.1,Win32,60.0240096,,,,,,,2.384,,,,,,,,,,,,,,,1,v,1.616,0,1,3.384,1,,,,,,17.30137174,0,1.716380842,,,,,,,,,,,,,0,22,22,20,1,0.500020285,1,,,,,,,,,,,,,,,,,,,,,,,,,,,,,,,,,,,,,,,,,,,,,,,,,,,,,,,,,,,,,,,,,,,,,,,,,,,,,,,,
,,614ee4370d85f20de1b9548f,2022-09-08_19h03.52.677,CGTgamblingSpanTasks,2022.2.1,Win32,60.0240096,,,,,,,2.461,,,,,,,,,,,,,,,1,n,1.539,2.208275162,0,3.461,1,,,,,,21.03408097,0,2.208275162,,,,,,,,,,,,,0,23,23,0,1,0.485031246,1,,,,,,,,,,,,,,,,,,,,,,,,,,,,,,,,,,,,,,,,,,,,,,,,,,,,,,,,,,,,,,,,,,,,,,,,,,,,,,,,
,,614ee4370d85f20de1b9548f,2022-09-08_19h03.52.677,CGTgamblingSpanTasks,2022.2.1,Win32,60.0240096,,,,,,,2.46,,,,,,,,,,,,,,,1,v,1.54,25.76582409,1,3.46,1,,,,,,25.76582409,0,2.393193076,,,,,,,,,,,,,0,24,24,46,1,0.517129855,1,,,,,,,,,,,,,,,,,,,,,,,,,,,,,,,,,,,,,,,,,,,,,,,,,,,,,,,,,,,,,,,,,,,,,,,,,,,,,,,,
,,614ee4370d85f20de1b9548f,2022-09-08_19h03.52.677,CGTgamblingSpanTasks,2022.2.1,Win32,60.0240096,,,,,,,2.622,,,,,,,,,,,,,,,2,n,1.378,0,1,4.122,1.5,,,,,,23.59556381,0,2.464662219,,,,,,,,,,,,,0,25,25,22,1,0.486383205,1,,,,,,,,,,,,,,,,,,,,,,,,,,,,,,,,,,,,,,,,,,,,,,,,,,,,,,,,,,,,,,,,,,,,,,,,,,,,,,,,
,,614ee4370d85f20de1b9548f,2022-09-08_19h03.52.677,CGTgamblingSpanTasks,2022.2.1,Win32,60.0240096,,,,,,,3.041,,,,,,,,,,,,,,,2,v,0.959,0.093528069,0,4.541,1.5,,,,,,26.16821818,0,0.093528069,,,,,,,,,,,,,0,26,26,42,1,0.901022427,0,,,,,,,,,,,,,,,,,,,,,,,,,,,,,,,,,,,,,,,,,,,,,,,,,,,,,,,,,,,,,,,,,,,,,,,,,,,,,,,,
,,614ee4370d85f20de1b9548f,2022-09-08_19h03.52.677,CGTgamblingSpanTasks,2022.2.1,Win32,60.0240096,,,,,,,2.839,,,,,,,,,,,,,,,2,n,1.161,0,1,4.339,1.5,,,,,,27.12325385,0,0.080932047,,,,,,,,,,,,,0,27,27,14,1,0.906929184,0,,,,,,,,,,,,,,,,,,,,,,,,,,,,,,,,,,,,,,,,,,,,,,,,,,,,,,,,,,,,,,,,,,,,,,,,,,,,,,,,
,,614ee4370d85f20de1b9548f,2022-09-08_19h03.52.677,CGTgamblingSpanTasks,2022.2.1,Win32,60.0240096,,,,,,,1.776,,,,,,,,,,,,,,,1,n,2.224,3.247012935,0,2.776,1,,,,,,29.30724159,0,3.247012935,,,,,,,,,,,,,0,28,28,71,1,0.470571125,1,,,,,,,,,,,,,,,,,,,,,,,,,,,,,,,,,,,,,,,,,,,,,,,,,,,,,,,,,,,,,,,,,,,,,,,,,,,,,,,,
,,614ee4370d85f20de1b9548f,2022-09-08_19h03.52.677,CGTgamblingSpanTasks,2022.2.1,Win32,60.0240096,,,,,,,2.51,,,,,,,,,,,,,,,1,n,1.49,2.768313633,0,4.01,1.5,,,,,,28.33977875,0,2.768313633,,,,,,,,,,,,,0,29,29,116,1,0.50406901,1,,,,,,,,,,,,,,,,,,,,,,,,,,,,,,,,,,,,,,,,,,,,,,,,,,,,,,,,,,,,,,,,,,,,,,,,,,,,,,,,
,,614ee4370d85f20de1b9548f,2022-09-08_19h03.52.677,CGTgamblingSpanTasks,2022.2.1,Win32,60.0240096,,,,,,,2.117,,,,,,,,,,,,,,,2,v,1.883,1.025847652,0,3.617,1.5,,,,,,8.670591867,0,1.025847652,,,,,,,,,,,,,0,30,30,18,1,0.452680459,1,,,,,,,,,,,,,,,,,,,,,,,,,,,,,,,,,,,,,,,,,,,,,,,,,,,,,,,,,,,,,,,,,,,,,,,,,,,,,,,,
,,614ee4370d85f20de1b9548f,2022-09-08_19h03.52.677,CGTgamblingSpanTasks,2022.2.1,Win32,60.0240096,,,,,,,1.809,,,,,,,,,,,,,,,1,v,2.191,6.325091157,1,2.809,1,,,,,,6.325091157,0,6.833409611,,,,,,,,,,,,,0,31,31,58,1,0.027113638,0,,,,,,,,,,,,,,,,,,,,,,,,,,,,,,,,,,,,,,,,,,,,,,,,,,,,,,,,,,,,,,,,,,,,,,,,,,,,,,,,
,,614ee4370d85f20de1b9548f,2022-09-08_19h03.52.677,CGTgamblingSpanTasks,2022.2.1,Win32,60.0240096,,,,,,,1.779,,,,,,,,,,,,,,,2,n,2.221,4.941039335,1,2.779,1,,,,,,4.941039335,0,5.683635938,,,,,,,,,,,,,0,32,32,9,1,0.025481984,0,,,,,,,,,,,,,,,,,,,,,,,,,,,,,,,,,,,,,,,,,,,,,,,,,,,,,,,,,,,,,,,,,,,,,,,,,,,,,,,,
,,614ee4370d85f20de1b9548f,2022-09-08_19h03.52.677,CGTgamblingSpanTasks,2022.2.1,Win32,60.0240096,,,,,,,2.351,,,,,,,,,,,,,,,2,v,1.649,0.051324376,0,3.851,1.5,,,,,,26.4985979,0,0.051324376,,,,,,,,,,,,,0,33,33,106,1,0.918747215,0,,,,,,,,,,,,,,,,,,,,,,,,,,,,,,,,,,,,,,,,,,,,,,,,,,,,,,,,,,,,,,,,,,,,,,,,,,,,,,,,
,,614ee4370d85f20de1b9548f,2022-09-08_19h03.52.677,CGTgamblingSpanTasks,2022.2.1,Win32,60.0240096,,,,,,,1.177,,,,,,,,,,,,,,,1,n,2.823,2.387726776,0,2.677,1.5,,,,,,23.0613391,0,2.387726776,,,,,,,,,,,,,0,34,34,69,1,0.488727763,1,,,,,,,,,,,,,,,,,,,,,,,,,,,,,,,,,,,,,,,,,,,,,,,,,,,,,,,,,,,,,,,,,,,,,,,,,,,,,,,,
,,614ee4370d85f20de1b9548f,2022-09-08_19h03.52.677,CGTgamblingSpanTasks,2022.2.1,Win32,60.0240096,,,,,,,2.426,,,,,,,,,,,,,,,2,n,1.574,0,1,3.426,1,,,,,,26.36733703,0,2.201057101,,,,,,,,,,,,,0,35,35,90,1,0.544064207,1,,,,,,,,,,,,,,,,,,,,,,,,,,,,,,,,,,,,,,,,,,,,,,,,,,,,,,,,,,,,,,,,,,,,,,,,,,,,,,,,
,,614ee4370d85f20de1b9548f,2022-09-08_19h03.52.677,CGTgamblingSpanTasks,2022.2.1,Win32,60.0240096,,,,,,,1.412,,,,,,,,,,,,,,,2,n,2.588,29.76099779,1,2.412,1,,,,,,29.76099779,0,0.095763086,,,,,,,,,,,,,0,36,36,35,1,0.904537896,0,,,,,,,,,,,,,,,,,,,,,,,,,,,,,,,,,,,,,,,,,,,,,,,,,,,,,,,,,,,,,,,,,,,,,,,,,,,,,,,,
,,614ee4370d85f20de1b9548f,2022-09-08_19h03.52.677,CGTgamblingSpanTasks,2022.2.1,Win32,60.0240096,,,,,,,2.37,,,,,,,,,,,,,,,2,n,1.63,23.24777057,1,3.87,1.5,,,,,,23.24777057,0,2.003482335,,,,,,,,,,,,,0,37,37,59,1,0.536135174,1,,,,,,,,,,,,,,,,,,,,,,,,,,,,,,,,,,,,,,,,,,,,,,,,,,,,,,,,,,,,,,,,,,,,,,,,,,,,,,,,
,,614ee4370d85f20de1b9548f,2022-09-08_19h03.52.677,CGTgamblingSpanTasks,2022.2.1,Win32,60.0240096,,,,,,,2.06,,,,,,,,,,,,,,,2,n,1.94,17.5608285,1,3.56,1.5,,,,,,17.5608285,0,1.825111303,,,,,,,,,,,,,0,38,38,104,1,0.487721116,1,,,,,,,,,,,,,,,,,,,,,,,,,,,,,,,,,,,,,,,,,,,,,,,,,,,,,,,,,,,,,,,,,,,,,,,,,,,,,,,,
,,614ee4370d85f20de1b9548f,2022-09-08_19h03.52.677,CGTgamblingSpanTasks,2022.2.1,Win32,60.0240096,,,,,,,2.311,,,,,,,,,,,,,,,1,v,1.689,0,1,3.311,1,,,,,,24.8002852,0,0.071848086,,,,,,,,,,,,,0,39,39,16,1,0.90783559,0,,,,,,,,,,,,,,,,,,,,,,,,,,,,,,,,,,,,,,,,,,,,,,,,,,,,,,,,,,,,,,,,,,,,,,,,,,,,,,,,
,,614ee4370d85f20de1b9548f,2022-09-08_19h03.52.677,CGTgamblingSpanTasks,2022.2.1,Win32,60.0240096,,,,,,,1.843,,,,,,,,,,,,,,,1,n,2.157,10.68505773,0,3.343,1.5,,,,,,17.64114152,0,10.68505773,,,,,,,,,,,,,0,40,40,98,1,0.074299362,0,,,,,,,,,,,,,,,,,,,,,,,,,,,,,,,,,,,,,,,,,,,,,,,,,,,,,,,,,,,,,,,,,,,,,,,,,,,,,,,,
,,614ee4370d85f20de1b9548f,2022-09-08_19h03.52.677,CGTgamblingSpanTasks,2022.2.1,Win32,60.0240096,,,,,,,1.629,,,,,,,,,,,,,,,2,v,2.371,2.502728921,0,2.629,1,,,,,,21.7711579,0,2.502728921,,,,,,,,,,,,,0,41,41,101,1,0.460552621,1,,,,,,,,,,,,,,,,,,,,,,,,,,,,,,,,,,,,,,,,,,,,,,,,,,,,,,,,,,,,,,,,,,,,,,,,,,,,,,,,
,,614ee4370d85f20de1b9548f,2022-09-08_19h03.52.677,CGTgamblingSpanTasks,2022.2.1,Win32,60.0240096,,,,,,,0,,,,,,,,,,,,,,,1,,,,,1.5,1.5,,,,,,20.5726842,0,0.073558523,,,,,,,,,,,,,0,42,42,26,1,0.901008565,0,,,,,,,,,,,,,,,,,,,,,,,,,,,,,,,,,,,,,,,,,,,,,,,,,,,,,,,,,,,,,,,,,,,,,,,,,,,,,,,,
,,614ee4370d85f20de1b9548f,2022-09-08_19h03.52.677,CGTgamblingSpanTasks,2022.2.1,Win32,60.0240096,,,,,,,2.69,,,,,,,,,,,,,,,1,v,1.31,0,1,4.19,1.5,,,,,,3.395192929,0,4.251676631,,,,,,,,,,,,,0,43,43,7,1,0.023467153,0,,,,,,,,,,,,,,,,,,,,,,,,,,,,,,,,,,,,,,,,,,,,,,,,,,,,,,,,,,,,,,,,,,,,,,,,,,,,,,,,
,,614ee4370d85f20de1b9548f,2022-09-08_19h03.52.677,CGTgamblingSpanTasks,2022.2.1,Win32,60.0240096,,,,,,,2.891,,,,,,,,,,,,,,,1,n,1.109,8.653432553,0,3.891,1,,,,,,15.13999312,0,8.653432553,,,,,,,,,,,,,0,44,44,54,1,0.081767484,0,,,,,,,,,,,,,,,,,,,,,,,,,,,,,,,,,,,,,,,,,,,,,,,,,,,,,,,,,,,,,,,,,,,,,,,,,,,,,,,,
,,614ee4370d85f20de1b9548f,2022-09-08_19h03.52.677,CGTgamblingSpanTasks,2022.2.1,Win32,60.0240096,,,,,,,2.493,,,,,,,,,,,,,,,2,v,1.507,0.097022401,0,3.493,1,,,,,,27.53810185,0,0.097022401,,,,,,,,,,,,,0,45,45,50,1,0.901515865,0,,,,,,,,,,,,,,,,,,,,,,,,,,,,,,,,,,,,,,,,,,,,,,,,,,,,,,,,,,,,,,,,,,,,,,,,,,,,,,,,
,,614ee4370d85f20de1b9548f,2022-09-08_19h03.52.677,CGTgamblingSpanTasks,2022.2.1,Win32,60.0240096,,,,,,,2.771,,,,,,,,,,,,,,,2,v,1.229,11.93550497,0,4.271,1.5,,,,,,14.20587264,0,11.93550497,,,,,,,,,,,,,0,46,46,21,1,0.041340301,0,,,,,,,,,,,,,,,,,,,,,,,,,,,,,,,,,,,,,,,,,,,,,,,,,,,,,,,,,,,,,,,,,,,,,,,,,,,,,,,,
,,614ee4370d85f20de1b9548f,2022-09-08_19h03.52.677,CGTgamblingSpanTasks,2022.2.1,Win32,60.0240096,,,,,,,2.395,,,,,,,,,,,,,,,2,n,1.605,24.57684014,1,3.895,1.5,,,,,,24.57684014,0,0.061756244,,,,,,,,,,,,,0,47,47,68,1,0.911988903,0,,,,,,,,,,,,,,,,,,,,,,,,,,,,,,,,,,,,,,,,,,,,,,,,,,,,,,,,,,,,,,,,,,,,,,,,,,,,,,,,
,,614ee4370d85f20de1b9548f,2022-09-08_19h03.52.677,CGTgamblingSpanTasks,2022.2.1,Win32,60.0240096,,,,,,,2.308,,,,,,,,,,,,,,,2,v,1.692,1.591282699,0,3.308,1,,,,,,13.96521039,0,1.591282699,,,,,,,,,,,,,0,48,48,49,1,0.462956344,1,,,,,,,,,,,,,,,,,,,,,,,,,,,,,,,,,,,,,,,,,,,,,,,,,,,,,,,,,,,,,,,,,,,,,,,,,,,,,,,,
,,614ee4370d85f20de1b9548f,2022-09-08_19h03.52.677,CGTgamblingSpanTasks,2022.2.1,Win32,60.0240096,,,,,,,2.595,,,,,,,,,,,,,,,1,n,1.405,0.941456753,0,3.595,1,,,,,,11.16819157,0,0.941456753,,,,,,,,,,,,,0,49,49,45,1,0.54163803,1,,,,,,,,,,,,,,,,,,,,,,,,,,,,,,,,,,,,,,,,,,,,,,,,,,,,,,,,,,,,,,,,,,,,,,,,,,,,,,,,
,,614ee4370d85f20de1b9548f,2022-09-08_19h03.52.677,CGTgamblingSpanTasks,2022.2.1,Win32,60.0240096,,,,,,,2.858,,,,,,,,,,,,,,,1,v,1.142,0,1,4.358,1.5,,,,,,28.18900855,0,0.05384276,,,,,,,,,,,,,0,50,50,55,1,0.919081308,0,,,,,,,,,,,,,,,,,,,,,,,,,,,,,,,,,,,,,,,,,,,,,,,,,,,,,,,,,,,,,,,,,,,,,,,,,,,,,,,,
,,614ee4370d85f20de1b9548f,2022-09-08_19h03.52.677,CGTgamblingSpanTasks,2022.2.1,Win32,60.0240096,,,,,,,2.206,,,,,,,,,,,,,,,1,n,1.794,0.059789256,0,3.706,1.5,,,,,,21.46599803,0,0.059789256,,,,,,,,,,,,,0,51,51,8,1,0.909019081,0,,,,,,,,,,,,,,,,,,,,,,,,,,,,,,,,,,,,,,,,,,,,,,,,,,,,,,,,,,,,,,,,,,,,,,,,,,,,,,,,
,,614ee4370d85f20de1b9548f,2022-09-08_19h03.52.677,CGTgamblingSpanTasks,2022.2.1,Win32,60.0240096,,,,,,,2.527,,,,,,,,,,,,,,,2,v,1.473,0.083968035,0,4.027,1.5,,,,,,27.76752685,0,0.083968035,,,,,,,,,,,,,0,52,52,13,1,0.906513967,0,,,,,,,,,,,,,,,,,,,,,,,,,,,,,,,,,,,,,,,,,,,,,,,,,,,,,,,,,,,,,,,,,,,,,,,,,,,,,,,,
,,614ee4370d85f20de1b9548f,2022-09-08_19h03.52.677,CGTgamblingSpanTasks,2022.2.1,Win32,60.0240096,,,,,,,2.812,,,,,,,,,,,,,,,1,v,1.188,0,1,3.812,1,,,,,,25.26994993,0,2.78925142,,,,,,,,,,,,,0,53,53,108,1,0.471582922,1,,,,,,,,,,,,,,,,,,,,,,,,,,,,,,,,,,,,,,,,,,,,,,,,,,,,,,,,,,,,,,,,,,,,,,,,,,,,,,,,
,,614ee4370d85f20de1b9548f,2022-09-08_19h03.52.677,CGTgamblingSpanTasks,2022.2.1,Win32,60.0240096,,,,,,,1.86,,,,,,,,,,,,,,,1,v,2.14,0,1,2.86,1,,,,,,28.14876717,0,3.117906378,,,,,,,,,,,,,0,54,54,76,1,0.470636736,1,,,,,,,,,,,,,,,,,,,,,,,,,,,,,,,,,,,,,,,,,,,,,,,,,,,,,,,,,,,,,,,,,,,,,,,,,,,,,,,,
,,614ee4370d85f20de1b9548f,2022-09-08_19h03.52.677,CGTgamblingSpanTasks,2022.2.1,Win32,60.0240096,,,,,,,1.721,,,,,,,,,,,,,,,2,v,2.279,11.41737518,0,2.721,1,,,,,,18.11029021,0,11.41737518,,,,,,,,,,,,,0,55,55,48,1,0.069445859,0,,,,,,,,,,,,,,,,,,,,,,,,,,,,,,,,,,,,,,,,,,,,,,,,,,,,,,,,,,,,,,,,,,,,,,,,,,,,,,,,
,,614ee4370d85f20de1b9548f,2022-09-08_19h03.52.677,CGTgamblingSpanTasks,2022.2.1,Win32,60.0240096,,,,,,,2.723,,,,,,,,,,,,,,,2,n,1.277,27.7711693,1,3.723,1,,,,,,27.7711693,0,2.320849632,,,,,,,,,,,,,0,56,56,94,1,0.543786368,1,,,,,,,,,,,,,,,,,,,,,,,,,,,,,,,,,,,,,,,,,,,,,,,,,,,,,,,,,,,,,,,,,,,,,,,,,,,,,,,,
,,614ee4370d85f20de1b9548f,2022-09-08_19h03.52.677,CGTgamblingSpanTasks,2022.2.1,Win32,60.0240096,,,,,,,2.45,,,,,,,,,,,,,,,2,v,1.55,0.951019374,0,3.95,1.5,,,,,,8.217594828,0,0.951019374,,,,,,,,,,,,,0,57,57,87,1,0.458722936,1,,,,,,,,,,,,,,,,,,,,,,,,,,,,,,,,,,,,,,,,,,,,,,,,,,,,,,,,,,,,,,,,,,,,,,,,,,,,,,,,
,,614ee4370d85f20de1b9548f,2022-09-08_19h03.52.677,CGTgamblingSpanTasks,2022.2.1,Win32,60.0240096,,,,,,,2.442,,,,,,,,,,,,,,,2,n,1.558,21.17800335,1,3.942,1.5,,,,,,21.17800335,0,0.059830985,,,,,,,,,,,,,0,58,58,67,1,0.908594974,0,,,,,,,,,,,,,,,,,,,,,,,,,,,,,,,,,,,,,,,,,,,,,,,,,,,,,,,,,,,,,,,,,,,,,,,,,,,,,,,,
,,614ee4370d85f20de1b9548f,2022-09-08_19h03.52.677,CGTgamblingSpanTasks,2022.2.1,Win32,60.0240096,,,,,,,2.86,,,,,,,,,,,,,,,2,n,1.14,27.77179191,1,4.36,1.5,,,,,,27.77179191,0,0.074524436,,,,,,,,,,,,,0,59,59,99,1,0.910114387,0,,,,,,,,,,,,,,,,,,,,,,,,,,,,,,,,,,,,,,,,,,,,,,,,,,,,,,,,,,,,,,,,,,,,,,,,,,,,,,,,
,,614ee4370d85f20de1b9548f,2022-09-08_19h03.52.677,CGTgamblingSpanTasks,2022.2.1,Win32,60.0240096,,,,,,,2.505,,,,,,,,,,,,,,,1,v,1.495,0.192759042,1,3.505,1,,,,,,0.192759042,0,4.462262453,,,,,,,,,,,,,0,60,60,52,1,0.003553223,0,,,,,,,,,,,,,,,,,,,,,,,,,,,,,,,,,,,,,,,,,,,,,,,,,,,,,,,,,,,,,,,,,,,,,,,,,,,,,,,,
,,614ee4370d85f20de1b9548f,2022-09-08_19h03.52.677,CGTgamblingSpanTasks,2022.2.1,Win32,60.0240096,,,,,,,2.299,,,,,,,,,,,,,,,1,v,1.701,27.94544945,1,3.299,1,,,,,,27.94544945,0,2.32030209,,,,,,,,,,,,,0,61,61,115,1,0.545390564,1,,,,,,,,,,,,,,,,,,,,,,,,,,,,,,,,,,,,,,,,,,,,,,,,,,,,,,,,,,,,,,,,,,,,,,,,,,,,,,,,
,,614ee4370d85f20de1b9548f,2022-09-08_19h03.52.677,CGTgamblingSpanTasks,2022.2.1,Win32,60.0240096,,,,,,,2.894,,,,,,,,,,,,,,,2,v,1.106,2.860319095,0,4.394,1.5,,,,,,27.37527992,0,2.860319095,,,,,,,,,,,,,0,62,62,39,1,0.486304156,1,,,,,,,,,,,,,,,,,,,,,,,,,,,,,,,,,,,,,,,,,,,,,,,,,,,,,,,,,,,,,,,,,,,,,,,,,,,,,,,,
,,614ee4370d85f20de1b9548f,2022-09-08_19h03.52.677,CGTgamblingSpanTasks,2022.2.1,Win32,60.0240096,,,,,,,2.861,,,,,,,,,,,,,,,1,v,1.139,25.0707644,1,3.861,1,,,,,,25.0707644,0,0.067651625,,,,,,,,,,,,,0,63,63,70,1,0.909952349,0,,,,,,,,,,,,,,,,,,,,,,,,,,,,,,,,,,,,,,,,,,,,,,,,,,,,,,,,,,,,,,,,,,,,,,,,,,,,,,,,
,,614ee4370d85f20de1b9548f,2022-09-08_19h03.52.677,CGTgamblingSpanTasks,2022.2.1,Win32,60.0240096,,,,,,,2.805,,,,,,,,,,,,,,,1,n,1.195,2.771762788,0,4.305,1.5,,,,,,27.88092897,0,2.771762788,,,,,,,,,,,,,0,64,64,117,1,0.499466648,1,,,,,,,,,,,,,,,,,,,,,,,,,,,,,,,,,,,,,,,,,,,,,,,,,,,,,,,,,,,,,,,,,,,,,,,,,,,,,,,,
,,614ee4370d85f20de1b9548f,2022-09-08_19h03.52.677,CGTgamblingSpanTasks,2022.2.1,Win32,60.0240096,,,,,,,2.293,,,,,,,,,,,,,,,2,v,1.707,1.207538756,0,3.793,1.5,,,,,,11.08143071,0,1.207538756,,,,,,,,,,,,,0,65,65,84,1,0.475047453,1,,,,,,,,,,,,,,,,,,,,,,,,,,,,,,,,,,,,,,,,,,,,,,,,,,,,,,,,,,,,,,,,,,,,,,,,,,,,,,,,
,,614ee4370d85f20de1b9548f,2022-09-08_19h03.52.677,CGTgamblingSpanTasks,2022.2.1,Win32,60.0240096,,,,,,,1.342,,,,,,,,,,,,,,,1,v,2.658,28.13634754,1,2.842,1.5,,,,,,28.13634754,0,2.532806323,,,,,,,,,,,,,0,66,66,28,1,0.525136524,1,,,,,,,,,,,,,,,,,,,,,,,,,,,,,,,,,,,,,,,,,,,,,,,,,,,,,,,,,,,,,,,,,,,,,,,,,,,,,,,,
,,614ee4370d85f20de1b9548f,2022-09-08_19h03.52.677,CGTgamblingSpanTasks,2022.2.1,Win32,60.0240096,,,,,,,2.011,,,,,,,,,,,,,,,1,v,1.989,0,1,3.011,1,,,,,,17.92584289,0,1.878232496,,,,,,,,,,,,,0,67,67,5,1,0.485559263,1,,,,,,,,,,,,,,,,,,,,,,,,,,,,,,,,,,,,,,,,,,,,,,,,,,,,,,,,,,,,,,,,,,,,,,,,,,,,,,,,
,,614ee4370d85f20de1b9548f,2022-09-08_19h03.52.677,CGTgamblingSpanTasks,2022.2.1,Win32,60.0240096,,,,,,,1.724,,,,,,,,,,,,,,,1,v,2.276,3.471484939,1,3.224,1.5,,,,,,3.471484939,0,3.877530383,,,,,,,,,,,,,0,68,68,40,1,0.02623078,0,,,,,,,,,,,,,,,,,,,,,,,,,,,,,,,,,,,,,,,,,,,,,,,,,,,,,,,,,,,,,,,,,,,,,,,,,,,,,,,,
,,614ee4370d85f20de1b9548f,2022-09-08_19h03.52.677,CGTgamblingSpanTasks,2022.2.1,Win32,60.0240096,,,,,,,2.576,,,,,,,,,,,,,,,1,v,1.424,0,1,3.576,1,,,,,,22.87092517,0,0.059276504,,,,,,,,,,,,,0,69,69,27,1,0.911114935,0,,,,,,,,,,,,,,,,,,,,,,,,,,,,,,,,,,,,,,,,,,,,,,,,,,,,,,,,,,,,,,,,,,,,,,,,,,,,,,,,
,,614ee4370d85f20de1b9548f,2022-09-08_19h03.52.677,CGTgamblingSpanTasks,2022.2.1,Win32,60.0240096,,,,,,,3.361,,,,,,,,,,,,,,,1,v,0.639,14.3363647,1,4.361,1,,,,,,14.3363647,0,1.396635362,,,,,,,,,,,,,0,70,70,78,1,0.504775474,1,,,,,,,,,,,,,,,,,,,,,,,,,,,,,,,,,,,,,,,,,,,,,,,,,,,,,,,,,,,,,,,,,,,,,,,,,,,,,,,,
,,614ee4370d85f20de1b9548f,2022-09-08_19h03.52.677,CGTgamblingSpanTasks,2022.2.1,Win32,60.0240096,,,,,,,1.942,,,,,,,,,,,,,,,1,v,2.058,10.05300841,1,2.942,1,,,,,,10.05300841,0,8.512335864,,,,,,,,,,,,,0,71,71,74,1,0.040729225,0,,,,,,,,,,,,,,,,,,,,,,,,,,,,,,,,,,,,,,,,,,,,,,,,,,,,,,,,,,,,,,,,,,,,,,,,,,,,,,,,
,,614ee4370d85f20de1b9548f,2022-09-08_19h03.52.677,CGTgamblingSpanTasks,2022.2.1,Win32,60.0240096,,,,,,,2.793,,,,,,,,,,,,,,,1,v,1.207,24.35708027,1,3.793,1,,,,,,24.35708027,0,2.738695417,,,,,,,,,,,,,0,72,72,114,1,0.466573634,1,,,,,,,,,,,,,,,,,,,,,,,,,,,,,,,,,,,,,,,,,,,,,,,,,,,,,,,,,,,,,,,,,,,,,,,,,,,,,,,,
,,614ee4370d85f20de1b9548f,2022-09-08_19h03.52.677,CGTgamblingSpanTasks,2022.2.1,Win32,60.0240096,,,,,,,2.543,,,,,,,,,,,,,,,1,n,1.457,0.081942421,0,4.043,1.5,,,,,,26.11188619,0,0.081942421,,,,,,,,,,,,,0,73,73,105,1,0.905343856,0,,,,,,,,,,,,,,,,,,,,,,,,,,,,,,,,,,,,,,,,,,,,,,,,,,,,,,,,,,,,,,,,,,,,,,,,,,,,,,,,
,,614ee4370d85f20de1b9548f,2022-09-08_19h03.52.677,CGTgamblingSpanTasks,2022.2.1,Win32,60.0240096,,,,,,,0.676,,,,,,,,,,,,,,,2,n,3.324,0,1,1.676,1,,,,,,21.39646914,0,0.072474078,,,,,,,,,,,,,0,74,74,3,1,0.902848133,0,,,,,,,,,,,,,,,,,,,,,,,,,,,,,,,,,,,,,,,,,,,,,,,,,,,,,,,,,,,,,,,,,,,,,,,,,,,,,,,,
,,614ee4370d85f20de1b9548f,2022-09-08_19h03.52.677,CGTgamblingSpanTasks,2022.2.1,Win32,60.0240096,,,,,,,2.31,,,,,,,,,,,,,,,1,n,1.69,10.41201161,0,3.81,1.5,,,,,,6.307062696,0,10.41201161,,,,,,,,,,,,,0,75,75,23,1,0.018187109,0,,,,,,,,,,,,,,,,,,,,,,,,,,,,,,,,,,,,,,,,,,,,,,,,,,,,,,,,,,,,,,,,,,,,,,,,,,,,,,,,
,,614ee4370d85f20de1b9548f,2022-09-08_19h03.52.677,CGTgamblingSpanTasks,2022.2.1,Win32,60.0240096,,,,,,,2.651,,,,,,,,,,,,,,,2,n,1.349,0,1,4.151,1.5,,,,,,13.84410806,0,1.535873964,,,,,,,,,,,,,0,76,76,88,1,0.470209002,1,,,,,,,,,,,,,,,,,,,,,,,,,,,,,,,,,,,,,,,,,,,,,,,,,,,,,,,,,,,,,,,,,,,,,,,,,,,,,,,,
,,614ee4370d85f20de1b9548f,2022-09-08_19h03.52.677,CGTgamblingSpanTasks,2022.2.1,Win32,60.0240096,,,,,,,1.751,,,,,,,,,,,,,,,2,n,2.249,15.43649625,1,3.251,1.5,,,,,,15.43649625,0,1.65459324,,,,,,,,,,,,,0,77,77,33,1,0.479480163,1,,,,,,,,,,,,,,,,,,,,,,,,,,,,,,,,,,,,,,,,,,,,,,,,,,,,,,,,,,,,,,,,,,,,,,,,,,,,,,,,
,,614ee4370d85f20de1b9548f,2022-09-08_19h03.52.677,CGTgamblingSpanTasks,2022.2.1,Win32,60.0240096,,,,,,,1.69,,,,,,,,,,,,,,,2,n,2.31,4.698775357,1,3.19,1.5,,,,,,4.698775357,0,4.904872644,,,,,,,,,,,,,0,78,78,75,1,0.028064484,0,,,,,,,,,,,,,,,,,,,,,,,,,,,,,,,,,,,,,,,,,,,,,,,,,,,,,,,,,,,,,,,,,,,,,,,,,,,,,,,,
,,614ee4370d85f20de1b9548f,2022-09-08_19h03.52.677,CGTgamblingSpanTasks,2022.2.1,Win32,60.0240096,,,,,,,2.458,,,,,,,,,,,,,,,1,v,1.542,22.25959835,1,3.958,1.5,,,,,,22.25959835,0,0.065383587,,,,,,,,,,,,,0,79,79,97,1,0.907413875,0,,,,,,,,,,,,,,,,,,,,,,,,,,,,,,,,,,,,,,,,,,,,,,,,,,,,,,,,,,,,,,,,,,,,,,,,,,,,,,,,
,,614ee4370d85f20de1b9548f,2022-09-08_19h03.52.677,CGTgamblingSpanTasks,2022.2.1,Win32,60.0240096,,,,,,,2.726,,,,,,,,,,,,,,,1,v,1.274,24.66627941,1,3.726,1,,,,,,24.66627941,0,2.765426402,,,,,,,,,,,,,0,80,80,24,1,0.467360588,1,,,,,,,,,,,,,,,,,,,,,,,,,,,,,,,,,,,,,,,,,,,,,,,,,,,,,,,,,,,,,,,,,,,,,,,,,,,,,,,,
,,614ee4370d85f20de1b9548f,2022-09-08_19h03.52.677,CGTgamblingSpanTasks,2022.2.1,Win32,60.0240096,,,,,,,2.903,,,,,,,,,,,,,,,2,v,1.097,1.317368801,0,4.403,1.5,,,,,,13.4287264,0,1.317368801,,,,,,,,,,,,,0,81,81,100,1,0.502953125,1,,,,,,,,,,,,,,,,,,,,,,,,,,,,,,,,,,,,,,,,,,,,,,,,,,,,,,,,,,,,,,,,,,,,,,,,,,,,,,,,
,,614ee4370d85f20de1b9548f,2022-09-08_19h03.52.677,CGTgamblingSpanTasks,2022.2.1,Win32,60.0240096,,,,,,,2.978,,,,,,,,,,,,,,,1,v,1.022,7.066129113,1,3.978,1,,,,,,7.066129113,0,0.585581699,,,,,,,,,,,,,0,82,82,19,1,0.545860632,1,,,,,,,,,,,,,,,,,,,,,,,,,,,,,,,,,,,,,,,,,,,,,,,,,,,,,,,,,,,,,,,,,,,,,,,,,,,,,,,,
,,614ee4370d85f20de1b9548f,2022-09-08_19h03.52.677,CGTgamblingSpanTasks,2022.2.1,Win32,60.0240096,,,,,,,3.077,,,,,,,,,,,,,,,1,v,0.923,0,1,4.077,1,,,,,,17.4320197,0,1.448620949,,,,,,,,,,,,,0,83,83,30,1,0.545178213,1,,,,,,,,,,,,,,,,,,,,,,,,,,,,,,,,,,,,,,,,,,,,,,,,,,,,,,,,,,,,,,,,,,,,,,,,,,,,,,,,
,,614ee4370d85f20de1b9548f,2022-09-08_19h03.52.677,CGTgamblingSpanTasks,2022.2.1,Win32,60.0240096,,,,,,,2.19,,,,,,,,,,,,,,,1,v,1.81,8.17598802,1,3.19,1,,,,,,8.17598802,0,11.19311486,,,,,,,,,,,,,0,84,84,110,1,0.021568003,0,,,,,,,,,,,,,,,,,,,,,,,,,,,,,,,,,,,,,,,,,,,,,,,,,,,,,,,,,,,,,,,,,,,,,,,,,,,,,,,,
,,614ee4370d85f20de1b9548f,2022-09-08_19h03.52.677,CGTgamblingSpanTasks,2022.2.1,Win32,60.0240096,,,,,,,2.027,,,,,,,,,,,,,,,2,v,1.973,2.701896413,0,3.527,1.5,,,,,,28.94627214,0,2.701896413,,,,,,,,,,,,,0,85,85,111,1,0.515860759,1,,,,,,,,,,,,,,,,,,,,,,,,,,,,,,,,,,,,,,,,,,,,,,,,,,,,,,,,,,,,,,,,,,,,,,,,,,,,,,,,
,,614ee4370d85f20de1b9548f,2022-09-08_19h03.52.677,CGTgamblingSpanTasks,2022.2.1,Win32,60.0240096,,,,,,,3.06,,,,,,,,,,,,,,,2,n,0.94,18.16238569,1,4.06,1,,,,,,18.16238569,0,1.540604093,,,,,,,,,,,,,0,86,86,34,1,0.540092491,1,,,,,,,,,,,,,,,,,,,,,,,,,,,,,,,,,,,,,,,,,,,,,,,,,,,,,,,,,,,,,,,,,,,,,,,,,,,,,,,,
,,614ee4370d85f20de1b9548f,2022-09-08_19h03.52.677,CGTgamblingSpanTasks,2022.2.1,Win32,60.0240096,,,,,,,2.664,,,,,,,,,,,,,,,1,n,1.336,1.966229494,0,4.164,1.5,,,,,,19.36415485,0,1.966229494,,,,,,,,,,,,,0,87,87,96,1,0.493893111,1,,,,,,,,,,,,,,,,,,,,,,,,,,,,,,,,,,,,,,,,,,,,,,,,,,,,,,,,,,,,,,,,,,,,,,,,,,,,,,,,
,,614ee4370d85f20de1b9548f,2022-09-08_19h03.52.677,CGTgamblingSpanTasks,2022.2.1,Win32,60.0240096,,,,,,,2.711,,,,,,,,,,,,,,,2,n,1.289,23.4214135,1,3.711,1,,,,,,23.4214135,0,2.485985001,,,,,,,,,,,,,0,88,88,81,1,0.482105905,1,,,,,,,,,,,,,,,,,,,,,,,,,,,,,,,,,,,,,,,,,,,,,,,,,,,,,,,,,,,,,,,,,,,,,,,,,,,,,,,,
,,614ee4370d85f20de1b9548f,2022-09-08_19h03.52.677,CGTgamblingSpanTasks,2022.2.1,Win32,60.0240096,,,,,,,2.445,,,,,,,,,,,,,,,1,v,1.555,0,1,3.945,1.5,,,,,,27.4965044,0,2.461467004,,,,,,,,,,,,,0,89,89,36,1,0.526550878,1,,,,,,,,,,,,,,,,,,,,,,,,,,,,,,,,,,,,,,,,,,,,,,,,,,,,,,,,,,,,,,,,,,,,,,,,,,,,,,,,
,,614ee4370d85f20de1b9548f,2022-09-08_19h03.52.677,CGTgamblingSpanTasks,2022.2.1,Win32,60.0240096,,,,,,,2.673,,,,,,,,,,,,,,,2,v,1.327,2.663622024,0,3.673,1,,,,,,28.9381277,0,2.663622024,,,,,,,,,,,,,0,90,90,103,1,0.519453367,1,,,,,,,,,,,,,,,,,,,,,,,,,,,,,,,,,,,,,,,,,,,,,,,,,,,,,,,,,,,,,,,,,,,,,,,,,,,,,,,,
,,614ee4370d85f20de1b9548f,2022-09-08_19h03.52.677,CGTgamblingSpanTasks,2022.2.1,Win32,60.0240096,,,,,,,2.772,,,,,,,,,,,,,,,1,n,1.228,7.50753835,0,4.272,1.5,,,,,,2.231316635,0,7.50753835,,,,,,,,,,,,,0,91,91,29,1,0.010273427,0,,,,,,,,,,,,,,,,,,,,,,,,,,,,,,,,,,,,,,,,,,,,,,,,,,,,,,,,,,,,,,,,,,,,,,,,,,,,,,,,
,,614ee4370d85f20de1b9548f,2022-09-08_19h03.52.677,CGTgamblingSpanTasks,2022.2.1,Win32,60.0240096,,,,,,,2.677,,,,,,,,,,,,,,,2,n,1.323,19.68065872,1,3.677,1,,,,,,19.68065872,0,1.843597162,,,,,,,,,,,,,0,92,92,80,1,0.514941058,1,,,,,,,,,,,,,,,,,,,,,,,,,,,,,,,,,,,,,,,,,,,,,,,,,,,,,,,,,,,,,,,,,,,,,,,,,,,,,,,,
,,614ee4370d85f20de1b9548f,2022-09-08_19h03.52.677,CGTgamblingSpanTasks,2022.2.1,Win32,60.0240096,,,,,,,2.475,,,,,,,,,,,,,,,2,n,1.525,27.39221343,1,3.475,1,,,,,,27.39221343,0,2.743407746,,,,,,,,,,,,,0,93,93,47,1,0.49752044,1,,,,,,,,,,,,,,,,,,,,,,,,,,,,,,,,,,,,,,,,,,,,,,,,,,,,,,,,,,,,,,,,,,,,,,,,,,,,,,,,
,,614ee4370d85f20de1b9548f,2022-09-08_19h03.52.677,CGTgamblingSpanTasks,2022.2.1,Win32,60.0240096,,,,,,,2.792,,,,,,,,,,,,,,,2,n,1.208,0,1,4.292,1.5,,,,,,21.16780451,0,2.469465385,,,,,,,,,,,,,0,94,94,32,1,0.456531699,1,,,,,,,,,,,,,,,,,,,,,,,,,,,,,,,,,,,,,,,,,,,,,,,,,,,,,,,,,,,,,,,,,,,,,,,,,,,,,,,,
,,614ee4370d85f20de1b9548f,2022-09-08_19h03.52.677,CGTgamblingSpanTasks,2022.2.1,Win32,60.0240096,,,,,,,3.516,,,,,,,,,,,,,,,1,v,0.484,17.67865084,1,5.016,1.5,,,,,,17.67865084,0,11.35147481,,,,,,,,,,,,,0,95,95,91,1,0.067304606,0,,,,,,,,,,,,,,,,,,,,,,,,,,,,,,,,,,,,,,,,,,,,,,,,,,,,,,,,,,,,,,,,,,,,,,,,,,,,,,,,
,,614ee4370d85f20de1b9548f,2022-09-08_19h03.52.677,CGTgamblingSpanTasks,2022.2.1,Win32,60.0240096,,,,,,,2.68,,,,,,,,,,,,,,,2,v,1.32,8.42547829,0,4.18,1.5,,,,,,15.87668502,0,8.42547829,,,,,,,,,,,,,0,96,96,56,1,0.092099462,0,,,,,,,,,,,,,,,,,,,,,,,,,,,,,,,,,,,,,,,,,,,,,,,,,,,,,,,,,,,,,,,,,,,,,,,,,,,,,,,,
,,614ee4370d85f20de1b9548f,2022-09-08_19h03.52.677,CGTgamblingSpanTasks,2022.2.1,Win32,60.0240096,,,,,,,2.743,,,,,,,,,,,,,,,1,n,1.257,8.579385201,0,4.243,1.5,,,,,,14.11762686,0,8.579385201,,,,,,,,,,,,,0,97,97,60,1,0.073886959,0,,,,,,,,,,,,,,,,,,,,,,,,,,,,,,,,,,,,,,,,,,,,,,,,,,,,,,,,,,,,,,,,,,,,,,,,,,,,,,,,
,,614ee4370d85f20de1b9548f,2022-09-08_19h03.52.677,CGTgamblingSpanTasks,2022.2.1,Win32,60.0240096,,,,,,,2.726,,,,,,,,,,,,,,,1,v,1.274,0,1,3.726,1,,,,,,4.022743614,0,11.61882862,,,,,,,,,,,,,0,98,98,38,1,0.011499376,0,,,,,,,,,,,,,,,,,,,,,,,,,,,,,,,,,,,,,,,,,,,,,,,,,,,,,,,,,,,,,,,,,,,,,,,,,,,,,,,,
,,614ee4370d85f20de1b9548f,2022-09-08_19h03.52.677,CGTgamblingSpanTasks,2022.2.1,Win32,60.0240096,,,,,,,2.659,,,,,,,,,,,,,,,2,n,1.341,27.60724521,1,3.659,1,,,,,,27.60724521,0,0.088432325,,,,,,,,,,,,,0,99,99,17,1,0.904684186,0,,,,,,,,,,,,,,,,,,,,,,,,,,,,,,,,,,,,,,,,,,,,,,,,,,,,,,,,,,,,,,,,,,,,,,,,,,,,,,,,
,,614ee4370d85f20de1b9548f,2022-09-08_19h03.52.677,CGTgamblingSpanTasks,2022.2.1,Win32,60.0240096,,,,,,,1.46,,,,,,,,,,,,,,,1,v,2.54,0,1,2.96,1.5,,,,,,21.48443242,0,2.229247341,,,,,,,,,,,,,0,100,100,63,1,0.488155912,1,,,,,,,,,,,,,,,,,,,,,,,,,,,,,,,,,,,,,,,,,,,,,,,,,,,,,,,,,,,,,,,,,,,,,,,,,,,,,,,,
,,614ee4370d85f20de1b9548f,2022-09-08_19h03.52.677,CGTgamblingSpanTasks,2022.2.1,Win32,60.0240096,,,,,,,2.01,,,,,,,,,,,,,,,2,v,1.99,10.3417501,0,3.01,1,,,,,,15.21435748,0,10.3417501,,,,,,,,,,,,,0,101,101,72,1,0.060969226,0,,,,,,,,,,,,,,,,,,,,,,,,,,,,,,,,,,,,,,,,,,,,,,,,,,,,,,,,,,,,,,,,,,,,,,,,,,,,,,,,
,,614ee4370d85f20de1b9548f,2022-09-08_19h03.52.677,CGTgamblingSpanTasks,2022.2.1,Win32,60.0240096,,,,,,,2.677,,,,,,,,,,,,,,,1,n,1.323,2.838865588,0,4.177,1.5,,,,,,29.77342428,0,2.838865588,,,,,,,,,,,,,0,102,102,57,1,0.510363415,1,,,,,,,,,,,,,,,,,,,,,,,,,,,,,,,,,,,,,,,,,,,,,,,,,,,,,,,,,,,,,,,,,,,,,,,,,,,,,,,,
,,614ee4370d85f20de1b9548f,2022-09-08_19h03.52.677,CGTgamblingSpanTasks,2022.2.1,Win32,60.0240096,,,,,,,2.862,,,,,,,,,,,,,,,1,v,1.138,0,1,3.862,1,,,,,,22.72923833,0,0.067170781,,,,,,,,,,,,,0,103,103,86,1,0.907226703,0,,,,,,,,,,,,,,,,,,,,,,,,,,,,,,,,,,,,,,,,,,,,,,,,,,,,,,,,,,,,,,,,,,,,,,,,,,,,,,,,
,,614ee4370d85f20de1b9548f,2022-09-08_19h03.52.677,CGTgamblingSpanTasks,2022.2.1,Win32,60.0240096,,,,,,,2.643,,,,,,,,,,,,,,,2,n,1.357,0,1,4.143,1.5,,,,,,22.62475578,0,2.397643354,,,,,,,,,,,,,0,104,104,93,1,0.482527609,1,,,,,,,,,,,,,,,,,,,,,,,,,,,,,,,,,,,,,,,,,,,,,,,,,,,,,,,,,,,,,,,,,,,,,,,,,,,,,,,,
,,614ee4370d85f20de1b9548f,2022-09-08_19h03.52.677,CGTgamblingSpanTasks,2022.2.1,Win32,60.0240096,,,,,,,2.492,,,,,,,,,,,,,,,2,v,1.508,10.31611309,0,3.492,1,,,,,,19.30622782,0,10.31611309,,,,,,,,,,,,,0,105,105,1,1,0.091105656,0,,,,,,,,,,,,,,,,,,,,,,,,,,,,,,,,,,,,,,,,,,,,,,,,,,,,,,,,,,,,,,,,,,,,,,,,,,,,,,,,
,,614ee4370d85f20de1b9548f,2022-09-08_19h03.52.677,CGTgamblingSpanTasks,2022.2.1,Win32,60.0240096,,,,,,,1.774,,,,,,,,,,,,,,,1,n,2.226,0.088845411,0,3.274,1.5,,,,,,25.54604005,0,0.088845411,,,,,,,,,,,,,0,106,106,79,1,0.901957831,0,,,,,,,,,,,,,,,,,,,,,,,,,,,,,,,,,,,,,,,,,,,,,,,,,,,,,,,,,,,,,,,,,,,,,,,,,,,,,,,,
,,614ee4370d85f20de1b9548f,2022-09-08_19h03.52.677,CGTgamblingSpanTasks,2022.2.1,Win32,60.0240096,,,,,,,2.81,,,,,,,,,,,,,,,1,v,1.19,19.5450126,1,3.81,1,,,,,,19.5450126,0,2.123581464,,,,,,,,,,,,,0,107,107,65,1,0.475836144,1,,,,,,,,,,,,,,,,,,,,,,,,,,,,,,,,,,,,,,,,,,,,,,,,,,,,,,,,,,,,,,,,,,,,,,,,,,,,,,,,
,,614ee4370d85f20de1b9548f,2022-09-08_19h03.52.677,CGTgamblingSpanTasks,2022.2.1,Win32,60.0240096,,,,,,,3.009,,,,,,,,,,,,,,,1,v,0.991,0,1,4.509,1.5,,,,,,27.38828234,0,0.0639233,,,,,,,,,,,,,0,108,108,43,1,0.914010176,0,,,,,,,,,,,,,,,,,,,,,,,,,,,,,,,,,,,,,,,,,,,,,,,,,,,,,,,,,,,,,,,,,,,,,,,,,,,,,,,,
,,614ee4370d85f20de1b9548f,2022-09-08_19h03.52.677,CGTgamblingSpanTasks,2022.2.1,Win32,60.0240096,,,,,,,2.702,,,,,,,,,,,,,,,2,v,1.298,0.747140182,0,3.702,1,,,,,,7.534278541,0,0.747140182,,,,,,,,,,,,,0,109,109,37,1,0.50012466,1,,,,,,,,,,,,,,,,,,,,,,,,,,,,,,,,,,,,,,,,,,,,,,,,,,,,,,,,,,,,,,,,,,,,,,,,,,,,,,,,
,,614ee4370d85f20de1b9548f,2022-09-08_19h03.52.677,CGTgamblingSpanTasks,2022.2.1,Win32,60.0240096,,,,,,,2.875,,,,,,,,,,,,,,,2,n,1.125,27.2532142,1,3.875,1,,,,,,27.2532142,0,0.08089327,,,,,,,,,,,,,0,110,110,119,1,0.907091845,0,,,,,,,,,,,,,,,,,,,,,,,,,,,,,,,,,,,,,,,,,,,,,,,,,,,,,,,,,,,,,,,,,,,,,,,,,,,,,,,,
,,614ee4370d85f20de1b9548f,2022-09-08_19h03.52.677,CGTgamblingSpanTasks,2022.2.1,Win32,60.0240096,,,,,,,3.077,,,,,,,,,,,,,,,1,v,0.923,0,1,4.577,1.5,,,,,,25.21882231,0,0.085746782,,,,,,,,,,,,,0,111,111,64,1,0.90272076,0,,,,,,,,,,,,,,,,,,,,,,,,,,,,,,,,,,,,,,,,,,,,,,,,,,,,,,,,,,,,,,,,,,,,,,,,,,,,,,,,
,,614ee4370d85f20de1b9548f,2022-09-08_19h03.52.677,CGTgamblingSpanTasks,2022.2.1,Win32,60.0240096,,,,,,,2.593,,,,,,,,,,,,,,,2,n,1.407,0,1,3.593,1,,,,,,18.20422443,0,1.635040165,,,,,,,,,,,,,0,112,112,82,1,0.525708991,1,,,,,,,,,,,,,,,,,,,,,,,,,,,,,,,,,,,,,,,,,,,,,,,,,,,,,,,,,,,,,,,,,,,,,,,,,,,,,,,,
,,614ee4370d85f20de1b9548f,2022-09-08_19h03.52.677,CGTgamblingSpanTasks,2022.2.1,Win32,60.0240096,,,,,,,0.057,,,,,,,,,,,,,,,1,v,3.943,28.68598705,1,1.057,1,,,,,,28.68598705,0,0.050674956,,,,,,,,,,,,,0,113,113,62,1,0.920905497,0,,,,,,,,,,,,,,,,,,,,,,,,,,,,,,,,,,,,,,,,,,,,,,,,,,,,,,,,,,,,,,,,,,,,,,,,,,,,,,,,
,,614ee4370d85f20de1b9548f,2022-09-08_19h03.52.677,CGTgamblingSpanTasks,2022.2.1,Win32,60.0240096,,,,,,,1.225,,,,,,,,,,,,,,,2,n,2.775,0,1,2.225,1,,,,,,18.51345298,0,1.932334278,,,,,,,,,,,,,0,114,114,31,1,0.48658696,1,,,,,,,,,,,,,,,,,,,,,,,,,,,,,,,,,,,,,,,,,,,,,,,,,,,,,,,,,,,,,,,,,,,,,,,,,,,,,,,,
,,614ee4370d85f20de1b9548f,2022-09-08_19h03.52.677,CGTgamblingSpanTasks,2022.2.1,Win32,60.0240096,,,,,,,1.973,,,,,,,,,,,,,,,1,v,2.027,6.662965216,1,3.473,1.5,,,,,,6.662965216,0,6.091504705,,,,,,,,,,,,,0,115,115,102,1,0.035087099,0,,,,,,,,,,,,,,,,,,,,,,,,,,,,,,,,,,,,,,,,,,,,,,,,,,,,,,,,,,,,,,,,,,,,,,,,,,,,,,,,
,,614ee4370d85f20de1b9548f,2022-09-08_19h03.52.677,CGTgamblingSpanTasks,2022.2.1,Win32,60.0240096,,,,,,,2.116,,,,,,,,,,,,,,,1,n,1.884,5.526483034,0,3.116,1,,,,,,9.725876653,0,5.526483034,,,,,,,,,,,,,0,116,116,44,1,0.082550696,0,,,,,,,,,,,,,,,,,,,,,,,,,,,,,,,,,,,,,,,,,,,,,,,,,,,,,,,,,,,,,,,,,,,,,,,,,,,,,,,,
,,614ee4370d85f20de1b9548f,2022-09-08_19h03.52.677,CGTgamblingSpanTasks,2022.2.1,Win32,60.0240096,,,,,,,1.611,,,,,,,,,,,,,,,1,n,2.389,2.257683666,0,2.611,1,,,,,,22.0050376,0,2.257683666,,,,,,,,,,,,,0,117,117,4,1,0.491147312,1,,,,,,,,,,,,,,,,,,,,,,,,,,,,,,,,,,,,,,,,,,,,,,,,,,,,,,,,,,,,,,,,,,,,,,,,,,,,,,,,
,,614ee4370d85f20de1b9548f,2022-09-08_19h03.52.677,CGTgamblingSpanTasks,2022.2.1,Win32,60.0240096,,,,,,,2.64,,,,,,,,,,,,,,,2,n,1.36,27.93093084,1,3.64,1,,,,,,27.93093084,0,0.050207531,,,,,,,,,,,,,0,118,118,83,1,0.920505936,0,,,,,,,,,,,,,,,,,,,,,,,,,,,,,,,,,,,,,,,,,,,,,,,,,,,,,,,,,,,,,,,,,,,,,,,,,,,,,,,,
,,614ee4370d85f20de1b9548f,2022-09-08_19h03.52.677,CGTgamblingSpanTasks,2022.2.1,Win32,60.0240096,,,,,,,2.382,,,,,,,,,,,,,,,1,n,1.618,1.002188111,0,3.382,1,,,,,,9.012590634,0,1.002188111,,,,,,,,,,,,,0,119,119,12,1,0.46958041,1,,,,,,,,,,,,,,,,,,,,,,,,,,,,,,,,,,,,,,,,,,,,,,,,,,,,,,,,,,,,,,,,,,,,,,,,,,,,,,,,
,,614ee4370d85f20de1b9548f,2022-09-08_19h03.52.677,CGTgamblingSpanTasks,2022.2.1,Win32,60.0240096,,,,,,,,,,,,,,,,,,,,,,,,,,,,,,,,,,,,,,,,,,,,,,,,,,,,,,,,return,37.98,,,,,,,,,,,,,,,,,,,,,,,,,,,,,,,,,,,,,,,,,,,,,,,,,,,,,,,,,,,,,,,,,,,,,,,,,,,,,,
,,614ee4370d85f20de1b9548f,2022-09-08_19h03.52.677,CGTgamblingSpanTasks,2022.2.1,Win32,60.0240096,,,,,,,,,,,,,,,,,,,,,,,,,,,,,,,,,,,,,,,,,,,,,,,,,,,,,,,,,,return,2.137,,,,,,,,,,,,,,,,,,,,,,,,,,,,,,,,,,,,,,,,,,,,,,,,,,,,,,,,,,,,,,,,,,,,,,,,,,,,
,,614ee4370d85f20de1b9548f,2022-09-08_19h03.52.677,CGTgamblingSpanTasks,2022.2.1,Win32,60.0240096,,,,,,,,,,,,,,,,,,,,,,,,,,,,,,,,,,,,,,,,,,,,,,,,,,,,,,,,,,,,return,1.666,,,,,,,,,,,,,,,,,,,,,,,,,,,,,,,,,,,,,,,,,,,,,,,,,,,,,,,,,,,,,,,,,,,,,,,,,,
,,614ee4370d85f20de1b9548f,2022-09-08_19h03.52.677,CGTgamblingSpanTasks,2022.2.1,Win32,60.0240096,,,,,,,,,,,,,,,,,,,,,,,,,,,,,,,,,,,,,,,,,,,,,,,,,,,,,,,,,,,,,,,0,0.008032129,-0.38085676,1,0,0,cont_buttonPractice,0,0,0,0,1,3,342,24,2,42,,,,,,,,,,,,,,,,,,,,,,,,,,,,,,,,,,,,,,,,,,,,,,,,,,,,,,,,
,,614ee4370d85f20de1b9548f,2022-09-08_19h03.52.677,CGTgamblingSpanTasks,2022.2.1,Win32,60.0240096,,,,,,,,,,,,,,,,,,,,,,,,,,,,,,,,,,,,,,,,,,,,,,,,,,,,,,,,,,,,,,,0,0.009370817,-0.371485944,1,0,0,cont_buttonPractice,0,1,1,1,1,3,937,73,2,37,,,,,,,,,,,,,,,,,,,,,,,,,,,,,,,,,,,,,,,,,,,,,,,,,,,,,,,,
,,614ee4370d85f20de1b9548f,2022-09-08_19h03.52.677,CGTgamblingSpanTasks,2022.2.1,Win32,60.0240096,,,,,,,,,,,,,,,,,,,,,,,,,,,,,,,,,,,,,,,,,,,,,,,,,,,,,,,,,,,,,,,,,,,,,,,,,,,,,,,,return,6.37,,,,,,,,,,,,,,,,,,,,,,,,,,,,,,,,,,,,,,,,,,,,,,,,,,,,,,
,,614ee4370d85f20de1b9548f,2022-09-08_19h03.52.677,CGTgamblingSpanTasks,2022.2.1,Win32,60.0240096,,,,,,,,,,,,,,,,,,,,,,,,,,,,,,,,,,,,,,,,,,,,,,,,,,,,,,,,,,,,,,,,,,,,,,,,,,,,,,,,,,"[7,4,3]",0,0,0,0,1,,,,,,,,,,,,,,,,,,,,,,,,,,,,,,,,,,,,,,,,,,,,,,,,
,,614ee4370d85f20de1b9548f,2022-09-08_19h03.52.677,CGTgamblingSpanTasks,2022.2.1,Win32,60.0240096,,,,,,,,,,,,,,,,,,,,,,,,,,,,,,,,,,,,,,,,,,,,,,,,,,,,,,,,,,,,,,,,,,,,,,,,,,,,,,,,,,"[7,4,3]",1,0,1,0,1,,,,,,,,,,,,,,,,,,,,,,,,,,,,,,,,,,,,,,,,,,,,,,,,
,,614ee4370d85f20de1b9548f,2022-09-08_19h03.52.677,CGTgamblingSpanTasks,2022.2.1,Win32,60.0240096,,,,,,,,,,,,,,,,,,,,,,,,,,,,,,,,,,,,,,,,,,,,,,,,,,,,,,,,,,,,,,,,,,,,,,,,,,,,,,,,,,"[7,4,3]",2,0,2,0,1,,,,,,,,,,,,,,,,,,,,,,,,,,,,,,,,,,,,,,,,,,,,,,,,
,,614ee4370d85f20de1b9548f,2022-09-08_19h03.52.677,CGTgamblingSpanTasks,2022.2.1,Win32,60.0240096,,,,,,,,,,,,,,,,,,,,,,,,,,,,,,,,,,,,,,,,,,,,,,,,,,,,,,,,,,,,,,,0,,,,,,,,,,,,,,,,,,,,,,,,,3,0.013386881,-0.40896921,1,0,0,cont_button,0,0,0,0,1,1,,,,,,,,,,,,,,,,,,,,,,,,,,,,,,,,,,,
,,614ee4370d85f20de1b9548f,2022-09-08_19h03.52.677,CGTgamblingSpanTasks,2022.2.1,Win32,60.0240096,,,,,,,,,,,,,,,,,,,,,,,,,,,,,,,,,,,,,,,,,,,,,,,,,,,,,,,,,,,,,,,,,,,,,,,,,,,,,,,,,,"[4,6,5]",0,0,0,0,1,,,,,,,,,,,,,,,,,,,,,,,,,,,,,,,,,,,,,,,,,,,,,,,,
,,614ee4370d85f20de1b9548f,2022-09-08_19h03.52.677,CGTgamblingSpanTasks,2022.2.1,Win32,60.0240096,,,,,,,,,,,,,,,,,,,,,,,,,,,,,,,,,,,,,,,,,,,,,,,,,,,,,,,,,,,,,,,,,,,,,,,,,,,,,,,,,,"[4,6,5]",1,0,1,0,1,,,,,,,,,,,,,,,,,,,,,,,,,,,,,,,,,,,,,,,,,,,,,,,,
,,614ee4370d85f20de1b9548f,2022-09-08_19h03.52.677,CGTgamblingSpanTasks,2022.2.1,Win32,60.0240096,,,,,,,,,,,,,,,,,,,,,,,,,,,,,,,,,,,,,,,,,,,,,,,,,,,,,,,,,,,,,,,,,,,,,,,,,,,,,,,,,,"[4,6,5]",2,0,2,0,1,,,,,,,,,,,,,,,,,,,,,,,,,,,,,,,,,,,,,,,,,,,,,,,,
,,614ee4370d85f20de1b9548f,2022-09-08_19h03.52.677,CGTgamblingSpanTasks,2022.2.1,Win32,60.0240096,,,,,,,,,,,,,,,,,,,,,,,,,,,,,,,,,,,,,,,,,,,,,,,,,,,,,,,,,,,,,,,0,,,,,,,,,,,,,,,,,,,,,,,,,,-0.018741633,-0.368808568,1,0,0,cont_button,0,1,1,1,1,2,,,,,,,,,,,,,,,,,,,,,,,,,,,,,,,,,,,
,,614ee4370d85f20de1b9548f,2022-09-08_19h03.52.677,CGTgamblingSpanTasks,2022.2.1,Win32,60.0240096,,,,,,,,,,,,,,,,,,,,,,,,,,,,,,,,,,,,,,,,,,,,,,,,,,,,,,,,,,,,,,,,,,,,,,,,,,,,,,,,,,"[8,1,4]",0,0,0,0,1,,,,,,,,,,,,,,,,,,,,,,,,,,,,,,,,,,,,,,,,,,,,,,,,
,,614ee4370d85f20de1b9548f,2022-09-08_19h03.52.677,CGTgamblingSpanTasks,2022.2.1,Win32,60.0240096,,,,,,,,,,,,,,,,,,,,,,,,,,,,,,,,,,,,,,,,,,,,,,,,,,,,,,,,,,,,,,,,,,,,,,,,,,,,,,,,,,"[8,1,4]",1,0,1,0,1,,,,,,,,,,,,,,,,,,,,,,,,,,,,,,,,,,,,,,,,,,,,,,,,
,,614ee4370d85f20de1b9548f,2022-09-08_19h03.52.677,CGTgamblingSpanTasks,2022.2.1,Win32,60.0240096,,,,,,,,,,,,,,,,,,,,,,,,,,,,,,,,,,,,,,,,,,,,,,,,,,,,,,,,,,,,,,,,,,,,,,,,,,,,,,,,,,"[8,1,4]",2,0,2,0,1,,,,,,,,,,,,,,,,,,,,,,,,,,,,,,,,,,,,,,,,,,,,,,,,
,,614ee4370d85f20de1b9548f,2022-09-08_19h03.52.677,CGTgamblingSpanTasks,2022.2.1,Win32,60.0240096,,,,,,,,,,,,,,,,,,,,,,,,,,,,,,,,,,,,,,,,,,,,,,,,,,,,,,,,,,,,,,,0,,,,,,,,,,,,,,,,,,,,,,,,,4,-0.06961178,-0.388888889,1,0,0,cont_button,0,2,2,2,1,3,,,,,,,,,,,,,,,,,,,,,,,,,,,,,,,,,,,
,,614ee4370d85f20de1b9548f,2022-09-08_19h03.52.677,CGTgamblingSpanTasks,2022.2.1,Win32,60.0240096,,,,,,,,,,,,,,,,,,,,,,,,,,,,,,,,,,,,,,,,,,,,,,,,,,,,,,,,,,,,,,,,,,,,,,,,,,,,,,,,,,"[5,9,3]",0,0,0,0,1,,,,,,,,,,,,,,,,,,,,,,,,,,,,,,,,,,,,,,,,,,,,,,,,
,,614ee4370d85f20de1b9548f,2022-09-08_19h03.52.677,CGTgamblingSpanTasks,2022.2.1,Win32,60.0240096,,,,,,,,,,,,,,,,,,,,,,,,,,,,,,,,,,,,,,,,,,,,,,,,,,,,,,,,,,,,,,,,,,,,,,,,,,,,,,,,,,"[5,9,3]",1,0,1,0,1,,,,,,,,,,,,,,,,,,,,,,,,,,,,,,,,,,,,,,,,,,,,,,,,
,,614ee4370d85f20de1b9548f,2022-09-08_19h03.52.677,CGTgamblingSpanTasks,2022.2.1,Win32,60.0240096,,,,,,,,,,,,,,,,,,,,,,,,,,,,,,,,,,,,,,,,,,,,,,,,,,,,,,,,,,,,,,,,,,,,,,,,,,,,,,,,,,"[5,9,3]",2,0,2,0,1,,,,,,,,,,,,,,,,,,,,,,,,,,,,,,,,,,,,,,,,,,,,,,,,
,,614ee4370d85f20de1b9548f,2022-09-08_19h03.52.677,CGTgamblingSpanTasks,2022.2.1,Win32,60.0240096,,,,,,,,,,,,,,,,,,,,,,,,,,,,,,,,,,,,,,,,,,,,,,,,,,,,,,,,,,,,,,,0,,,,,,,,,,,,,,,,,,,,,,,,,3,0.004016064,-0.411646586,1,0,0,cont_button,0,3,3,3,1,4,,,,,,,,,,,,,,,,,,,,,,,,,,,,,,,,,,,
,,614ee4370d85f20de1b9548f,2022-09-08_19h03.52.677,CGTgamblingSpanTasks,2022.2.1,Win32,60.0240096,,,,,,,,,,,,,,,,,,,,,,,,,,,,,,,,,,,,,,,,,,,,,,,,,,,,,,,,,,,,,,,,,,,,,,,,,,,,,,,,,,"[7,1,5]",0,0,0,0,1,,,,,,,,,,,,,,,,,,,,,,,,,,,,,,,,,,,,,,,,,,,,,,,,
,,614ee4370d85f20de1b9548f,2022-09-08_19h03.52.677,CGTgamblingSpanTasks,2022.2.1,Win32,60.0240096,,,,,,,,,,,,,,,,,,,,,,,,,,,,,,,,,,,,,,,,,,,,,,,,,,,,,,,,,,,,,,,,,,,,,,,,,,,,,,,,,,"[7,1,5]",1,0,1,0,1,,,,,,,,,,,,,,,,,,,,,,,,,,,,,,,,,,,,,,,,,,,,,,,,
,,614ee4370d85f20de1b9548f,2022-09-08_19h03.52.677,CGTgamblingSpanTasks,2022.2.1,Win32,60.0240096,,,,,,,,,,,,,,,,,,,,,,,,,,,,,,,,,,,,,,,,,,,,,,,,,,,,,,,,,,,,,,,,,,,,,,,,,,,,,,,,,,"[7,1,5]",2,0,2,0,1,,,,,,,,,,,,,,,,,,,,,,,,,,,,,,,,,,,,,,,,,,,,,,,,
,,614ee4370d85f20de1b9548f,2022-09-08_19h03.52.677,CGTgamblingSpanTasks,2022.2.1,Win32,60.0240096,,,,,,,,,,,,,,,,,,,,,,,,,,,,,,,,,,,,,,,,,,,,,,,,,,,,,,,,,,,,,,,0,,,,,,,,,,,,,,,,,,,,,,,,,3,0.06961178,-0.404953146,1,0,0,cont_button,0,4,4,4,1,5,,,,,,,,,,,,,,,,,,,,,,,,,,,,,,,,,,,
,,614ee4370d85f20de1b9548f,2022-09-08_19h03.52.677,CGTgamblingSpanTasks,2022.2.1,Win32,60.0240096,,,,,,,,,,,,,,,,,,,,,,,,,,,,,,,,,,,,,,,,,,,,,,,,,,,,,,,,,,,,,,,,,,,,,,,,,,,,,,,,,,"[5,9,7]",0,0,0,0,1,,,,,,,,,,,,,,,,,,,,,,,,,,,,,,,,,,,,,,,,,,,,,,,,
,,614ee4370d85f20de1b9548f,2022-09-08_19h03.52.677,CGTgamblingSpanTasks,2022.2.1,Win32,60.0240096,,,,,,,,,,,,,,,,,,,,,,,,,,,,,,,,,,,,,,,,,,,,,,,,,,,,,,,,,,,,,,,,,,,,,,,,,,,,,,,,,,"[5,9,7]",1,0,1,0,1,,,,,,,,,,,,,,,,,,,,,,,,,,,,,,,,,,,,,,,,,,,,,,,,
,,614ee4370d85f20de1b9548f,2022-09-08_19h03.52.677,CGTgamblingSpanTasks,2022.2.1,Win32,60.0240096,,,,,,,,,,,,,,,,,,,,,,,,,,,,,,,,,,,,,,,,,,,,,,,,,,,,,,,,,,,,,,,,,,,,,,,,,,,,,,,,,,"[5,9,7]",2,0,2,0,1,,,,,,,,,,,,,,,,,,,,,,,,,,,,,,,,,,,,,,,,,,,,,,,,
,,614ee4370d85f20de1b9548f,2022-09-08_19h03.52.677,CGTgamblingSpanTasks,2022.2.1,Win32,60.0240096,,,,,,,,,,,,,,,,,,,,,,,,,,,,,,,,,,,,,,,,,,,,,,,,,,,,,,,,,,,,,,,1,,,,,,,,,,,,,,,,,,,,,,,,,597,0.087014726,-0.378179384,1,0,0,cont_button,0,5,5,5,1,6,,,,,,,,,,,,,,,,,,,,,,,,,,,,,,,,,,,
,,614ee4370d85f20de1b9548f,2022-09-08_19h03.52.677,CGTgamblingSpanTasks,2022.2.1,Win32,60.0240096,,,,,,,,,,,,,,,,,,,,,,,,,,,,,,,,,,,,,,,,,,,,,,,,,,,,,,,,,,,,,,,,,,,,,,,,,,,,,,,,,,"[9,5,2,7]",0,0,0,0,1,,,,,,,,,,,,,,,,,,,,,,,,,,,,,,,,,,,,,,,,,,,,,,,,
,,614ee4370d85f20de1b9548f,2022-09-08_19h03.52.677,CGTgamblingSpanTasks,2022.2.1,Win32,60.0240096,,,,,,,,,,,,,,,,,,,,,,,,,,,,,,,,,,,,,,,,,,,,,,,,,,,,,,,,,,,,,,,,,,,,,,,,,,,,,,,,,,"[9,5,2,7]",1,0,1,0,1,,,,,,,,,,,,,,,,,,,,,,,,,,,,,,,,,,,,,,,,,,,,,,,,
,,614ee4370d85f20de1b9548f,2022-09-08_19h03.52.677,CGTgamblingSpanTasks,2022.2.1,Win32,60.0240096,,,,,,,,,,,,,,,,,,,,,,,,,,,,,,,,,,,,,,,,,,,,,,,,,,,,,,,,,,,,,,,,,,,,,,,,,,,,,,,,,,"[9,5,2,7]",2,0,2,0,1,,,,,,,,,,,,,,,,,,,,,,,,,,,,,,,,,,,,,,,,,,,,,,,,
,,614ee4370d85f20de1b9548f,2022-09-08_19h03.52.677,CGTgamblingSpanTasks,2022.2.1,Win32,60.0240096,,,,,,,,,,,,,,,,,,,,,,,,,,,,,,,,,,,,,,,,,,,,,,,,,,,,,,,,,,,,,,,,,,,,,,,,,,,,,,,,,,"[9,5,2,7]",3,0,3,0,1,,,,,,,,,,,,,,,,,,,,,,,,,,,,,,,,,,,,,,,,,,,,,,,,
,,614ee4370d85f20de1b9548f,2022-09-08_19h03.52.677,CGTgamblingSpanTasks,2022.2.1,Win32,60.0240096,,,,,,,,,,,,,,,,,,,,,,,,,,,,,,,,,,,,,,,,,,,,,,,,,,,,,,,,,,,,,,,1,,,,,,,,,,,,,,,,,,,,,,,,,9527,0.073627845,-0.396921017,1,0,0,cont_button,0,6,6,6,1,7,,,,,,,,,,,,,,,,,,,,,,,,,,,,,,,,,,,
,,614ee4370d85f20de1b9548f,2022-09-08_19h03.52.677,CGTgamblingSpanTasks,2022.2.1,Win32,60.0240096,,,,,,,,,,,,,,,,,,,,,,,,,,,,,,,,,,,,,,,,,,,,,,,,,,,,,,,,,,,,,,,,,,,,,,,,,,,,,,,,,,"[6,4,7,2,8]",0,0,0,0,1,,,,,,,,,,,,,,,,,,,,,,,,,,,,,,,,,,,,,,,,,,,,,,,,
,,614ee4370d85f20de1b9548f,2022-09-08_19h03.52.677,CGTgamblingSpanTasks,2022.2.1,Win32,60.0240096,,,,,,,,,,,,,,,,,,,,,,,,,,,,,,,,,,,,,,,,,,,,,,,,,,,,,,,,,,,,,,,,,,,,,,,,,,,,,,,,,,"[6,4,7,2,8]",1,0,1,0,1,,,,,,,,,,,,,,,,,,,,,,,,,,,,,,,,,,,,,,,,,,,,,,,,
,,614ee4370d85f20de1b9548f,2022-09-08_19h03.52.677,CGTgamblingSpanTasks,2022.2.1,Win32,60.0240096,,,,,,,,,,,,,,,,,,,,,,,,,,,,,,,,,,,,,,,,,,,,,,,,,,,,,,,,,,,,,,,,,,,,,,,,,,,,,,,,,,"[6,4,7,2,8]",2,0,2,0,1,,,,,,,,,,,,,,,,,,,,,,,,,,,,,,,,,,,,,,,,,,,,,,,,
,,614ee4370d85f20de1b9548f,2022-09-08_19h03.52.677,CGTgamblingSpanTasks,2022.2.1,Win32,60.0240096,,,,,,,,,,,,,,,,,,,,,,,,,,,,,,,,,,,,,,,,,,,,,,,,,,,,,,,,,,,,,,,,,,,,,,,,,,,,,,,,,,"[6,4,7,2,8]",3,0,3,0,1,,,,,,,,,,,,,,,,,,,,,,,,,,,,,,,,,,,,,,,,,,,,,,,,
,,614ee4370d85f20de1b9548f,2022-09-08_19h03.52.677,CGTgamblingSpanTasks,2022.2.1,Win32,60.0240096,,,,,,,,,,,,,,,,,,,,,,,,,,,,,,,,,,,,,,,,,,,,,,,,,,,,,,,,,,,,,,,,,,,,,,,,,,,,,,,,,,"[6,4,7,2,8]",4,0,4,0,1,,,,,,,,,,,,,,,,,,,,,,,,,,,,,,,,,,,,,,,,,,,,,,,,
,,614ee4370d85f20de1b9548f,2022-09-08_19h03.52.677,CGTgamblingSpanTasks,2022.2.1,Win32,60.0240096,,,,,,,,,,,,,,,,,,,,,,,,,,,,,,,,,,,,,,,,,,,,,,,,,,,,,,,,,,,,,,,1,,,,,,,,,,,,,,,,,,,,,,,,,64728,-0.021419009,-0.38085676,1,0,0,cont_button,0,7,7,7,1,8,,,,,,,,,,,,,,,,,,,,,,,,,,,,,,,,,,,
,,614ee4370d85f20de1b9548f,2022-09-08_19h03.52.677,CGTgamblingSpanTasks,2022.2.1,Win32,60.0240096,,,,,,,,,,,,,,,,,,,,,,,,,,,,,,,,,,,,,,,,,,,,,,,,,,,,,,,,,,,,,,,,,,,,,,,,,,,,,,,,,,"[9,7,6,3,8,2]",0,0,0,0,1,,,,,,,,,,,,,,,,,,,,,,,,,,,,,,,,,,,,,,,,,,,,,,,,
,,614ee4370d85f20de1b9548f,2022-09-08_19h03.52.677,CGTgamblingSpanTasks,2022.2.1,Win32,60.0240096,,,,,,,,,,,,,,,,,,,,,,,,,,,,,,,,,,,,,,,,,,,,,,,,,,,,,,,,,,,,,,,,,,,,,,,,,,,,,,,,,,"[9,7,6,3,8,2]",1,0,1,0,1,,,,,,,,,,,,,,,,,,,,,,,,,,,,,,,,,,,,,,,,,,,,,,,,
,,614ee4370d85f20de1b9548f,2022-09-08_19h03.52.677,CGTgamblingSpanTasks,2022.2.1,Win32,60.0240096,,,,,,,,,,,,,,,,,,,,,,,,,,,,,,,,,,,,,,,,,,,,,,,,,,,,,,,,,,,,,,,,,,,,,,,,,,,,,,,,,,"[9,7,6,3,8,2]",2,0,2,0,1,,,,,,,,,,,,,,,,,,,,,,,,,,,,,,,,,,,,,,,,,,,,,,,,
,,614ee4370d85f20de1b9548f,2022-09-08_19h03.52.677,CGTgamblingSpanTasks,2022.2.1,Win32,60.0240096,,,,,,,,,,,,,,,,,,,,,,,,,,,,,,,,,,,,,,,,,,,,,,,,,,,,,,,,,,,,,,,,,,,,,,,,,,,,,,,,,,"[9,7,6,3,8,2]",3,0,3,0,1,,,,,,,,,,,,,,,,,,,,,,,,,,,,,,,,,,,,,,,,,,,,,,,,
,,614ee4370d85f20de1b9548f,2022-09-08_19h03.52.677,CGTgamblingSpanTasks,2022.2.1,Win32,60.0240096,,,,,,,,,,,,,,,,,,,,,,,,,,,,,,,,,,,,,,,,,,,,,,,,,,,,,,,,,,,,,,,,,,,,,,,,,,,,,,,,,,"[9,7,6,3,8,2]",4,0,4,0,1,,,,,,,,,,,,,,,,,,,,,,,,,,,,,,,,,,,,,,,,,,,,,,,,
,,614ee4370d85f20de1b9548f,2022-09-08_19h03.52.677,CGTgamblingSpanTasks,2022.2.1,Win32,60.0240096,,,,,,,,,,,,,,,,,,,,,,,,,,,,,,,,,,,,,,,,,,,,,,,,,,,,,,,,,,,,,,,,,,,,,,,,,,,,,,,,,,"[9,7,6,3,8,2]",5,0,5,0,1,,,,,,,,,,,,,,,,,,,,,,,,,,,,,,,,,,,,,,,,,,,,,,,,
,,614ee4370d85f20de1b9548f,2022-09-08_19h03.52.677,CGTgamblingSpanTasks,2022.2.1,Win32,60.0240096,,,,,,,,,,,,,,,,,,,,,,,,,,,,,,,,,,,,,,,,,,,,,,,,,,,,,,,,,,,,,,,0,,,,,,,,,,,,,,,,,,,,,,,,,94728,-0.036144578,-0.386211513,1,0,0,cont_button,0,8,8,8,1,9,,,,,,,,,,,,,,,,,,,,,,,,,,,,,,,,,,,
,,614ee4370d85f20de1b9548f,2022-09-08_19h03.52.677,CGTgamblingSpanTasks,2022.2.1,Win32,60.0240096,,,,,,,,,,,,,,,,,,,,,,,,,,,,,,,,,,,,,,,,,,,,,,,,,,,,,,,,,,,,,,,,,,,,,,,,,,,,,,,,,,"[4,6,9,5,7,1]",0,0,0,0,1,,,,,,,,,,,,,,,,,,,,,,,,,,,,,,,,,,,,,,,,,,,,,,,,
,,614ee4370d85f20de1b9548f,2022-09-08_19h03.52.677,CGTgamblingSpanTasks,2022.2.1,Win32,60.0240096,,,,,,,,,,,,,,,,,,,,,,,,,,,,,,,,,,,,,,,,,,,,,,,,,,,,,,,,,,,,,,,,,,,,,,,,,,,,,,,,,,"[4,6,9,5,7,1]",1,0,1,0,1,,,,,,,,,,,,,,,,,,,,,,,,,,,,,,,,,,,,,,,,,,,,,,,,
,,614ee4370d85f20de1b9548f,2022-09-08_19h03.52.677,CGTgamblingSpanTasks,2022.2.1,Win32,60.0240096,,,,,,,,,,,,,,,,,,,,,,,,,,,,,,,,,,,,,,,,,,,,,,,,,,,,,,,,,,,,,,,,,,,,,,,,,,,,,,,,,,"[4,6,9,5,7,1]",2,0,2,0,1,,,,,,,,,,,,,,,,,,,,,,,,,,,,,,,,,,,,,,,,,,,,,,,,
,,614ee4370d85f20de1b9548f,2022-09-08_19h03.52.677,CGTgamblingSpanTasks,2022.2.1,Win32,60.0240096,,,,,,,,,,,,,,,,,,,,,,,,,,,,,,,,,,,,,,,,,,,,,,,,,,,,,,,,,,,,,,,,,,,,,,,,,,,,,,,,,,"[4,6,9,5,7,1]",3,0,3,0,1,,,,,,,,,,,,,,,,,,,,,,,,,,,,,,,,,,,,,,,,,,,,,,,,
,,614ee4370d85f20de1b9548f,2022-09-08_19h03.52.677,CGTgamblingSpanTasks,2022.2.1,Win32,60.0240096,,,,,,,,,,,,,,,,,,,,,,,,,,,,,,,,,,,,,,,,,,,,,,,,,,,,,,,,,,,,,,,,,,,,,,,,,,,,,,,,,,"[4,6,9,5,7,1]",4,0,4,0,1,,,,,,,,,,,,,,,,,,,,,,,,,,,,,,,,,,,,,,,,,,,,,,,,
,,614ee4370d85f20de1b9548f,2022-09-08_19h03.52.677,CGTgamblingSpanTasks,2022.2.1,Win32,60.0240096,,,,,,,,,,,,,,,,,,,,,,,,,,,,,,,,,,,,,,,,,,,,,,,,,,,,,,,,,,,,,,,,,,,,,,,,,,,,,,,,,,"[4,6,9,5,7,1]",5,0,5,0,1,,,,,,,,,,,,,,,,,,,,,,,,,,,,,,,,,,,,,,,,,,,,,,,,
,,614ee4370d85f20de1b9548f,2022-09-08_19h03.52.677,CGTgamblingSpanTasks,2022.2.1,Win32,60.0240096,,,,,,,,,,,,,,,,,,,,,,,,,,,,,,,,,,,,,,,,,,,,,,,,,,,,,,,,,,,,,,,0,,,,,,,,,,,,,,,,,,,,,,,,,9471,0.018741633,-0.384872825,1,0,0,cont_button,0,9,9,9,1,10,,,,,,,,,,,,,,,,,,,,,,,,,,,,,,,,,,,
,,614ee4370d85f20de1b9548f,2022-09-08_19h03.52.677,CGTgamblingSpanTasks,2022.2.1,Win32,60.0240096,,,,,,,,,,,,,,,,,,,,,,,,,,,,,,,,,,,,,,,,,,,,,,,,,,,,,,,,,,,,,,,,,,,,,,,,,,,,,,,,,,"[9,5,2,8,6]",0,0,0,0,1,,,,,,,,,,,,,,,,,,,,,,,,,,,,,,,,,,,,,,,,,,,,,,,,
,,614ee4370d85f20de1b9548f,2022-09-08_19h03.52.677,CGTgamblingSpanTasks,2022.2.1,Win32,60.0240096,,,,,,,,,,,,,,,,,,,,,,,,,,,,,,,,,,,,,,,,,,,,,,,,,,,,,,,,,,,,,,,,,,,,,,,,,,,,,,,,,,"[9,5,2,8,6]",1,0,1,0,1,,,,,,,,,,,,,,,,,,,,,,,,,,,,,,,,,,,,,,,,,,,,,,,,
,,614ee4370d85f20de1b9548f,2022-09-08_19h03.52.677,CGTgamblingSpanTasks,2022.2.1,Win32,60.0240096,,,,,,,,,,,,,,,,,,,,,,,,,,,,,,,,,,,,,,,,,,,,,,,,,,,,,,,,,,,,,,,,,,,,,,,,,,,,,,,,,,"[9,5,2,8,6]",2,0,2,0,1,,,,,,,,,,,,,,,,,,,,,,,,,,,,,,,,,,,,,,,,,,,,,,,,
,,614ee4370d85f20de1b9548f,2022-09-08_19h03.52.677,CGTgamblingSpanTasks,2022.2.1,Win32,60.0240096,,,,,,,,,,,,,,,,,,,,,,,,,,,,,,,,,,,,,,,,,,,,,,,,,,,,,,,,,,,,,,,,,,,,,,,,,,,,,,,,,,"[9,5,2,8,6]",3,0,3,0,1,,,,,,,,,,,,,,,,,,,,,,,,,,,,,,,,,,,,,,,,,,,,,,,,
,,614ee4370d85f20de1b9548f,2022-09-08_19h03.52.677,CGTgamblingSpanTasks,2022.2.1,Win32,60.0240096,,,,,,,,,,,,,,,,,,,,,,,,,,,,,,,,,,,,,,,,,,,,,,,,,,,,,,,,,,,,,,,,,,,,,,,,,,,,,,,,,,"[9,5,2,8,6]",4,0,4,0,1,,,,,,,,,,,,,,,,,,,,,,,,,,,,,,,,,,,,,,,,,,,,,,,,
,,614ee4370d85f20de1b9548f,2022-09-08_19h03.52.677,CGTgamblingSpanTasks,2022.2.1,Win32,60.0240096,,,,,,,,,,,,,,,,,,,,,,,,,,,,,,,,,,,,,,,,,,,,,,,,,,,,,,,,,,,,,,,0,,,,,,,,,,,,,,,,,,,,,,,,,95247,0.042838019,-0.396921017,1,0,0,cont_button,0,10,10,10,1,11,,,,,,,,,,,,,,,,,,,,,,,,,,,,,,,,,,,
,,614ee4370d85f20de1b9548f,2022-09-08_19h03.52.677,CGTgamblingSpanTasks,2022.2.1,Win32,60.0240096,,,,,,,,,,,,,,,,,,,,,,,,,,,,,,,,,,,,,,,,,,,,,,,,,,,,,,,,,,,,,,,,,,,,,,,,,,,,,,,,,,"[3,7,5,4,9]",0,0,0,0,1,,,,,,,,,,,,,,,,,,,,,,,,,,,,,,,,,,,,,,,,,,,,,,,,
,,614ee4370d85f20de1b9548f,2022-09-08_19h03.52.677,CGTgamblingSpanTasks,2022.2.1,Win32,60.0240096,,,,,,,,,,,,,,,,,,,,,,,,,,,,,,,,,,,,,,,,,,,,,,,,,,,,,,,,,,,,,,,,,,,,,,,,,,,,,,,,,,"[3,7,5,4,9]",1,0,1,0,1,,,,,,,,,,,,,,,,,,,,,,,,,,,,,,,,,,,,,,,,,,,,,,,,
,,614ee4370d85f20de1b9548f,2022-09-08_19h03.52.677,CGTgamblingSpanTasks,2022.2.1,Win32,60.0240096,,,,,,,,,,,,,,,,,,,,,,,,,,,,,,,,,,,,,,,,,,,,,,,,,,,,,,,,,,,,,,,,,,,,,,,,,,,,,,,,,,"[3,7,5,4,9]",2,0,2,0,1,,,,,,,,,,,,,,,,,,,,,,,,,,,,,,,,,,,,,,,,,,,,,,,,
,,614ee4370d85f20de1b9548f,2022-09-08_19h03.52.677,CGTgamblingSpanTasks,2022.2.1,Win32,60.0240096,,,,,,,,,,,,,,,,,,,,,,,,,,,,,,,,,,,,,,,,,,,,,,,,,,,,,,,,,,,,,,,,,,,,,,,,,,,,,,,,,,"[3,7,5,4,9]",3,0,3,0,1,,,,,,,,,,,,,,,,,,,,,,,,,,,,,,,,,,,,,,,,,,,,,,,,
,,614ee4370d85f20de1b9548f,2022-09-08_19h03.52.677,CGTgamblingSpanTasks,2022.2.1,Win32,60.0240096,,,,,,,,,,,,,,,,,,,,,,,,,,,,,,,,,,,,,,,,,,,,,,,,,,,,,,,,,,,,,,,,,,,,,,,,,,,,,,,,,,"[3,7,5,4,9]",4,0,4,0,1,,,,,,,,,,,,,,,,,,,,,,,,,,,,,,,,,,,,,,,,,,,,,,,,
,,614ee4370d85f20de1b9548f,2022-09-08_19h03.52.677,CGTgamblingSpanTasks,2022.2.1,Win32,60.0240096,,,,,,,,,,,,,,,,,,,,,,,,,,,,,,,,,,,,,,,,,,,,,,,,,,,,,,,,,,,,,,,1,,,,,,,,,,,,,,,,,,,,,,,,,37549,-0.005354752,-0.410307898,1,0,0,cont_button,0,11,11,11,1,12,,,,,,,,,,,,,,,,,,,,,,,,,,,,,,,,,,,
,,614ee4370d85f20de1b9548f,2022-09-08_19h03.52.677,CGTgamblingSpanTasks,2022.2.1,Win32,60.0240096,,,,,,,,,,,,,,,,,,,,,,,,,,,,,,,,,,,,,,,,,,,,,,,,,,,,,,,,,,,,,,,,,,,,,,,,,,,,,,,,,,"[1,3,8,2,5,6]",0,0,0,0,1,,,,,,,,,,,,,,,,,,,,,,,,,,,,,,,,,,,,,,,,,,,,,,,,
,,614ee4370d85f20de1b9548f,2022-09-08_19h03.52.677,CGTgamblingSpanTasks,2022.2.1,Win32,60.0240096,,,,,,,,,,,,,,,,,,,,,,,,,,,,,,,,,,,,,,,,,,,,,,,,,,,,,,,,,,,,,,,,,,,,,,,,,,,,,,,,,,"[1,3,8,2,5,6]",1,0,1,0,1,,,,,,,,,,,,,,,,,,,,,,,,,,,,,,,,,,,,,,,,,,,,,,,,
,,614ee4370d85f20de1b9548f,2022-09-08_19h03.52.677,CGTgamblingSpanTasks,2022.2.1,Win32,60.0240096,,,,,,,,,,,,,,,,,,,,,,,,,,,,,,,,,,,,,,,,,,,,,,,,,,,,,,,,,,,,,,,,,,,,,,,,,,,,,,,,,,"[1,3,8,2,5,6]",2,0,2,0,1,,,,,,,,,,,,,,,,,,,,,,,,,,,,,,,,,,,,,,,,,,,,,,,,
,,614ee4370d85f20de1b9548f,2022-09-08_19h03.52.677,CGTgamblingSpanTasks,2022.2.1,Win32,60.0240096,,,,,,,,,,,,,,,,,,,,,,,,,,,,,,,,,,,,,,,,,,,,,,,,,,,,,,,,,,,,,,,,,,,,,,,,,,,,,,,,,,"[1,3,8,2,5,6]",3,0,3,0,1,,,,,,,,,,,,,,,,,,,,,,,,,,,,,,,,,,,,,,,,,,,,,,,,
,,614ee4370d85f20de1b9548f,2022-09-08_19h03.52.677,CGTgamblingSpanTasks,2022.2.1,Win32,60.0240096,,,,,,,,,,,,,,,,,,,,,,,,,,,,,,,,,,,,,,,,,,,,,,,,,,,,,,,,,,,,,,,,,,,,,,,,,,,,,,,,,,"[1,3,8,2,5,6]",4,0,4,0,1,,,,,,,,,,,,,,,,,,,,,,,,,,,,,,,,,,,,,,,,,,,,,,,,
,,614ee4370d85f20de1b9548f,2022-09-08_19h03.52.677,CGTgamblingSpanTasks,2022.2.1,Win32,60.0240096,,,,,,,,,,,,,,,,,,,,,,,,,,,,,,,,,,,,,,,,,,,,,,,,,,,,,,,,,,,,,,,,,,,,,,,,,,,,,,,,,,"[1,3,8,2,5,6]",5,0,5,0,1,,,,,,,,,,,,,,,,,,,,,,,,,,,,,,,,,,,,,,,,,,,,,,,,
,,614ee4370d85f20de1b9548f,2022-09-08_19h03.52.677,CGTgamblingSpanTasks,2022.2.1,Win32,60.0240096,,,,,,,,,,,,,,,,,,,,,,,,,,,,,,,,,,,,,,,,,,,,,,,,,,,,,,,,,,,,,,,1,,,,,,,,,,,,,,,,,,,,,,,,,138256,0.017402945,-0.396921017,1,0,0,cont_button,0,12,12,12,1,13,,,,,,,,,,,,,,,,,,,,,,,,,,,,,,,,,,,
,,614ee4370d85f20de1b9548f,2022-09-08_19h03.52.677,CGTgamblingSpanTasks,2022.2.1,Win32,60.0240096,,,,,,,,,,,,,,,,,,,,,,,,,,,,,,,,,,,,,,,,,,,,,,,,,,,,,,,,,,,,,,,,,,,,,,,,,,,,,,,,,,"[2,8,1,9,3,5,6]",0,0,0,0,1,,,,,,,,,,,,,,,,,,,,,,,,,,,,,,,,,,,,,,,,,,,,,,,,
,,614ee4370d85f20de1b9548f,2022-09-08_19h03.52.677,CGTgamblingSpanTasks,2022.2.1,Win32,60.0240096,,,,,,,,,,,,,,,,,,,,,,,,,,,,,,,,,,,,,,,,,,,,,,,,,,,,,,,,,,,,,,,,,,,,,,,,,,,,,,,,,,"[2,8,1,9,3,5,6]",1,0,1,0,1,,,,,,,,,,,,,,,,,,,,,,,,,,,,,,,,,,,,,,,,,,,,,,,,
,,614ee4370d85f20de1b9548f,2022-09-08_19h03.52.677,CGTgamblingSpanTasks,2022.2.1,Win32,60.0240096,,,,,,,,,,,,,,,,,,,,,,,,,,,,,,,,,,,,,,,,,,,,,,,,,,,,,,,,,,,,,,,,,,,,,,,,,,,,,,,,,,"[2,8,1,9,3,5,6]",2,0,2,0,1,,,,,,,,,,,,,,,,,,,,,,,,,,,,,,,,,,,,,,,,,,,,,,,,
,,614ee4370d85f20de1b9548f,2022-09-08_19h03.52.677,CGTgamblingSpanTasks,2022.2.1,Win32,60.0240096,,,,,,,,,,,,,,,,,,,,,,,,,,,,,,,,,,,,,,,,,,,,,,,,,,,,,,,,,,,,,,,,,,,,,,,,,,,,,,,,,,"[2,8,1,9,3,5,6]",3,0,3,0,1,,,,,,,,,,,,,,,,,,,,,,,,,,,,,,,,,,,,,,,,,,,,,,,,
,,614ee4370d85f20de1b9548f,2022-09-08_19h03.52.677,CGTgamblingSpanTasks,2022.2.1,Win32,60.0240096,,,,,,,,,,,,,,,,,,,,,,,,,,,,,,,,,,,,,,,,,,,,,,,,,,,,,,,,,,,,,,,,,,,,,,,,,,,,,,,,,,"[2,8,1,9,3,5,6]",4,0,4,0,1,,,,,,,,,,,,,,,,,,,,,,,,,,,,,,,,,,,,,,,,,,,,,,,,
,,614ee4370d85f20de1b9548f,2022-09-08_19h03.52.677,CGTgamblingSpanTasks,2022.2.1,Win32,60.0240096,,,,,,,,,,,,,,,,,,,,,,,,,,,,,,,,,,,,,,,,,,,,,,,,,,,,,,,,,,,,,,,,,,,,,,,,,,,,,,,,,,"[2,8,1,9,3,5,6]",5,0,5,0,1,,,,,,,,,,,,,,,,,,,,,,,,,,,,,,,,,,,,,,,,,,,,,,,,
,,614ee4370d85f20de1b9548f,2022-09-08_19h03.52.677,CGTgamblingSpanTasks,2022.2.1,Win32,60.0240096,,,,,,,,,,,,,,,,,,,,,,,,,,,,,,,,,,,,,,,,,,,,,,,,,,,,,,,,,,,,,,,,,,,,,,,,,,,,,,,,,,"[2,8,1,9,3,5,6]",6,0,6,0,1,,,,,,,,,,,,,,,,,,,,,,,,,,,,,,,,,,,,,,,,,,,,,,,,
,,614ee4370d85f20de1b9548f,2022-09-08_19h03.52.677,CGTgamblingSpanTasks,2022.2.1,Win32,60.0240096,,,,,,,,,,,,,,,,,,,,,,,,,,,,,,,,,,,,,,,,,,,,,,,,,,,,,,,,,,,,,,,1,,,,,,,,,,,,,,,,,,,,,,,,,2819356,0.052208835,-0.392904953,1,0,0,cont_button,0,13,13,13,1,14,,,,,,,,,,,,,,,,,,,,,,,,,,,,,,,,,,,
,,614ee4370d85f20de1b9548f,2022-09-08_19h03.52.677,CGTgamblingSpanTasks,2022.2.1,Win32,60.0240096,,,,,,,,,,,,,,,,,,,,,,,,,,,,,,,,,,,,,,,,,,,,,,,,,,,,,,,,,,,,,,,,,,,,,,,,,,,,,,,,,,,,,,,,,,,,,,,,,,,,,return,3.468,,,,,,,,,,,,,,,,,,,,,,,,,,,,,,,,,
,,614ee4370d85f20de1b9548f,2022-09-08_19h03.52.677,CGTgamblingSpanTasks,2022.2.1,Win32,60.0240096,,,,,,,,,,,,,,,,,,,,,,,,,,,,,,,,,,,,,,,,,,,,,,,,,,,,,,,,,,,,,,,,,,,,,,,,,,,,,,,,,,,,,,,,,,,,,,,,,,,,,,,return,13.418,,,,,,,,,,,,,,,,,,,,,,,,,,,,,,,
,,614ee4370d85f20de1b9548f,2022-09-08_19h03.52.677,CGTgamblingSpanTasks,2022.2.1,Win32,60.0240096,,,,,,,,,,,,,,,,,,,,,,,,,,,,,,,,,,,,,,,,,,,,,,,,,,,,,,,,,,,,,,,0,,,,,,,,,,,,3,342,24,2,42,,,,,,,,,,,,,,,,,,,,,,,,,,24,0.009370817,-0.386211513,1,0,0,cont_buttonPractice_2,0,0,0,0,1,,,,,,,,,,,,,,,,,,,
,,614ee4370d85f20de1b9548f,2022-09-08_19h03.52.677,CGTgamblingSpanTasks,2022.2.1,Win32,60.0240096,,,,,,,,,,,,,,,,,,,,,,,,,,,,,,,,,,,,,,,,,,,,,,,,,,,,,,,,,,,,,,,1,,,,,,,,,,,,3,937,73,2,37,,,,,,,,,,,,,,,,,,,,,,,,,,37,-0.046854083,-0.38085676,1,0,0,cont_buttonPractice_2,0,1,1,1,1,,,,,,,,,,,,,,,,,,,
,,614ee4370d85f20de1b9548f,2022-09-08_19h03.52.677,CGTgamblingSpanTasks,2022.2.1,Win32,60.0240096,,,,,,,,,,,,,,,,,,,,,,,,,,,,,,,,,,,,,,,,,,,,,,,,,,,,,,,,,,,,,,,,,,,,,,,,,,,,,,,,,,,,,,,,,,,,,,,,,,,,,,,,,,,,,,,,,,,,,return,3.688,,,,,,,,,,,,,,,,,
,,614ee4370d85f20de1b9548f,2022-09-08_19h03.52.677,CGTgamblingSpanTasks,2022.2.1,Win32,60.0240096,,,,,,,,,,,,,,,,,,,,,,,,,,,,,,,,,,,,,,,,,,,,,,,,,,,,,,,,,,,,,,,,,,,,,,,,,,,,,,,,,,"[3,5]",,,,,,,,,,,,,,,,,,,,,,,,,,,,,,,,,,,,,0,0,0,0,1,,,,,,,,,,,,
,,614ee4370d85f20de1b9548f,2022-09-08_19h03.52.677,CGTgamblingSpanTasks,2022.2.1,Win32,60.0240096,,,,,,,,,,,,,,,,,,,,,,,,,,,,,,,,,,,,,,,,,,,,,,,,,,,,,,,,,,,,,,,,,,,,,,,,,,,,,,,,,,"[3,5]",,,,,,,,,,,,,,,,,,,,,,,,,,,,,,,,,,,,,1,0,1,0,1,,,,,,,,,,,,
,,614ee4370d85f20de1b9548f,2022-09-08_19h03.52.677,CGTgamblingSpanTasks,2022.2.1,Win32,60.0240096,,,,,,,,,,,,,,,,,,,,,,,,,,,,,,,,,,,,,,,,,,,,,,,,,,,,,,,,,,,,,,,1,,,,,,,,,,,,,,,,,,,,,,,,,,,,,,,,,,,,,1,,,,,,,,,,,,,,,,,,,,,,,,53,0.080321285,-0.399598394,1,0,0,cont_buttonBS,0,0,0,0,1
,,614ee4370d85f20de1b9548f,2022-09-08_19h03.52.677,CGTgamblingSpanTasks,2022.2.1,Win32,60.0240096,,,,,,,,,,,,,,,,,,,,,,,,,,,,,,,,,,,,,,,,,,,,,,,,,,,,,,,,,,,,,,,,,,,,,,,,,,,,,,,,,,"[5,2,4]",,,,,,,,,,,,,,,,,,,,,,,,,,,,,,,,,,,,,0,0,0,0,1,,,,,,,,,,,,
,,614ee4370d85f20de1b9548f,2022-09-08_19h03.52.677,CGTgamblingSpanTasks,2022.2.1,Win32,60.0240096,,,,,,,,,,,,,,,,,,,,,,,,,,,,,,,,,,,,,,,,,,,,,,,,,,,,,,,,,,,,,,,,,,,,,,,,,,,,,,,,,,"[5,2,4]",,,,,,,,,,,,,,,,,,,,,,,,,,,,,,,,,,,,,1,0,1,0,1,,,,,,,,,,,,
,,614ee4370d85f20de1b9548f,2022-09-08_19h03.52.677,CGTgamblingSpanTasks,2022.2.1,Win32,60.0240096,,,,,,,,,,,,,,,,,,,,,,,,,,,,,,,,,,,,,,,,,,,,,,,,,,,,,,,,,,,,,,,,,,,,,,,,,,,,,,,,,,"[5,2,4]",,,,,,,,,,,,,,,,,,,,,,,,,,,,,,,,,,,,,2,0,2,0,1,,,,,,,,,,,,
,,614ee4370d85f20de1b9548f,2022-09-08_19h03.52.677,CGTgamblingSpanTasks,2022.2.1,Win32,60.0240096,,,,,,,,,,,,,,,,,,,,,,,,,,,,,,,,,,,,,,,,,,,,,,,,,,,,,,,,,,,,,,,1,,,,,,,,,,,,,,,,,,,,,,,,,,,,,,,,,,,,,2,,,,,,,,,,,,,,,,,,,,,,,,425,0.044176707,-0.384872825,1,0,0,cont_buttonBS,0,1,1,1,1
,,614ee4370d85f20de1b9548f,2022-09-08_19h03.52.677,CGTgamblingSpanTasks,2022.2.1,Win32,60.0240096,,,,,,,,,,,,,,,,,,,,,,,,,,,,,,,,,,,,,,,,,,,,,,,,,,,,,,,,,,,,,,,,,,,,,,,,,,,,,,,,,,"[6,9,2,5]",,,,,,,,,,,,,,,,,,,,,,,,,,,,,,,,,,,,,0,0,0,0,1,,,,,,,,,,,,
,,614ee4370d85f20de1b9548f,2022-09-08_19h03.52.677,CGTgamblingSpanTasks,2022.2.1,Win32,60.0240096,,,,,,,,,,,,,,,,,,,,,,,,,,,,,,,,,,,,,,,,,,,,,,,,,,,,,,,,,,,,,,,,,,,,,,,,,,,,,,,,,,"[6,9,2,5]",,,,,,,,,,,,,,,,,,,,,,,,,,,,,,,,,,,,,1,0,1,0,1,,,,,,,,,,,,
,,614ee4370d85f20de1b9548f,2022-09-08_19h03.52.677,CGTgamblingSpanTasks,2022.2.1,Win32,60.0240096,,,,,,,,,,,,,,,,,,,,,,,,,,,,,,,,,,,,,,,,,,,,,,,,,,,,,,,,,,,,,,,,,,,,,,,,,,,,,,,,,,"[6,9,2,5]",,,,,,,,,,,,,,,,,,,,,,,,,,,,,,,,,,,,,2,0,2,0,1,,,,,,,,,,,,
,,614ee4370d85f20de1b9548f,2022-09-08_19h03.52.677,CGTgamblingSpanTasks,2022.2.1,Win32,60.0240096,,,,,,,,,,,,,,,,,,,,,,,,,,,,,,,,,,,,,,,,,,,,,,,,,,,,,,,,,,,,,,,,,,,,,,,,,,,,,,,,,,"[6,9,2,5]",,,,,,,,,,,,,,,,,,,,,,,,,,,,,,,,,,,,,3,0,3,0,1,,,,,,,,,,,,
,,614ee4370d85f20de1b9548f,2022-09-08_19h03.52.677,CGTgamblingSpanTasks,2022.2.1,Win32,60.0240096,,,,,,,,,,,,,,,,,,,,,,,,,,,,,,,,,,,,,,,,,,,,,,,,,,,,,,,,,,,,,,,1,,,,,,,,,,,,,,,,,,,,,,,,,,,,,,,,,,,,,3,,,,,,,,,,,,,,,,,,,,,,,,5296,0.080321285,-0.388888889,1,0,0,cont_buttonBS,0,2,2,2,1
,,614ee4370d85f20de1b9548f,2022-09-08_19h03.52.677,CGTgamblingSpanTasks,2022.2.1,Win32,60.0240096,,,,,,,,,,,,,,,,,,,,,,,,,,,,,,,,,,,,,,,,,,,,,,,,,,,,,,,,,,,,,,,,,,,,,,,,,,,,,,,,,,"[8,9,7,4,3]",,,,,,,,,,,,,,,,,,,,,,,,,,,,,,,,,,,,,0,0,0,0,1,,,,,,,,,,,,
,,614ee4370d85f20de1b9548f,2022-09-08_19h03.52.677,CGTgamblingSpanTasks,2022.2.1,Win32,60.0240096,,,,,,,,,,,,,,,,,,,,,,,,,,,,,,,,,,,,,,,,,,,,,,,,,,,,,,,,,,,,,,,,,,,,,,,,,,,,,,,,,,"[8,9,7,4,3]",,,,,,,,,,,,,,,,,,,,,,,,,,,,,,,,,,,,,1,0,1,0,1,,,,,,,,,,,,
,,614ee4370d85f20de1b9548f,2022-09-08_19h03.52.677,CGTgamblingSpanTasks,2022.2.1,Win32,60.0240096,,,,,,,,,,,,,,,,,,,,,,,,,,,,,,,,,,,,,,,,,,,,,,,,,,,,,,,,,,,,,,,,,,,,,,,,,,,,,,,,,,"[8,9,7,4,3]",,,,,,,,,,,,,,,,,,,,,,,,,,,,,,,,,,,,,2,0,2,0,1,,,,,,,,,,,,
,,614ee4370d85f20de1b9548f,2022-09-08_19h03.52.677,CGTgamblingSpanTasks,2022.2.1,Win32,60.0240096,,,,,,,,,,,,,,,,,,,,,,,,,,,,,,,,,,,,,,,,,,,,,,,,,,,,,,,,,,,,,,,,,,,,,,,,,,,,,,,,,,"[8,9,7,4,3]",,,,,,,,,,,,,,,,,,,,,,,,,,,,,,,,,,,,,3,0,3,0,1,,,,,,,,,,,,
,,614ee4370d85f20de1b9548f,2022-09-08_19h03.52.677,CGTgamblingSpanTasks,2022.2.1,Win32,60.0240096,,,,,,,,,,,,,,,,,,,,,,,,,,,,,,,,,,,,,,,,,,,,,,,,,,,,,,,,,,,,,,,,,,,,,,,,,,,,,,,,,,"[8,9,7,4,3]",,,,,,,,,,,,,,,,,,,,,,,,,,,,,,,,,,,,,4,0,4,0,1,,,,,,,,,,,,
,,614ee4370d85f20de1b9548f,2022-09-08_19h03.52.677,CGTgamblingSpanTasks,2022.2.1,Win32,60.0240096,,,,,,,,,,,,,,,,,,,,,,,,,,,,,,,,,,,,,,,,,,,,,,,,,,,,,,,,,,,,,,,1,,,,,,,,,,,,,,,,,,,,,,,,,,,,,,,,,,,,,4,,,,,,,,,,,,,,,,,,,,,,,,34798,0.038821954,-0.40896921,1,0,0,cont_buttonBS,0,3,3,3,1
,,614ee4370d85f20de1b9548f,2022-09-08_19h03.52.677,CGTgamblingSpanTasks,2022.2.1,Win32,60.0240096,,,,,,,,,,,,,,,,,,,,,,,,,,,,,,,,,,,,,,,,,,,,,,,,,,,,,,,,,,,,,,,,,,,,,,,,,,,,,,,,,,"[9,2,4,3,6,7]",,,,,,,,,,,,,,,,,,,,,,,,,,,,,,,,,,,,,0,0,0,0,1,,,,,,,,,,,,
,,614ee4370d85f20de1b9548f,2022-09-08_19h03.52.677,CGTgamblingSpanTasks,2022.2.1,Win32,60.0240096,,,,,,,,,,,,,,,,,,,,,,,,,,,,,,,,,,,,,,,,,,,,,,,,,,,,,,,,,,,,,,,,,,,,,,,,,,,,,,,,,,"[9,2,4,3,6,7]",,,,,,,,,,,,,,,,,,,,,,,,,,,,,,,,,,,,,1,0,1,0,1,,,,,,,,,,,,
,,614ee4370d85f20de1b9548f,2022-09-08_19h03.52.677,CGTgamblingSpanTasks,2022.2.1,Win32,60.0240096,,,,,,,,,,,,,,,,,,,,,,,,,,,,,,,,,,,,,,,,,,,,,,,,,,,,,,,,,,,,,,,,,,,,,,,,,,,,,,,,,,"[9,2,4,3,6,7]",,,,,,,,,,,,,,,,,,,,,,,,,,,,,,,,,,,,,2,0,2,0,1,,,,,,,,,,,,
,,614ee4370d85f20de1b9548f,2022-09-08_19h03.52.677,CGTgamblingSpanTasks,2022.2.1,Win32,60.0240096,,,,,,,,,,,,,,,,,,,,,,,,,,,,,,,,,,,,,,,,,,,,,,,,,,,,,,,,,,,,,,,,,,,,,,,,,,,,,,,,,,"[9,2,4,3,6,7]",,,,,,,,,,,,,,,,,,,,,,,,,,,,,,,,,,,,,3,0,3,0,1,,,,,,,,,,,,
,,614ee4370d85f20de1b9548f,2022-09-08_19h03.52.677,CGTgamblingSpanTasks,2022.2.1,Win32,60.0240096,,,,,,,,,,,,,,,,,,,,,,,,,,,,,,,,,,,,,,,,,,,,,,,,,,,,,,,,,,,,,,,,,,,,,,,,,,,,,,,,,,"[9,2,4,3,6,7]",,,,,,,,,,,,,,,,,,,,,,,,,,,,,,,,,,,,,4,0,4,0,1,,,,,,,,,,,,
,,614ee4370d85f20de1b9548f,2022-09-08_19h03.52.677,CGTgamblingSpanTasks,2022.2.1,Win32,60.0240096,,,,,,,,,,,,,,,,,,,,,,,,,,,,,,,,,,,,,,,,,,,,,,,,,,,,,,,,,,,,,,,,,,,,,,,,,,,,,,,,,,"[9,2,4,3,6,7]",,,,,,,,,,,,,,,,,,,,,,,,,,,,,,,,,,,,,5,0,5,0,1,,,,,,,,,,,,
,,614ee4370d85f20de1b9548f,2022-09-08_19h03.52.677,CGTgamblingSpanTasks,2022.2.1,Win32,60.0240096,,,,,,,,,,,,,,,,,,,,,,,,,,,,,,,,,,,,,,,,,,,,,,,,,,,,,,,,,,,,,,,1,,,,,,,,,,,,,,,,,,,,,,,,,,,,,,,,,,,,,5,,,,,,,,,,,,,,,,,,,,,,,,763429,0.045515395,-0.414323963,1,0,0,cont_buttonBS,0,4,4,4,1
,,614ee4370d85f20de1b9548f,2022-09-08_19h03.52.677,CGTgamblingSpanTasks,2022.2.1,Win32,60.0240096,,,,,,,,,,,,,,,,,,,,,,,,,,,,,,,,,,,,,,,,,,,,,,,,,,,,,,,,,,,,,,,,,,,,,,,,,,,,,,,,,,"[7,5,9,8,6,2,1]",,,,,,,,,,,,,,,,,,,,,,,,,,,,,,,,,,,,,0,0,0,0,1,,,,,,,,,,,,
,,614ee4370d85f20de1b9548f,2022-09-08_19h03.52.677,CGTgamblingSpanTasks,2022.2.1,Win32,60.0240096,,,,,,,,,,,,,,,,,,,,,,,,,,,,,,,,,,,,,,,,,,,,,,,,,,,,,,,,,,,,,,,,,,,,,,,,,,,,,,,,,,"[7,5,9,8,6,2,1]",,,,,,,,,,,,,,,,,,,,,,,,,,,,,,,,,,,,,1,0,1,0,1,,,,,,,,,,,,
,,614ee4370d85f20de1b9548f,2022-09-08_19h03.52.677,CGTgamblingSpanTasks,2022.2.1,Win32,60.0240096,,,,,,,,,,,,,,,,,,,,,,,,,,,,,,,,,,,,,,,,,,,,,,,,,,,,,,,,,,,,,,,,,,,,,,,,,,,,,,,,,,"[7,5,9,8,6,2,1]",,,,,,,,,,,,,,,,,,,,,,,,,,,,,,,,,,,,,2,0,2,0,1,,,,,,,,,,,,
,,614ee4370d85f20de1b9548f,2022-09-08_19h03.52.677,CGTgamblingSpanTasks,2022.2.1,Win32,60.0240096,,,,,,,,,,,,,,,,,,,,,,,,,,,,,,,,,,,,,,,,,,,,,,,,,,,,,,,,,,,,,,,,,,,,,,,,,,,,,,,,,,"[7,5,9,8,6,2,1]",,,,,,,,,,,,,,,,,,,,,,,,,,,,,,,,,,,,,3,0,3,0,1,,,,,,,,,,,,
,,614ee4370d85f20de1b9548f,2022-09-08_19h03.52.677,CGTgamblingSpanTasks,2022.2.1,Win32,60.0240096,,,,,,,,,,,,,,,,,,,,,,,,,,,,,,,,,,,,,,,,,,,,,,,,,,,,,,,,,,,,,,,,,,,,,,,,,,,,,,,,,,"[7,5,9,8,6,2,1]",,,,,,,,,,,,,,,,,,,,,,,,,,,,,,,,,,,,,4,0,4,0,1,,,,,,,,,,,,
,,614ee4370d85f20de1b9548f,2022-09-08_19h03.52.677,CGTgamblingSpanTasks,2022.2.1,Win32,60.0240096,,,,,,,,,,,,,,,,,,,,,,,,,,,,,,,,,,,,,,,,,,,,,,,,,,,,,,,,,,,,,,,,,,,,,,,,,,,,,,,,,,"[7,5,9,8,6,2,1]",,,,,,,,,,,,,,,,,,,,,,,,,,,,,,,,,,,,,5,0,5,0,1,,,,,,,,,,,,
,,614ee4370d85f20de1b9548f,2022-09-08_19h03.52.677,CGTgamblingSpanTasks,2022.2.1,Win32,60.0240096,,,,,,,,,,,,,,,,,,,,,,,,,,,,,,,,,,,,,,,,,,,,,,,,,,,,,,,,,,,,,,,,,,,,,,,,,,,,,,,,,,"[7,5,9,8,6,2,1]",,,,,,,,,,,,,,,,,,,,,,,,,,,,,,,,,,,,,6,0,6,0,1,,,,,,,,,,,,
,,614ee4370d85f20de1b9548f,2022-09-08_19h03.52.677,CGTgamblingSpanTasks,2022.2.1,Win32,60.0240096,,,,,,,,,,,,,,,,,,,,,,,,,,,,,,,,,,,,,,,,,,,,,,,,,,,,,,,,,,,,,,,1,,,,,,,,,,,,,,,,,,,,,,,,,,,,,,,,,,,,,6,,,,,,,,,,,,,,,,,,,,,,,,1268957,0.020080321,-0.415662651,1,0,0,cont_buttonBS,0,5,5,5,1
,,614ee4370d85f20de1b9548f,2022-09-08_19h03.52.677,CGTgamblingSpanTasks,2022.2.1,Win32,60.0240096,,,,,,,,,,,,,,,,,,,,,,,,,,,,,,,,,,,,,,,,,,,,,,,,,,,,,,,,,,,,,,,,,,,,,,,,,,,,,,,,,,"[6,4,7,8,5,1,3,9]",,,,,,,,,,,,,,,,,,,,,,,,,,,,,,,,,,,,,0,0,0,0,1,,,,,,,,,,,,
,,614ee4370d85f20de1b9548f,2022-09-08_19h03.52.677,CGTgamblingSpanTasks,2022.2.1,Win32,60.0240096,,,,,,,,,,,,,,,,,,,,,,,,,,,,,,,,,,,,,,,,,,,,,,,,,,,,,,,,,,,,,,,,,,,,,,,,,,,,,,,,,,"[6,4,7,8,5,1,3,9]",,,,,,,,,,,,,,,,,,,,,,,,,,,,,,,,,,,,,1,0,1,0,1,,,,,,,,,,,,
,,614ee4370d85f20de1b9548f,2022-09-08_19h03.52.677,CGTgamblingSpanTasks,2022.2.1,Win32,60.0240096,,,,,,,,,,,,,,,,,,,,,,,,,,,,,,,,,,,,,,,,,,,,,,,,,,,,,,,,,,,,,,,,,,,,,,,,,,,,,,,,,,"[6,4,7,8,5,1,3,9]",,,,,,,,,,,,,,,,,,,,,,,,,,,,,,,,,,,,,2,0,2,0,1,,,,,,,,,,,,
,,614ee4370d85f20de1b9548f,2022-09-08_19h03.52.677,CGTgamblingSpanTasks,2022.2.1,Win32,60.0240096,,,,,,,,,,,,,,,,,,,,,,,,,,,,,,,,,,,,,,,,,,,,,,,,,,,,,,,,,,,,,,,,,,,,,,,,,,,,,,,,,,"[6,4,7,8,5,1,3,9]",,,,,,,,,,,,,,,,,,,,,,,,,,,,,,,,,,,,,3,0,3,0,1,,,,,,,,,,,,
,,614ee4370d85f20de1b9548f,2022-09-08_19h03.52.677,CGTgamblingSpanTasks,2022.2.1,Win32,60.0240096,,,,,,,,,,,,,,,,,,,,,,,,,,,,,,,,,,,,,,,,,,,,,,,,,,,,,,,,,,,,,,,,,,,,,,,,,,,,,,,,,,"[6,4,7,8,5,1,3,9]",,,,,,,,,,,,,,,,,,,,,,,,,,,,,,,,,,,,,4,0,4,0,1,,,,,,,,,,,,
,,614ee4370d85f20de1b9548f,2022-09-08_19h03.52.677,CGTgamblingSpanTasks,2022.2.1,Win32,60.0240096,,,,,,,,,,,,,,,,,,,,,,,,,,,,,,,,,,,,,,,,,,,,,,,,,,,,,,,,,,,,,,,,,,,,,,,,,,,,,,,,,,"[6,4,7,8,5,1,3,9]",,,,,,,,,,,,,,,,,,,,,,,,,,,,,,,,,,,,,5,0,5,0,1,,,,,,,,,,,,
,,614ee4370d85f20de1b9548f,2022-09-08_19h03.52.677,CGTgamblingSpanTasks,2022.2.1,Win32,60.0240096,,,,,,,,,,,,,,,,,,,,,,,,,,,,,,,,,,,,,,,,,,,,,,,,,,,,,,,,,,,,,,,,,,,,,,,,,,,,,,,,,,"[6,4,7,8,5,1,3,9]",,,,,,,,,,,,,,,,,,,,,,,,,,,,,,,,,,,,,6,0,6,0,1,,,,,,,,,,,,
,,614ee4370d85f20de1b9548f,2022-09-08_19h03.52.677,CGTgamblingSpanTasks,2022.2.1,Win32,60.0240096,,,,,,,,,,,,,,,,,,,,,,,,,,,,,,,,,,,,,,,,,,,,,,,,,,,,,,,,,,,,,,,,,,,,,,,,,,,,,,,,,,"[6,4,7,8,5,1,3,9]",,,,,,,,,,,,,,,,,,,,,,,,,,,,,,,,,,,,,7,0,7,0,1,,,,,,,,,,,,
,,614ee4370d85f20de1b9548f,2022-09-08_19h03.52.677,CGTgamblingSpanTasks,2022.2.1,Win32,60.0240096,,,,,,,,,,,,,,,,,,,,,,,,,,,,,,,,,,,,,,,,,,,,,,,,,,,,,,,,,,,,,,,1,,,,,,,,,,,,,,,,,,,,,,,,,,,,,,,,,,,,,7,,,,,,,,,,,,,,,,,,,,,,,,93158746,0.038821954,-0.417001339,1,0,0,cont_buttonBS,0,6,6,6,1
,,614ee4370d85f20de1b9548f,2022-09-08_19h03.52.677,CGTgamblingSpanTasks,2022.2.1,Win32,60.0240096,,,,,,,,,,,,,,,,,,,,,,,,,,,,,,,,,,,,,,,,,,,,,,,,,,,,,,,,,,,,,,,,,,,,,,,,,,,,,,,,,,"[5,3,1,9,4,6,8,2,7]",,,,,,,,,,,,,,,,,,,,,,,,,,,,,,,,,,,,,0,0,0,0,1,,,,,,,,,,,,
,,614ee4370d85f20de1b9548f,2022-09-08_19h03.52.677,CGTgamblingSpanTasks,2022.2.1,Win32,60.0240096,,,,,,,,,,,,,,,,,,,,,,,,,,,,,,,,,,,,,,,,,,,,,,,,,,,,,,,,,,,,,,,,,,,,,,,,,,,,,,,,,,"[5,3,1,9,4,6,8,2,7]",,,,,,,,,,,,,,,,,,,,,,,,,,,,,,,,,,,,,1,0,1,0,1,,,,,,,,,,,,
,,614ee4370d85f20de1b9548f,2022-09-08_19h03.52.677,CGTgamblingSpanTasks,2022.2.1,Win32,60.0240096,,,,,,,,,,,,,,,,,,,,,,,,,,,,,,,,,,,,,,,,,,,,,,,,,,,,,,,,,,,,,,,,,,,,,,,,,,,,,,,,,,"[5,3,1,9,4,6,8,2,7]",,,,,,,,,,,,,,,,,,,,,,,,,,,,,,,,,,,,,2,0,2,0,1,,,,,,,,,,,,
,,614ee4370d85f20de1b9548f,2022-09-08_19h03.52.677,CGTgamblingSpanTasks,2022.2.1,Win32,60.0240096,,,,,,,,,,,,,,,,,,,,,,,,,,,,,,,,,,,,,,,,,,,,,,,,,,,,,,,,,,,,,,,,,,,,,,,,,,,,,,,,,,"[5,3,1,9,4,6,8,2,7]",,,,,,,,,,,,,,,,,,,,,,,,,,,,,,,,,,,,,3,0,3,0,1,,,,,,,,,,,,
,,614ee4370d85f20de1b9548f,2022-09-08_19h03.52.677,CGTgamblingSpanTasks,2022.2.1,Win32,60.0240096,,,,,,,,,,,,,,,,,,,,,,,,,,,,,,,,,,,,,,,,,,,,,,,,,,,,,,,,,,,,,,,,,,,,,,,,,,,,,,,,,,"[5,3,1,9,4,6,8,2,7]",,,,,,,,,,,,,,,,,,,,,,,,,,,,,,,,,,,,,4,0,4,0,1,,,,,,,,,,,,
,,614ee4370d85f20de1b9548f,2022-09-08_19h03.52.677,CGTgamblingSpanTasks,2022.2.1,Win32,60.0240096,,,,,,,,,,,,,,,,,,,,,,,,,,,,,,,,,,,,,,,,,,,,,,,,,,,,,,,,,,,,,,,,,,,,,,,,,,,,,,,,,,"[5,3,1,9,4,6,8,2,7]",,,,,,,,,,,,,,,,,,,,,,,,,,,,,,,,,,,,,5,0,5,0,1,,,,,,,,,,,,
,,614ee4370d85f20de1b9548f,2022-09-08_19h03.52.677,CGTgamblingSpanTasks,2022.2.1,Win32,60.0240096,,,,,,,,,,,,,,,,,,,,,,,,,,,,,,,,,,,,,,,,,,,,,,,,,,,,,,,,,,,,,,,,,,,,,,,,,,,,,,,,,,"[5,3,1,9,4,6,8,2,7]",,,,,,,,,,,,,,,,,,,,,,,,,,,,,,,,,,,,,6,0,6,0,1,,,,,,,,,,,,
,,614ee4370d85f20de1b9548f,2022-09-08_19h03.52.677,CGTgamblingSpanTasks,2022.2.1,Win32,60.0240096,,,,,,,,,,,,,,,,,,,,,,,,,,,,,,,,,,,,,,,,,,,,,,,,,,,,,,,,,,,,,,,,,,,,,,,,,,,,,,,,,,"[5,3,1,9,4,6,8,2,7]",,,,,,,,,,,,,,,,,,,,,,,,,,,,,,,,,,,,,7,0,7,0,1,,,,,,,,,,,,
,,614ee4370d85f20de1b9548f,2022-09-08_19h03.52.677,CGTgamblingSpanTasks,2022.2.1,Win32,60.0240096,,,,,,,,,,,,,,,,,,,,,,,,,,,,,,,,,,,,,,,,,,,,,,,,,,,,,,,,,,,,,,,,,,,,,,,,,,,,,,,,,,"[5,3,1,9,4,6,8,2,7]",,,,,,,,,,,,,,,,,,,,,,,,,,,,,,,,,,,,,8,0,8,0,1,,,,,,,,,,,,
,,614ee4370d85f20de1b9548f,2022-09-08_19h03.52.677,CGTgamblingSpanTasks,2022.2.1,Win32,60.0240096,,,,,,,,,,,,,,,,,,,,,,,,,,,,,,,,,,,,,,,,,,,,,,,,,,,,,,,,,,,,,,,1,,,,,,,,,,,,,,,,,,,,,,,,,,,,,,,,,,,,,8,,,,,,,,,,,,,,,,,,,,,,,,728649135,0.03480589,-0.387550201,1,0,0,cont_buttonBS,0,7,7,7,1
,,614ee4370d85f20de1b9548f,2022-09-08_19h03.52.677,CGTgamblingSpanTasks,2022.2.1,Win32,60.0240096,,,,,,,,,,,,,,,,,,,,,,,,,,,,,,,,,,,,,,,,,,,,,,,,,,,,,,,,,,,,,,,,,,,,,,,,,,,,,,,,,,"[5,6,4,2,8,9,7,1,3,3]",,,,,,,,,,,,,,,,,,,,,,,,,,,,,,,,,,,,,0,0,0,0,1,,,,,,,,,,,,
,,614ee4370d85f20de1b9548f,2022-09-08_19h03.52.677,CGTgamblingSpanTasks,2022.2.1,Win32,60.0240096,,,,,,,,,,,,,,,,,,,,,,,,,,,,,,,,,,,,,,,,,,,,,,,,,,,,,,,,,,,,,,,,,,,,,,,,,,,,,,,,,,"[5,6,4,2,8,9,7,1,3,3]",,,,,,,,,,,,,,,,,,,,,,,,,,,,,,,,,,,,,1,0,1,0,1,,,,,,,,,,,,
,,614ee4370d85f20de1b9548f,2022-09-08_19h03.52.677,CGTgamblingSpanTasks,2022.2.1,Win32,60.0240096,,,,,,,,,,,,,,,,,,,,,,,,,,,,,,,,,,,,,,,,,,,,,,,,,,,,,,,,,,,,,,,,,,,,,,,,,,,,,,,,,,"[5,6,4,2,8,9,7,1,3,3]",,,,,,,,,,,,,,,,,,,,,,,,,,,,,,,,,,,,,2,0,2,0,1,,,,,,,,,,,,
,,614ee4370d85f20de1b9548f,2022-09-08_19h03.52.677,CGTgamblingSpanTasks,2022.2.1,Win32,60.0240096,,,,,,,,,,,,,,,,,,,,,,,,,,,,,,,,,,,,,,,,,,,,,,,,,,,,,,,,,,,,,,,,,,,,,,,,,,,,,,,,,,"[5,6,4,2,8,9,7,1,3,3]",,,,,,,,,,,,,,,,,,,,,,,,,,,,,,,,,,,,,3,0,3,0,1,,,,,,,,,,,,
,,614ee4370d85f20de1b9548f,2022-09-08_19h03.52.677,CGTgamblingSpanTasks,2022.2.1,Win32,60.0240096,,,,,,,,,,,,,,,,,,,,,,,,,,,,,,,,,,,,,,,,,,,,,,,,,,,,,,,,,,,,,,,,,,,,,,,,,,,,,,,,,,"[5,6,4,2,8,9,7,1,3,3]",,,,,,,,,,,,,,,,,,,,,,,,,,,,,,,,,,,,,4,0,4,0,1,,,,,,,,,,,,
,,614ee4370d85f20de1b9548f,2022-09-08_19h03.52.677,CGTgamblingSpanTasks,2022.2.1,Win32,60.0240096,,,,,,,,,,,,,,,,,,,,,,,,,,,,,,,,,,,,,,,,,,,,,,,,,,,,,,,,,,,,,,,,,,,,,,,,,,,,,,,,,,"[5,6,4,2,8,9,7,1,3,3]",,,,,,,,,,,,,,,,,,,,,,,,,,,,,,,,,,,,,5,0,5,0,1,,,,,,,,,,,,
,,614ee4370d85f20de1b9548f,2022-09-08_19h03.52.677,CGTgamblingSpanTasks,2022.2.1,Win32,60.0240096,,,,,,,,,,,,,,,,,,,,,,,,,,,,,,,,,,,,,,,,,,,,,,,,,,,,,,,,,,,,,,,,,,,,,,,,,,,,,,,,,,"[5,6,4,2,8,9,7,1,3,3]",,,,,,,,,,,,,,,,,,,,,,,,,,,,,,,,,,,,,6,0,6,0,1,,,,,,,,,,,,
,,614ee4370d85f20de1b9548f,2022-09-08_19h03.52.677,CGTgamblingSpanTasks,2022.2.1,Win32,60.0240096,,,,,,,,,,,,,,,,,,,,,,,,,,,,,,,,,,,,,,,,,,,,,,,,,,,,,,,,,,,,,,,,,,,,,,,,,,,,,,,,,,"[5,6,4,2,8,9,7,1,3,3]",,,,,,,,,,,,,,,,,,,,,,,,,,,,,,,,,,,,,7,0,7,0,1,,,,,,,,,,,,
,,614ee4370d85f20de1b9548f,2022-09-08_19h03.52.677,CGTgamblingSpanTasks,2022.2.1,Win32,60.0240096,,,,,,,,,,,,,,,,,,,,,,,,,,,,,,,,,,,,,,,,,,,,,,,,,,,,,,,,,,,,,,,,,,,,,,,,,,,,,,,,,,"[5,6,4,2,8,9,7,1,3,3]",,,,,,,,,,,,,,,,,,,,,,,,,,,,,,,,,,,,,8,0,8,0,1,,,,,,,,,,,,
,,614ee4370d85f20de1b9548f,2022-09-08_19h03.52.677,CGTgamblingSpanTasks,2022.2.1,Win32,60.0240096,,,,,,,,,,,,,,,,,,,,,,,,,,,,,,,,,,,,,,,,,,,,,,,,,,,,,,,,,,,,,,,,,,,,,,,,,,,,,,,,,,"[5,6,4,2,8,9,7,1,3,3]",,,,,,,,,,,,,,,,,,,,,,,,,,,,,,,,,,,,,9,0,9,0,1,,,,,,,,,,,,
,,614ee4370d85f20de1b9548f,2022-09-08_19h03.52.677,CGTgamblingSpanTasks,2022.2.1,Win32,60.0240096,,,,,,,,,,,,,,,,,,,,,,,,,,,,,,,,,,,,,,,,,,,,,,,,,,,,,,,,,,,,,,,1,,,,,,,,,,,,,,,,,,,,,,,,,,,,,,,,,,,,,9,,,,,,,,,,,,,,,,,,,,,,,,3317982465,0.021419009,-0.406291834,1,0,0,cont_buttonBS,0,8,8,8,1
,,614ee4370d85f20de1b9548f,2022-09-08_19h03.52.677,CGTgamblingSpanTasks,2022.2.1,Win32,60.0240096,,,,,,,,,,,,,,,,,,,,,,,,,,,,,,,,,,,,,,,,,,,,,,,,,,,,,,,,,,,,,,,,,,,,,,,,,,,,,,,,,,"[6,5,9,7,3,1,8,2,4,4,1]",,,,,,,,,,,,,,,,,,,,,,,,,,,,,,,,,,,,,0,0,0,0,1,,,,,,,,,,,,
,,614ee4370d85f20de1b9548f,2022-09-08_19h03.52.677,CGTgamblingSpanTasks,2022.2.1,Win32,60.0240096,,,,,,,,,,,,,,,,,,,,,,,,,,,,,,,,,,,,,,,,,,,,,,,,,,,,,,,,,,,,,,,,,,,,,,,,,,,,,,,,,,"[6,5,9,7,3,1,8,2,4,4,1]",,,,,,,,,,,,,,,,,,,,,,,,,,,,,,,,,,,,,1,0,1,0,1,,,,,,,,,,,,
,,614ee4370d85f20de1b9548f,2022-09-08_19h03.52.677,CGTgamblingSpanTasks,2022.2.1,Win32,60.0240096,,,,,,,,,,,,,,,,,,,,,,,,,,,,,,,,,,,,,,,,,,,,,,,,,,,,,,,,,,,,,,,,,,,,,,,,,,,,,,,,,,"[6,5,9,7,3,1,8,2,4,4,1]",,,,,,,,,,,,,,,,,,,,,,,,,,,,,,,,,,,,,2,0,2,0,1,,,,,,,,,,,,
,,614ee4370d85f20de1b9548f,2022-09-08_19h03.52.677,CGTgamblingSpanTasks,2022.2.1,Win32,60.0240096,,,,,,,,,,,,,,,,,,,,,,,,,,,,,,,,,,,,,,,,,,,,,,,,,,,,,,,,,,,,,,,,,,,,,,,,,,,,,,,,,,"[6,5,9,7,3,1,8,2,4,4,1]",,,,,,,,,,,,,,,,,,,,,,,,,,,,,,,,,,,,,3,0,3,0,1,,,,,,,,,,,,
,,614ee4370d85f20de1b9548f,2022-09-08_19h03.52.677,CGTgamblingSpanTasks,2022.2.1,Win32,60.0240096,,,,,,,,,,,,,,,,,,,,,,,,,,,,,,,,,,,,,,,,,,,,,,,,,,,,,,,,,,,,,,,,,,,,,,,,,,,,,,,,,,"[6,5,9,7,3,1,8,2,4,4,1]",,,,,,,,,,,,,,,,,,,,,,,,,,,,,,,,,,,,,4,0,4,0,1,,,,,,,,,,,,
,,614ee4370d85f20de1b9548f,2022-09-08_19h03.52.677,CGTgamblingSpanTasks,2022.2.1,Win32,60.0240096,,,,,,,,,,,,,,,,,,,,,,,,,,,,,,,,,,,,,,,,,,,,,,,,,,,,,,,,,,,,,,,,,,,,,,,,,,,,,,,,,,"[6,5,9,7,3,1,8,2,4,4,1]",,,,,,,,,,,,,,,,,,,,,,,,,,,,,,,,,,,,,5,0,5,0,1,,,,,,,,,,,,
,,614ee4370d85f20de1b9548f,2022-09-08_19h03.52.677,CGTgamblingSpanTasks,2022.2.1,Win32,60.0240096,,,,,,,,,,,,,,,,,,,,,,,,,,,,,,,,,,,,,,,,,,,,,,,,,,,,,,,,,,,,,,,,,,,,,,,,,,,,,,,,,,"[6,5,9,7,3,1,8,2,4,4,1]",,,,,,,,,,,,,,,,,,,,,,,,,,,,,,,,,,,,,6,0,6,0,1,,,,,,,,,,,,
,,614ee4370d85f20de1b9548f,2022-09-08_19h03.52.677,CGTgamblingSpanTasks,2022.2.1,Win32,60.0240096,,,,,,,,,,,,,,,,,,,,,,,,,,,,,,,,,,,,,,,,,,,,,,,,,,,,,,,,,,,,,,,,,,,,,,,,,,,,,,,,,,"[6,5,9,7,3,1,8,2,4,4,1]",,,,,,,,,,,,,,,,,,,,,,,,,,,,,,,,,,,,,7,0,7,0,1,,,,,,,,,,,,
,,614ee4370d85f20de1b9548f,2022-09-08_19h03.52.677,CGTgamblingSpanTasks,2022.2.1,Win32,60.0240096,,,,,,,,,,,,,,,,,,,,,,,,,,,,,,,,,,,,,,,,,,,,,,,,,,,,,,,,,,,,,,,,,,,,,,,,,,,,,,,,,,"[6,5,9,7,3,1,8,2,4,4,1]",,,,,,,,,,,,,,,,,,,,,,,,,,,,,,,,,,,,,8,0,8,0,1,,,,,,,,,,,,
,,614ee4370d85f20de1b9548f,2022-09-08_19h03.52.677,CGTgamblingSpanTasks,2022.2.1,Win32,60.0240096,,,,,,,,,,,,,,,,,,,,,,,,,,,,,,,,,,,,,,,,,,,,,,,,,,,,,,,,,,,,,,,,,,,,,,,,,,,,,,,,,,"[6,5,9,7,3,1,8,2,4,4,1]",,,,,,,,,,,,,,,,,,,,,,,,,,,,,,,,,,,,,9,0,9,0,1,,,,,,,,,,,,
,,614ee4370d85f20de1b9548f,2022-09-08_19h03.52.677,CGTgamblingSpanTasks,2022.2.1,Win32,60.0240096,,,,,,,,,,,,,,,,,,,,,,,,,,,,,,,,,,,,,,,,,,,,,,,,,,,,,,,,,,,,,,,,,,,,,,,,,,,,,,,,,,"[6,5,9,7,3,1,8,2,4,4,1]",,,,,,,,,,,,,,,,,,,,,,,,,,,,,,,,,,,,,10,0,10,0,1,,,,,,,,,,,,
,,614ee4370d85f20de1b9548f,2022-09-08_19h03.52.677,CGTgamblingSpanTasks,2022.2.1,Win32,60.0240096,,,,,,,,,,,,,,,,,,,,,,,,,,,,,,,,,,,,,,,,,,,,,,,,,,,,,,,,,,,,,,,1,,,,,,,,,,,,,,,,,,,,,,,,,,,,,,,,,,,,,10,,,,,,,,,,,,,,,,,,,,,,,,14428137956,-0.040160643,-0.399598394,1,0,0,cont_buttonBS,0,9,9,9,1
,,614ee4370d85f20de1b9548f,2022-09-08_19h03.52.677,CGTgamblingSpanTasks,2022.2.1,Win32,60.0240096,,,,,,,,,,,,,,,,,,,,,,,,,,,,,,,,,,,,,,,,,,,,,,,,,,,,,,,,,,,,,,,,,,,,,,,,,,,,,,,,,,"[3,7,4,5,2,9,1,8,6,6,2,7]",,,,,,,,,,,,,,,,,,,,,,,,,,,,,,,,,,,,,0,0,0,0,1,,,,,,,,,,,,
,,614ee4370d85f20de1b9548f,2022-09-08_19h03.52.677,CGTgamblingSpanTasks,2022.2.1,Win32,60.0240096,,,,,,,,,,,,,,,,,,,,,,,,,,,,,,,,,,,,,,,,,,,,,,,,,,,,,,,,,,,,,,,,,,,,,,,,,,,,,,,,,,"[3,7,4,5,2,9,1,8,6,6,2,7]",,,,,,,,,,,,,,,,,,,,,,,,,,,,,,,,,,,,,1,0,1,0,1,,,,,,,,,,,,
,,614ee4370d85f20de1b9548f,2022-09-08_19h03.52.677,CGTgamblingSpanTasks,2022.2.1,Win32,60.0240096,,,,,,,,,,,,,,,,,,,,,,,,,,,,,,,,,,,,,,,,,,,,,,,,,,,,,,,,,,,,,,,,,,,,,,,,,,,,,,,,,,"[3,7,4,5,2,9,1,8,6,6,2,7]",,,,,,,,,,,,,,,,,,,,,,,,,,,,,,,,,,,,,2,0,2,0,1,,,,,,,,,,,,
,,614ee4370d85f20de1b9548f,2022-09-08_19h03.52.677,CGTgamblingSpanTasks,2022.2.1,Win32,60.0240096,,,,,,,,,,,,,,,,,,,,,,,,,,,,,,,,,,,,,,,,,,,,,,,,,,,,,,,,,,,,,,,,,,,,,,,,,,,,,,,,,,"[3,7,4,5,2,9,1,8,6,6,2,7]",,,,,,,,,,,,,,,,,,,,,,,,,,,,,,,,,,,,,3,0,3,0,1,,,,,,,,,,,,
,,614ee4370d85f20de1b9548f,2022-09-08_19h03.52.677,CGTgamblingSpanTasks,2022.2.1,Win32,60.0240096,,,,,,,,,,,,,,,,,,,,,,,,,,,,,,,,,,,,,,,,,,,,,,,,,,,,,,,,,,,,,,,,,,,,,,,,,,,,,,,,,,"[3,7,4,5,2,9,1,8,6,6,2,7]",,,,,,,,,,,,,,,,,,,,,,,,,,,,,,,,,,,,,4,0,4,0,1,,,,,,,,,,,,
,,614ee4370d85f20de1b9548f,2022-09-08_19h03.52.677,CGTgamblingSpanTasks,2022.2.1,Win32,60.0240096,,,,,,,,,,,,,,,,,,,,,,,,,,,,,,,,,,,,,,,,,,,,,,,,,,,,,,,,,,,,,,,,,,,,,,,,,,,,,,,,,,"[3,7,4,5,2,9,1,8,6,6,2,7]",,,,,,,,,,,,,,,,,,,,,,,,,,,,,,,,,,,,,5,0,5,0,1,,,,,,,,,,,,
