initITIstatic,initITIdynamic,participant,date,expName,psychopyVersion,OS,frameRate,inst1.keys,inst1.rt,startPracResp.keys,startPracResp.rt,choice1.keys,choice1.rt,outcome,extraITI,trials.thisRepN,trials.thisTrialN,trials.thisN,trials.thisIndex,trials.ran,riskyGain,riskyLoss,alternative,isi,iti,loc,postPractResp.keys,postPractResp.rt,realloc,realChoice.keys,realChoice.rt,outcomes,choices,actualITI,init ITI,staticRDM.thisRepN,staticRDM.thisTrialN,staticRDM.thisN,staticRDM.thisIndex,staticRDM.ran,riskyoption1,riskyoption2,safeoption,ischecktrial,dynamicChoiceSetName,dynamicChoiceSetPath,bestRho,bestMu,trials_2.thisRepN,trials_2.thisTrialN,trials_2.thisN,trials_2.thisIndex,trials_2.ran,key_resp.keys,key_resp.rt,dynamicRDM.thisRepN,dynamicRDM.thisTrialN,dynamicRDM.thisN,dynamicRDM.thisIndex,dynamicRDM.ran,choiceP,easy0difficult1,stopBreak.keys,stopBreak.rt,movealong.keys,movealong.rt,startPractice.keys,startPractice.rt,textboxPractice.text,correct,mousePractice.x,mousePractice.y,mousePractice.leftButton,mousePractice.midButton,mousePractice.rightButton,mousePractice.clicked_name,trialFSPractice.thisRepN,trialFSPractice.thisTrialN,trialFSPractice.thisN,trialFSPractice.thisIndex,trialFSPractice.ran,digitSpanForward,digits,digitsReverse,digitSpanReverse,digitsReverseCorrAnswer,startFSreal.keys,startFSreal.rt,digitsForTrial,digitLoop.thisRepN,digitLoop.thisTrialN,digitLoop.thisN,digitLoop.thisIndex,digitLoop.ran,textbox.text,mouse_3.x,mouse_3.y,mouse_3.leftButton,mouse_3.midButton,mouse_3.rightButton,mouse_3.clicked_name,trialsFS.thisRepN,trialsFS.thisTrialN,trialsFS.thisN,trialsFS.thisIndex,trialsFS.ran,trialNumber,moveToBS.keys,moveToBS.rt,startBSprac.keys,startBSprac.rt,textboxPractice_2.text,mousePractice_2.x,mousePractice_2.y,mousePractice_2.leftButton,mousePractice_2.midButton,mousePractice_2.rightButton,mousePractice_2.clicked_name,trialsPracticeBS.thisRepN,trialsPracticeBS.thisTrialN,trialsPracticeBS.thisN,trialsPracticeBS.thisIndex,trialsPracticeBS.ran,startBSreal.keys,startBSreal.rt,digitLoopBS.thisRepN,digitLoopBS.thisTrialN,digitLoopBS.thisN,digitLoopBS.thisIndex,digitLoopBS.ran,textboxBS.text,mouseBS.x,mouseBS.y,mouseBS.leftButton,mouseBS.midButton,mouseBS.rightButton,mouseBS.clicked_name,trialsBS.thisRepN,trialsBS.thisTrialN,trialsBS.thisN,trialsBS.thisIndex,trialsBS.ran
"[1.5,1,1,1,1,1.5,1,1.5,1.5,1.5,1,1.5,1,1,1.5,1.5,1.5,1,1.5,1.5,1.5,1,1.5,1,1.5,1.5,1.5,1.5,1,1,1,1,1,1,1,1.5,1.5,1,1,1.5,1.5,1,1.5,1,1.5,1,1,1.5,1,1.5]","[1,1,1,1.5,1,1,1,1.5,1.5,1,1,1,1.5,1.5,1,1.5,1.5,1.5,1.5,1.5,1.5,1,1,1,1.5,1,1.5,1.5,1.5,1,1,1.5,1.5,1,1,1,1,1.5,1.5,1,1,1.5,1,1,1,1.5,1,1,1.5,1.5,1,1,1.5,1,1,1.5,1,1,1,1,1.5,1.5,1,1.5,1,1,1,1.5,1.5,1.5,1.5,1,1.5,1,1,1.5,1,1.5,1,1,1.5,1.5,1.5,1,1.5,1.5,1,1.5,1.5,1.5,1.5,1,1,1,1.5,1,1.5,1,1,1.5,1,1.5,1.5,1,1.5,1,1,1.5,1,1.5,1.5,1.5,1.5,1.5,1.5,1.5,1.5,1,1,1.5]",614aec96ea8423682133d903,2022-09-08_13h52.42.087,CGTgamblingSpanTasks,2022.2.1,MacIntel,59.97361161,,,,,,,,,,,,,,,,,,,,,,,,,,,,,,,,,,,,,,,,,,,,,,,,,,,,,,,,,,,,,,,,,,,,,,,,,,,,,,,,,,,,,,,,,,,,,,,,,,,,,,,,,,,,,,,,,,,,,,,,,,,,,,,,,,,,,,,
,,614aec96ea8423682133d903,2022-09-08_13h52.42.087,CGTgamblingSpanTasks,2022.2.1,MacIntel,59.97361161,return,2.7548,,,,,,,,,,,,,,,,,,,,,,,,,,,,,,,,,,,,,,,,,,,,,,,,,,,,,,,,,,,,,,,,,,,,,,,,,,,,,,,,,,,,,,,,,,,,,,,,,,,,,,,,,,,,,,,,,,,,,,,,,,,,,,,,,,,,,
,,614aec96ea8423682133d903,2022-09-08_13h52.42.087,CGTgamblingSpanTasks,2022.2.1,MacIntel,59.97361161,,,v,1.0001,,,,,,,,,,,,,,,,,,,,,,,,,,,,,,,,,,,,,,,,,,,,,,,,,,,,,,,,,,,,,,,,,,,,,,,,,,,,,,,,,,,,,,,,,,,,,,,,,,,,,,,,,,,,,,,,,,,,,,,,,,,,,,,,,,,
,,614aec96ea8423682133d903,2022-09-08_13h52.42.087,CGTgamblingSpanTasks,2022.2.1,MacIntel,59.97361161,,,,,n,1.6363,9.45,2.3637,0,0,0,0,1,18.23,0,9.45,2,1,1,,,,,,,,,,,,,,,,,,,,,,,,,,,,,,,,,,,,,,,,,,,,,,,,,,,,,,,,,,,,,,,,,,,,,,,,,,,,,,,,,,,,,,,,,,,,,,,,,,,,,,,,,,,,,,,,,,,,
,,614aec96ea8423682133d903,2022-09-08_13h52.42.087,CGTgamblingSpanTasks,2022.2.1,MacIntel,59.97361161,,,,,n,1.7663,35.16,2.2337,0,1,1,1,1,53.27,0,35.16,1,1.5,1,,,,,,,,,,,,,,,,,,,,,,,,,,,,,,,,,,,,,,,,,,,,,,,,,,,,,,,,,,,,,,,,,,,,,,,,,,,,,,,,,,,,,,,,,,,,,,,,,,,,,,,,,,,,,,,,,,,,
,,614aec96ea8423682133d903,2022-09-08_13h52.42.087,CGTgamblingSpanTasks,2022.2.1,MacIntel,59.97361161,,,,,n,2.6351,8.27,1.3649,0,2,2,2,1,8.27,0,1.15,1,1.5,2,,,,,,,,,,,,,,,,,,,,,,,,,,,,,,,,,,,,,,,,,,,,,,,,,,,,,,,,,,,,,,,,,,,,,,,,,,,,,,,,,,,,,,,,,,,,,,,,,,,,,,,,,,,,,,,,,,,,
,,614aec96ea8423682133d903,2022-09-08_13h52.42.087,CGTgamblingSpanTasks,2022.2.1,MacIntel,59.97361161,,,,,n,1.4501,40.41,2.5499,0,3,3,3,1,45.88,0,40.41,3,1,1,,,,,,,,,,,,,,,,,,,,,,,,,,,,,,,,,,,,,,,,,,,,,,,,,,,,,,,,,,,,,,,,,,,,,,,,,,,,,,,,,,,,,,,,,,,,,,,,,,,,,,,,,,,,,,,,,,,,
,,614aec96ea8423682133d903,2022-09-08_13h52.42.087,CGTgamblingSpanTasks,2022.2.1,MacIntel,59.97361161,,,,,v,2.8004,11.96,1.1996,0,4,4,4,1,21.56,0,11.96,1,1.5,2,,,,,,,,,,,,,,,,,,,,,,,,,,,,,,,,,,,,,,,,,,,,,,,,,,,,,,,,,,,,,,,,,,,,,,,,,,,,,,,,,,,,,,,,,,,,,,,,,,,,,,,,,,,,,,,,,,,,
,,614aec96ea8423682133d903,2022-09-08_13h52.42.087,CGTgamblingSpanTasks,2022.2.1,MacIntel,59.97361161,,,,,,,,,,,,,,,,,,,,v,2.6194,,,,,,,,,,,,,,,,,,,,,,,,,,,,,,,,,,,,,,,,,,,,,,,,,,,,,,,,,,,,,,,,,,,,,,,,,,,,,,,,,,,,,,,,,,,,,,,,,,,,,,,,,,,,,,,,,,
,,614aec96ea8423682133d903,2022-09-08_13h52.42.087,CGTgamblingSpanTasks,2022.2.1,MacIntel,59.97361161,,,,,,,,2.6803,,,,,,,,,,,,,,2,v,1.3197,6.88,0,4.1803,1.5,0,0,0,36,1,10.24,0,6.88,0,,,,,,,,,,,,,,,,,,,,,,,,,,,,,,,,,,,,,,,,,,,,,,,,,,,,,,,,,,,,,,,,,,,,,,,,,,,,,,,,,,,,,,,,,,,,,,,,,,
,,614aec96ea8423682133d903,2022-09-08_13h52.42.087,CGTgamblingSpanTasks,2022.2.1,MacIntel,59.97361161,,,,,,,,1.9146,,,,,,,,,,,,,,1,v,2.0854,15.47,1,2.9146,1,0,1,1,35,1,15.47,0,10.27,0,,,,,,,,,,,,,,,,,,,,,,,,,,,,,,,,,,,,,,,,,,,,,,,,,,,,,,,,,,,,,,,,,,,,,,,,,,,,,,,,,,,,,,,,,,,,,,,,,,
,,614aec96ea8423682133d903,2022-09-08_13h52.42.087,CGTgamblingSpanTasks,2022.2.1,MacIntel,59.97361161,,,,,,,,1.3633,,,,,,,,,,,,,,2,n,2.6367,20.53,1,2.3633,1,0,2,2,9,1,20.53,0,7.73,0,,,,,,,,,,,,,,,,,,,,,,,,,,,,,,,,,,,,,,,,,,,,,,,,,,,,,,,,,,,,,,,,,,,,,,,,,,,,,,,,,,,,,,,,,,,,,,,,,,
,,614aec96ea8423682133d903,2022-09-08_13h52.42.087,CGTgamblingSpanTasks,2022.2.1,MacIntel,59.97361161,,,,,,,,2.2164,,,,,,,,,,,,,,1,n,1.7836,10.46,0,3.2164,1,0,3,3,39,1,15.09,0,10.46,0,,,,,,,,,,,,,,,,,,,,,,,,,,,,,,,,,,,,,,,,,,,,,,,,,,,,,,,,,,,,,,,,,,,,,,,,,,,,,,,,,,,,,,,,,,,,,,,,,,
,,614aec96ea8423682133d903,2022-09-08_13h52.42.087,CGTgamblingSpanTasks,2022.2.1,MacIntel,59.97361161,,,,,,,,2.1642,,,,,,,,,,,,,,2,v,1.8358,5.82,0,3.1642,1,0,4,4,16,1,12.36,0,5.82,0,,,,,,,,,,,,,,,,,,,,,,,,,,,,,,,,,,,,,,,,,,,,,,,,,,,,,,,,,,,,,,,,,,,,,,,,,,,,,,,,,,,,,,,,,,,,,,,,,,
,,614aec96ea8423682133d903,2022-09-08_13h52.42.087,CGTgamblingSpanTasks,2022.2.1,MacIntel,59.97361161,,,,,,,,2.4805,,,,,,,,,,,,,,2,v,1.5195,9.5,0,3.9805,1.5,0,5,5,25,1,17,0,9.5,0,,,,,,,,,,,,,,,,,,,,,,,,,,,,,,,,,,,,,,,,,,,,,,,,,,,,,,,,,,,,,,,,,,,,,,,,,,,,,,,,,,,,,,,,,,,,,,,,,,
,,614aec96ea8423682133d903,2022-09-08_13h52.42.087,CGTgamblingSpanTasks,2022.2.1,MacIntel,59.97361161,,,,,,,,2.3146,,,,,,,,,,,,,,1,n,1.6854,8.61,0,3.3146,1,0,6,6,15,1,18.77,0,8.61,0,,,,,,,,,,,,,,,,,,,,,,,,,,,,,,,,,,,,,,,,,,,,,,,,,,,,,,,,,,,,,,,,,,,,,,,,,,,,,,,,,,,,,,,,,,,,,,,,,,
,,614aec96ea8423682133d903,2022-09-08_13h52.42.087,CGTgamblingSpanTasks,2022.2.1,MacIntel,59.97361161,,,,,,,,1.7291,,,,,,,,,,,,,,2,n,2.2709,12.08,1,3.2291,1.5,0,7,7,18,1,12.08,0,5.96,0,,,,,,,,,,,,,,,,,,,,,,,,,,,,,,,,,,,,,,,,,,,,,,,,,,,,,,,,,,,,,,,,,,,,,,,,,,,,,,,,,,,,,,,,,,,,,,,,,,
,,614aec96ea8423682133d903,2022-09-08_13h52.42.087,CGTgamblingSpanTasks,2022.2.1,MacIntel,59.97361161,,,,,,,,2.564,,,,,,,,,,,,,,1,n,1.436,9.2,0,4.064,1.5,0,8,8,21,1,17.59,0,9.2,0,,,,,,,,,,,,,,,,,,,,,,,,,,,,,,,,,,,,,,,,,,,,,,,,,,,,,,,,,,,,,,,,,,,,,,,,,,,,,,,,,,,,,,,,,,,,,,,,,,
,,614aec96ea8423682133d903,2022-09-08_13h52.42.087,CGTgamblingSpanTasks,2022.2.1,MacIntel,59.97361161,,,,,,,,2.3822,,,,,,,,,,,,,,1,n,1.6178,9.7,0,3.8822,1.5,0,9,9,27,1,16.6,0,9.7,0,,,,,,,,,,,,,,,,,,,,,,,,,,,,,,,,,,,,,,,,,,,,,,,,,,,,,,,,,,,,,,,,,,,,,,,,,,,,,,,,,,,,,,,,,,,,,,,,,,
,,614aec96ea8423682133d903,2022-09-08_13h52.42.087,CGTgamblingSpanTasks,2022.2.1,MacIntel,59.97361161,,,,,,,,2.6485,,,,,,,,,,,,,,1,n,1.3515,6.53,0,3.6485,1,0,10,10,28,1,10.95,0,6.53,0,,,,,,,,,,,,,,,,,,,,,,,,,,,,,,,,,,,,,,,,,,,,,,,,,,,,,,,,,,,,,,,,,,,,,,,,,,,,,,,,,,,,,,,,,,,,,,,,,,
,,614aec96ea8423682133d903,2022-09-08_13h52.42.087,CGTgamblingSpanTasks,2022.2.1,MacIntel,59.97361161,,,,,,,,2.4156,,,,,,,,,,,,,,2,v,1.5844,9.36,0,3.9156,1.5,0,11,11,23,1,17.28,0,9.36,0,,,,,,,,,,,,,,,,,,,,,,,,,,,,,,,,,,,,,,,,,,,,,,,,,,,,,,,,,,,,,,,,,,,,,,,,,,,,,,,,,,,,,,,,,,,,,,,,,,
,,614aec96ea8423682133d903,2022-09-08_13h52.42.087,CGTgamblingSpanTasks,2022.2.1,MacIntel,59.97361161,,,,,,,,1.8491,,,,,,,,,,,,,,1,v,2.1509,0,1,2.8491,1,0,12,12,26,1,11.2,0,6.4,0,,,,,,,,,,,,,,,,,,,,,,,,,,,,,,,,,,,,,,,,,,,,,,,,,,,,,,,,,,,,,,,,,,,,,,,,,,,,,,,,,,,,,,,,,,,,,,,,,,
,,614aec96ea8423682133d903,2022-09-08_13h52.42.087,CGTgamblingSpanTasks,2022.2.1,MacIntel,59.97361161,,,,,,,,1.9973,,,,,,,,,,,,,,2,n,2.0027,0,1,2.9973,1,0,13,13,6,1,14.72,0,4.64,0,,,,,,,,,,,,,,,,,,,,,,,,,,,,,,,,,,,,,,,,,,,,,,,,,,,,,,,,,,,,,,,,,,,,,,,,,,,,,,,,,,,,,,,,,,,,,,,,,,
,,614aec96ea8423682133d903,2022-09-08_13h52.42.087,CGTgamblingSpanTasks,2022.2.1,MacIntel,59.97361161,,,,,,,,2.0882,,,,,,,,,,,,,,1,v,1.9118,6.99,1,3.5882,1.5,0,14,14,43,1,16.11,6.99,6.99,1,,,,,,,,,,,,,,,,,,,,,,,,,,,,,,,,,,,,,,,,,,,,,,,,,,,,,,,,,,,,,,,,,,,,,,,,,,,,,,,,,,,,,,,,,,,,,,,,,,
,,614aec96ea8423682133d903,2022-09-08_13h52.42.087,CGTgamblingSpanTasks,2022.2.1,MacIntel,59.97361161,,,,,,,,1.9317,,,,,,,,,,,,,,1,n,2.0683,5.48,0,3.4317,1.5,0,15,15,12,1,13.04,0,5.48,0,,,,,,,,,,,,,,,,,,,,,,,,,,,,,,,,,,,,,,,,,,,,,,,,,,,,,,,,,,,,,,,,,,,,,,,,,,,,,,,,,,,,,,,,,,,,,,,,,,
,,614aec96ea8423682133d903,2022-09-08_13h52.42.087,CGTgamblingSpanTasks,2022.2.1,MacIntel,59.97361161,,,,,,,,2.0825,,,,,,,,,,,,,,2,v,1.9175,10.02,0,3.5825,1.5,0,16,16,31,1,15.96,0,10.02,0,,,,,,,,,,,,,,,,,,,,,,,,,,,,,,,,,,,,,,,,,,,,,,,,,,,,,,,,,,,,,,,,,,,,,,,,,,,,,,,,,,,,,,,,,,,,,,,,,,
,,614aec96ea8423682133d903,2022-09-08_13h52.42.087,CGTgamblingSpanTasks,2022.2.1,MacIntel,59.97361161,,,,,,,,2.2987,,,,,,,,,,,,,,2,v,1.7013,8.07,0,3.2987,1,0,17,17,11,1,19.86,0,8.07,0,,,,,,,,,,,,,,,,,,,,,,,,,,,,,,,,,,,,,,,,,,,,,,,,,,,,,,,,,,,,,,,,,,,,,,,,,,,,,,,,,,,,,,,,,,,,,,,,,,
,,614aec96ea8423682133d903,2022-09-08_13h52.42.087,CGTgamblingSpanTasks,2022.2.1,MacIntel,59.97361161,,,,,,,,2.3486,,,,,,,,,,,,,,2,v,1.6514,9.87,0,3.8486,1.5,0,18,18,29,1,16.26,0,9.87,0,,,,,,,,,,,,,,,,,,,,,,,,,,,,,,,,,,,,,,,,,,,,,,,,,,,,,,,,,,,,,,,,,,,,,,,,,,,,,,,,,,,,,,,,,,,,,,,,,,
,,614aec96ea8423682133d903,2022-09-08_13h52.42.087,CGTgamblingSpanTasks,2022.2.1,MacIntel,59.97361161,,,,,,,,2.4156,,,,,,,,,,,,,,1,n,1.5844,9.92,0,3.9156,1.5,0,19,19,49,1,6.79,0,9.92,1,,,,,,,,,,,,,,,,,,,,,,,,,,,,,,,,,,,,,,,,,,,,,,,,,,,,,,,,,,,,,,,,,,,,,,,,,,,,,,,,,,,,,,,,,,,,,,,,,,
,,614aec96ea8423682133d903,2022-09-08_13h52.42.087,CGTgamblingSpanTasks,2022.2.1,MacIntel,59.97361161,,,,,,,,2.1493,,,,,,,,,,,,,,2,v,1.8507,6.08,0,3.6493,1.5,0,20,20,20,1,11.84,0,6.08,0,,,,,,,,,,,,,,,,,,,,,,,,,,,,,,,,,,,,,,,,,,,,,,,,,,,,,,,,,,,,,,,,,,,,,,,,,,,,,,,,,,,,,,,,,,,,,,,,,,
,,614aec96ea8423682133d903,2022-09-08_13h52.42.087,CGTgamblingSpanTasks,2022.2.1,MacIntel,59.97361161,,,,,,,,1.8295,,,,,,,,,,,,,,1,v,2.1705,0,1,2.8295,1,0,21,21,8,1,13.94,0,5.03,0,,,,,,,,,,,,,,,,,,,,,,,,,,,,,,,,,,,,,,,,,,,,,,,,,,,,,,,,,,,,,,,,,,,,,,,,,,,,,,,,,,,,,,,,,,,,,,,,,,
,,614aec96ea8423682133d903,2022-09-08_13h52.42.087,CGTgamblingSpanTasks,2022.2.1,MacIntel,59.97361161,,,,,,,,2.8672,,,,,,,,,,,,,,1,n,1.1328,5.27,0,4.3672,1.5,0,22,22,10,1,13.45,0,5.27,0,,,,,,,,,,,,,,,,,,,,,,,,,,,,,,,,,,,,,,,,,,,,,,,,,,,,,,,,,,,,,,,,,,,,,,,,,,,,,,,,,,,,,,,,,,,,,,,,,,
,,614aec96ea8423682133d903,2022-09-08_13h52.42.087,CGTgamblingSpanTasks,2022.2.1,MacIntel,59.97361161,,,,,,,,1.9481,,,,,,,,,,,,,,1,n,2.0519,6.29,0,2.9481,1,0,23,23,24,1,11.43,0,6.29,0,,,,,,,,,,,,,,,,,,,,,,,,,,,,,,,,,,,,,,,,,,,,,,,,,,,,,,,,,,,,,,,,,,,,,,,,,,,,,,,,,,,,,,,,,,,,,,,,,,
,,614aec96ea8423682133d903,2022-09-08_13h52.42.087,CGTgamblingSpanTasks,2022.2.1,MacIntel,59.97361161,,,,,,,,2.8122,,,,,,,,,,,,,,1,n,1.1878,6.81,0,4.3122,1.5,0,24,24,34,1,10.39,0,6.81,0,,,,,,,,,,,,,,,,,,,,,,,,,,,,,,,,,,,,,,,,,,,,,,,,,,,,,,,,,,,,,,,,,,,,,,,,,,,,,,,,,,,,,,,,,,,,,,,,,,
,,614aec96ea8423682133d903,2022-09-08_13h52.42.087,CGTgamblingSpanTasks,2022.2.1,MacIntel,59.97361161,,,,,,,,1.8645,,,,,,,,,,,,,,1,n,2.1355,5.66,0,3.3645,1.5,0,25,25,14,1,12.68,0,5.66,0,,,,,,,,,,,,,,,,,,,,,,,,,,,,,,,,,,,,,,,,,,,,,,,,,,,,,,,,,,,,,,,,,,,,,,,,,,,,,,,,,,,,,,,,,,,,,,,,,,
,,614aec96ea8423682133d903,2022-09-08_13h52.42.087,CGTgamblingSpanTasks,2022.2.1,MacIntel,59.97361161,,,,,,,,2.7484,,,,,,,,,,,,,,1,v,1.2516,10.35,1,4.2484,1.5,0,26,26,40,1,10.35,0,0,1,,,,,,,,,,,,,,,,,,,,,,,,,,,,,,,,,,,,,,,,,,,,,,,,,,,,,,,,,,,,,,,,,,,,,,,,,,,,,,,,,,,,,,,,,,,,,,,,,,
,,614aec96ea8423682133d903,2022-09-08_13h52.42.087,CGTgamblingSpanTasks,2022.2.1,MacIntel,59.97361161,,,,,,,,2.3494,,,,,,,,,,,,,,1,n,1.6506,6.94,0,3.8494,1.5,0,27,27,38,1,10.12,0,6.94,0,,,,,,,,,,,,,,,,,,,,,,,,,,,,,,,,,,,,,,,,,,,,,,,,,,,,,,,,,,,,,,,,,,,,,,,,,,,,,,,,,,,,,,,,,,,,,,,,,,
,,614aec96ea8423682133d903,2022-09-08_13h52.42.087,CGTgamblingSpanTasks,2022.2.1,MacIntel,59.97361161,,,,,,,,2.0481,,,,,,,,,,,,,,2,n,1.9519,0,1,3.0481,1,0,28,28,2,1,17.73,0,3.13,0,,,,,,,,,,,,,,,,,,,,,,,,,,,,,,,,,,,,,,,,,,,,,,,,,,,,,,,,,,,,,,,,,,,,,,,,,,,,,,,,,,,,,,,,,,,,,,,,,,
,,614aec96ea8423682133d903,2022-09-08_13h52.42.087,CGTgamblingSpanTasks,2022.2.1,MacIntel,59.97361161,,,,,,,,2.9325,,,,,,,,,,,,,,1,n,1.0675,10.25,0,3.9325,1,0,29,29,46,1,0,0,10.25,1,,,,,,,,,,,,,,,,,,,,,,,,,,,,,,,,,,,,,,,,,,,,,,,,,,,,,,,,,,,,,,,,,,,,,,,,,,,,,,,,,,,,,,,,,,,,,,,,,,
,,614aec96ea8423682133d903,2022-09-08_13h52.42.087,CGTgamblingSpanTasks,2022.2.1,MacIntel,59.97361161,,,,,,,,2.667,,,,,,,,,,,,,,2,v,1.333,10.68,0,3.667,1,0,30,30,48,1,10.68,0,10.68,1,,,,,,,,,,,,,,,,,,,,,,,,,,,,,,,,,,,,,,,,,,,,,,,,,,,,,,,,,,,,,,,,,,,,,,,,,,,,,,,,,,,,,,,,,,,,,,,,,,
,,614aec96ea8423682133d903,2022-09-08_13h52.42.087,CGTgamblingSpanTasks,2022.2.1,MacIntel,59.97361161,,,,,,,,2.2148,,,,,,,,,,,,,,2,v,1.7852,6.73,0,3.2148,1,0,31,31,32,1,10.55,0,6.73,0,,,,,,,,,,,,,,,,,,,,,,,,,,,,,,,,,,,,,,,,,,,,,,,,,,,,,,,,,,,,,,,,,,,,,,,,,,,,,,,,,,,,,,,,,,,,,,,,,,
,,614aec96ea8423682133d903,2022-09-08_13h52.42.087,CGTgamblingSpanTasks,2022.2.1,MacIntel,59.97361161,,,,,,,,2.0163,,,,,,,,,,,,,,2,v,1.9837,8.84,0,3.0163,1,0,32,32,17,1,18.33,0,8.84,0,,,,,,,,,,,,,,,,,,,,,,,,,,,,,,,,,,,,,,,,,,,,,,,,,,,,,,,,,,,,,,,,,,,,,,,,,,,,,,,,,,,,,,,,,,,,,,,,,,
,,614aec96ea8423682133d903,2022-09-08_13h52.42.087,CGTgamblingSpanTasks,2022.2.1,MacIntel,59.97361161,,,,,,,,2.2504,,,,,,,,,,,,,,1,n,1.7496,10.37,0,3.2504,1,0,33,33,37,1,15.27,0,10.37,0,,,,,,,,,,,,,,,,,,,,,,,,,,,,,,,,,,,,,,,,,,,,,,,,,,,,,,,,,,,,,,,,,,,,,,,,,,,,,,,,,,,,,,,,,,,,,,,,,,
,,614aec96ea8423682133d903,2022-09-08_13h52.42.087,CGTgamblingSpanTasks,2022.2.1,MacIntel,59.97361161,,,,,,,,2.9989,,,,,,,,,,,,,,2,n,1.0011,19.86,1,3.9989,1,0,34,34,42,1,19.86,0,0,1,,,,,,,,,,,,,,,,,,,,,,,,,,,,,,,,,,,,,,,,,,,,,,,,,,,,,,,,,,,,,,,,,,,,,,,,,,,,,,,,,,,,,,,,,,,,,,,,,,
,,614aec96ea8423682133d903,2022-09-08_13h52.42.087,CGTgamblingSpanTasks,2022.2.1,MacIntel,59.97361161,,,,,,,,2.6345,,,,,,,,,,,,,,2,n,1.3655,7.73,1,4.1345,1.5,0,35,35,44,1,13.1,7.73,4.68,1,,,,,,,,,,,,,,,,,,,,,,,,,,,,,,,,,,,,,,,,,,,,,,,,,,,,,,,,,,,,,,,,,,,,,,,,,,,,,,,,,,,,,,,,,,,,,,,,,,
,,614aec96ea8423682133d903,2022-09-08_13h52.42.087,CGTgamblingSpanTasks,2022.2.1,MacIntel,59.97361161,,,,,,,,2.6638,,,,,,,,,,,,,,1,n,1.3362,10.15,0,4.1638,1.5,0,36,36,33,1,15.7,0,10.15,0,,,,,,,,,,,,,,,,,,,,,,,,,,,,,,,,,,,,,,,,,,,,,,,,,,,,,,,,,,,,,,,,,,,,,,,,,,,,,,,,,,,,,,,,,,,,,,,,,,
,,614aec96ea8423682133d903,2022-09-08_13h52.42.087,CGTgamblingSpanTasks,2022.2.1,MacIntel,59.97361161,,,,,,,,2.7833,,,,,,,,,,,,,,1,v,1.2167,14.26,1,3.7833,1,0,37,37,41,1,14.26,0,0,1,,,,,,,,,,,,,,,,,,,,,,,,,,,,,,,,,,,,,,,,,,,,,,,,,,,,,,,,,,,,,,,,,,,,,,,,,,,,,,,,,,,,,,,,,,,,,,,,,,
,,614aec96ea8423682133d903,2022-09-08_13h52.42.087,CGTgamblingSpanTasks,2022.2.1,MacIntel,59.97361161,,,,,,,,2.0855,,,,,,,,,,,,,,1,v,1.9145,0,1,3.0855,1,0,38,38,3,1,25.2,0,5.4,0,,,,,,,,,,,,,,,,,,,,,,,,,,,,,,,,,,,,,,,,,,,,,,,,,,,,,,,,,,,,,,,,,,,,,,,,,,,,,,,,,,,,,,,,,,,,,,,,,,
,,614aec96ea8423682133d903,2022-09-08_13h52.42.087,CGTgamblingSpanTasks,2022.2.1,MacIntel,59.97361161,,,,,,,,2.6154,,,,,,,,,,,,,,2,n,1.3846,20.03,1,4.1154,1.5,0,39,39,0,1,20.03,0,1.99,0,,,,,,,,,,,,,,,,,,,,,,,,,,,,,,,,,,,,,,,,,,,,,,,,,,,,,,,,,,,,,,,,,,,,,,,,,,,,,,,,,,,,,,,,,,,,,,,,,,
,,614aec96ea8423682133d903,2022-09-08_13h52.42.087,CGTgamblingSpanTasks,2022.2.1,MacIntel,59.97361161,,,,,,,,2.1975,,,,,,,,,,,,,,1,n,1.8025,4,0,3.6975,1.5,0,40,40,4,1,16,0,4,0,,,,,,,,,,,,,,,,,,,,,,,,,,,,,,,,,,,,,,,,,,,,,,,,,,,,,,,,,,,,,,,,,,,,,,,,,,,,,,,,,,,,,,,,,,,,,,,,,,
,,614aec96ea8423682133d903,2022-09-08_13h52.42.087,CGTgamblingSpanTasks,2022.2.1,MacIntel,59.97361161,,,,,,,,2.4165,,,,,,,,,,,,,,1,v,1.5835,28.21,1,3.4165,1,0,41,41,1,1,28.21,0,3.89,0,,,,,,,,,,,,,,,,,,,,,,,,,,,,,,,,,,,,,,,,,,,,,,,,,,,,,,,,,,,,,,,,,,,,,,,,,,,,,,,,,,,,,,,,,,,,,,,,,,
,,614aec96ea8423682133d903,2022-09-08_13h52.42.087,CGTgamblingSpanTasks,2022.2.1,MacIntel,59.97361161,,,,,,,,1.7941,,,,,,,,,,,,,,2,n,2.2059,0,1,3.2941,1.5,0,42,42,5,1,22.97,0,6.51,0,,,,,,,,,,,,,,,,,,,,,,,,,,,,,,,,,,,,,,,,,,,,,,,,,,,,,,,,,,,,,,,,,,,,,,,,,,,,,,,,,,,,,,,,,,,,,,,,,,
,,614aec96ea8423682133d903,2022-09-08_13h52.42.087,CGTgamblingSpanTasks,2022.2.1,MacIntel,59.97361161,,,,,,,,3.1169,,,,,,,,,,,,,,1,n,0.8831,3.13,0,4.1169,1,0,43,43,47,1,0,0,3.13,1,,,,,,,,,,,,,,,,,,,,,,,,,,,,,,,,,,,,,,,,,,,,,,,,,,,,,,,,,,,,,,,,,,,,,,,,,,,,,,,,,,,,,,,,,,,,,,,,,,
,,614aec96ea8423682133d903,2022-09-08_13h52.42.087,CGTgamblingSpanTasks,2022.2.1,MacIntel,59.97361161,,,,,,,,2.4447,,,,,,,,,,,,,,1,n,1.5553,9.03,0,3.9447,1.5,0,44,44,19,1,17.94,0,9.03,0,,,,,,,,,,,,,,,,,,,,,,,,,,,,,,,,,,,,,,,,,,,,,,,,,,,,,,,,,,,,,,,,,,,,,,,,,,,,,,,,,,,,,,,,,,,,,,,,,,
,,614aec96ea8423682133d903,2022-09-08_13h52.42.087,CGTgamblingSpanTasks,2022.2.1,MacIntel,59.97361161,,,,,,,,3.2483,,,,,,,,,,,,,,1,n,0.7517,7.55,0,4.2483,1,0,45,45,45,1,0,0,7.55,1,,,,,,,,,,,,,,,,,,,,,,,,,,,,,,,,,,,,,,,,,,,,,,,,,,,,,,,,,,,,,,,,,,,,,,,,,,,,,,,,,,,,,,,,,,,,,,,,,,
,,614aec96ea8423682133d903,2022-09-08_13h52.42.087,CGTgamblingSpanTasks,2022.2.1,MacIntel,59.97361161,,,,,,,,2.6317,,,,,,,,,,,,,,1,n,1.3683,8.36,0,3.6317,1,0,46,46,13,1,19.28,0,8.36,0,,,,,,,,,,,,,,,,,,,,,,,,,,,,,,,,,,,,,,,,,,,,,,,,,,,,,,,,,,,,,,,,,,,,,,,,,,,,,,,,,,,,,,,,,,,,,,,,,,
,,614aec96ea8423682133d903,2022-09-08_13h52.42.087,CGTgamblingSpanTasks,2022.2.1,MacIntel,59.97361161,,,,,,,,2.3677,,,,,,,,,,,,,,2,v,1.6323,6.63,0,3.8677,1.5,0,47,47,30,1,10.73,0,6.63,0,,,,,,,,,,,,,,,,,,,,,,,,,,,,,,,,,,,,,,,,,,,,,,,,,,,,,,,,,,,,,,,,,,,,,,,,,,,,,,,,,,,,,,,,,,,,,,,,,,
,,614aec96ea8423682133d903,2022-09-08_13h52.42.087,CGTgamblingSpanTasks,2022.2.1,MacIntel,59.97361161,,,,,,,,2.5417,,,,,,,,,,,,,,1,v,1.4583,21.32,1,3.5417,1,0,48,48,7,1,21.32,0,7.34,0,,,,,,,,,,,,,,,,,,,,,,,,,,,,,,,,,,,,,,,,,,,,,,,,,,,,,,,,,,,,,,,,,,,,,,,,,,,,,,,,,,,,,,,,,,,,,,,,,,
,,614aec96ea8423682133d903,2022-09-08_13h52.42.087,CGTgamblingSpanTasks,2022.2.1,MacIntel,59.97361161,,,,,,,,2.6305,,,,,,,,,,,,,,1,n,1.3695,6.19,0,4.1305,1.5,0,49,49,22,1,11.62,0,6.19,0,,,,,,,,,,,,,,,,,,,,,,,,,,,,,,,,,,,,,,,,,,,,,,,,,,,,,,,,,,,,,,,,,,,,,,,,,,,,,,,,,,,,,,,,,,,,,,,,,,
,,614aec96ea8423682133d903,2022-09-08_13h52.42.087,CGTgamblingSpanTasks,2022.2.1,MacIntel,59.97361161,,,,,,,,,,,,,,,,,,,,,,,,,,,,,,,,,,,,,,bespoke_choiceset_rhoInd041_muInd035.csv,bespoke_choicesets/bespoke_choiceset_rhoInd041_muInd035.csv,41,35,0,0,0,0,1,,,,,,,,,,,,,,,,,,,,,,,,,,,,,,,,,,,,,,,,,,,,,,,,,,,,,,,,,,,,,,,,,,,,,,,,,,,,,,,,,,,,,,,,,
,,614aec96ea8423682133d903,2022-09-08_13h52.42.087,CGTgamblingSpanTasks,2022.2.1,MacIntel,59.97361161,,,,,,,,,,,,,,,,,,,,,,,,,,,,,,,,,,,,,,,,,,,,,,,,,,,,,,,,,,,,,,,,,,,,,,,,,,,,,,,,,,,,,,,,,,,,,,,,,,,,,,,,,,,,,,,,,,,,,,,,,,,,,,,,,,,,,,,
,,614aec96ea8423682133d903,2022-09-08_13h52.42.087,CGTgamblingSpanTasks,2022.2.1,MacIntel,59.97361161,,,,,,,,,,,,,,,,,,,,,,,,,,,,,,,,,,,,,,,,,,,,,,,v,343.8057,,,,,,,,,,,,,,,,,,,,,,,,,,,,,,,,,,,,,,,,,,,,,,,,,,,,,,,,,,,,,,,,,,,,,,,,,,,,,,,,,,,,,,,
,,614aec96ea8423682133d903,2022-09-08_13h52.42.087,CGTgamblingSpanTasks,2022.2.1,MacIntel,59.97361161,,,,,,,,2.4087,,,,,,,,,,,,,,1,n,1.5913,6.833409611,0,3.4087,1,,,,,,6.325091157,0,6.833409611,,,,,,,,,,,,,0,0,0,58,1,0.027113638,0,,,,,,,,,,,,,,,,,,,,,,,,,,,,,,,,,,,,,,,,,,,,,,,,,,,,,,,,,,,,,,,,,,,,,,,,,,,,,,,,
,,614aec96ea8423682133d903,2022-09-08_13h52.42.087,CGTgamblingSpanTasks,2022.2.1,MacIntel,59.97361161,,,,,,,,2.6172,,,,,,,,,,,,,,2,n,1.3828,0,1,3.6172,1,,,,,,23.4214135,0,2.485985001,,,,,,,,,,,,,0,1,1,81,1,0.482105905,1,,,,,,,,,,,,,,,,,,,,,,,,,,,,,,,,,,,,,,,,,,,,,,,,,,,,,,,,,,,,,,,,,,,,,,,,,,,,,,,,
,,614aec96ea8423682133d903,2022-09-08_13h52.42.087,CGTgamblingSpanTasks,2022.2.1,MacIntel,59.97361161,,,,,,,,2.7809,,,,,,,,,,,,,,2,n,1.2191,26.4985979,1,3.7809,1,,,,,,26.4985979,0,0.051324376,,,,,,,,,,,,,0,2,2,106,1,0.918747215,0,,,,,,,,,,,,,,,,,,,,,,,,,,,,,,,,,,,,,,,,,,,,,,,,,,,,,,,,,,,,,,,,,,,,,,,,,,,,,,,,
,,614aec96ea8423682133d903,2022-09-08_13h52.42.087,CGTgamblingSpanTasks,2022.2.1,MacIntel,59.97361161,,,,,,,,2.3653,,,,,,,,,,,,,,1,v,1.6347,19.36415485,1,3.8653,1.5,,,,,,19.36415485,0,1.966229494,,,,,,,,,,,,,0,3,3,96,1,0.493893111,1,,,,,,,,,,,,,,,,,,,,,,,,,,,,,,,,,,,,,,,,,,,,,,,,,,,,,,,,,,,,,,,,,,,,,,,,,,,,,,,,
,,614aec96ea8423682133d903,2022-09-08_13h52.42.087,CGTgamblingSpanTasks,2022.2.1,MacIntel,59.97361161,,,,,,,,2.7829,,,,,,,,,,,,,,1,v,1.2171,21.7711579,1,3.7829,1,,,,,,21.7711579,0,2.502728921,,,,,,,,,,,,,0,4,4,101,1,0.460552621,1,,,,,,,,,,,,,,,,,,,,,,,,,,,,,,,,,,,,,,,,,,,,,,,,,,,,,,,,,,,,,,,,,,,,,,,,,,,,,,,,
,,614aec96ea8423682133d903,2022-09-08_13h52.42.087,CGTgamblingSpanTasks,2022.2.1,MacIntel,59.97361161,,,,,,,,2.6834,,,,,,,,,,,,,,2,v,1.3166,10.31611309,0,3.6834,1,,,,,,19.30622782,0,10.31611309,,,,,,,,,,,,,0,5,5,1,1,0.091105656,0,,,,,,,,,,,,,,,,,,,,,,,,,,,,,,,,,,,,,,,,,,,,,,,,,,,,,,,,,,,,,,,,,,,,,,,,,,,,,,,,
,,614aec96ea8423682133d903,2022-09-08_13h52.42.087,CGTgamblingSpanTasks,2022.2.1,MacIntel,59.97361161,,,,,,,,3.0805,,,,,,,,,,,,,,2,n,0.9195,27.39221343,1,4.0805,1,,,,,,27.39221343,0,2.743407746,,,,,,,,,,,,,0,6,6,47,1,0.49752044,1,,,,,,,,,,,,,,,,,,,,,,,,,,,,,,,,,,,,,,,,,,,,,,,,,,,,,,,,,,,,,,,,,,,,,,,,,,,,,,,,
,,614aec96ea8423682133d903,2022-09-08_13h52.42.087,CGTgamblingSpanTasks,2022.2.1,MacIntel,59.97361161,,,,,,,,2.798,,,,,,,,,,,,,,1,v,1.202,0,1,4.298,1.5,,,,,,28.33977875,0,2.768313633,,,,,,,,,,,,,0,7,7,116,1,0.50406901,1,,,,,,,,,,,,,,,,,,,,,,,,,,,,,,,,,,,,,,,,,,,,,,,,,,,,,,,,,,,,,,,,,,,,,,,,,,,,,,,,
,,614aec96ea8423682133d903,2022-09-08_13h52.42.087,CGTgamblingSpanTasks,2022.2.1,MacIntel,59.97361161,,,,,,,,2.9187,,,,,,,,,,,,,,1,v,1.0813,0,1,4.4187,1.5,,,,,,24.57684014,0,0.061756244,,,,,,,,,,,,,0,8,8,68,1,0.911988903,0,,,,,,,,,,,,,,,,,,,,,,,,,,,,,,,,,,,,,,,,,,,,,,,,,,,,,,,,,,,,,,,,,,,,,,,,,,,,,,,,
,,614aec96ea8423682133d903,2022-09-08_13h52.42.087,CGTgamblingSpanTasks,2022.2.1,MacIntel,59.97361161,,,,,,,,2.9294,,,,,,,,,,,,,,2,n,1.0706,21.2188881,1,3.9294,1,,,,,,21.2188881,0,2.067660742,,,,,,,,,,,,,0,9,9,107,1,0.50470775,1,,,,,,,,,,,,,,,,,,,,,,,,,,,,,,,,,,,,,,,,,,,,,,,,,,,,,,,,,,,,,,,,,,,,,,,,,,,,,,,,
,,614aec96ea8423682133d903,2022-09-08_13h52.42.087,CGTgamblingSpanTasks,2022.2.1,MacIntel,59.97361161,,,,,,,,2.5981,,,,,,,,,,,,,,2,v,1.4019,8.653432553,0,3.5981,1,,,,,,15.13999312,0,8.653432553,,,,,,,,,,,,,0,10,10,54,1,0.081767484,0,,,,,,,,,,,,,,,,,,,,,,,,,,,,,,,,,,,,,,,,,,,,,,,,,,,,,,,,,,,,,,,,,,,,,,,,,,,,,,,,
,,614aec96ea8423682133d903,2022-09-08_13h52.42.087,CGTgamblingSpanTasks,2022.2.1,MacIntel,59.97361161,,,,,,,,2.6518,,,,,,,,,,,,,,2,n,1.3482,19.5450126,1,3.6518,1,,,,,,19.5450126,0,2.123581464,,,,,,,,,,,,,0,11,11,65,1,0.475836144,1,,,,,,,,,,,,,,,,,,,,,,,,,,,,,,,,,,,,,,,,,,,,,,,,,,,,,,,,,,,,,,,,,,,,,,,,,,,,,,,,
,,614aec96ea8423682133d903,2022-09-08_13h52.42.087,CGTgamblingSpanTasks,2022.2.1,MacIntel,59.97361161,,,,,,,,2.883,,,,,,,,,,,,,,1,n,1.117,7.50753835,0,4.383,1.5,,,,,,2.231316635,0,7.50753835,,,,,,,,,,,,,0,12,12,29,1,0.010273427,0,,,,,,,,,,,,,,,,,,,,,,,,,,,,,,,,,,,,,,,,,,,,,,,,,,,,,,,,,,,,,,,,,,,,,,,,,,,,,,,,
,,614aec96ea8423682133d903,2022-09-08_13h52.42.087,CGTgamblingSpanTasks,2022.2.1,MacIntel,59.97361161,,,,,,,,2.7467,,,,,,,,,,,,,,1,v,1.2533,14.3363647,1,4.2467,1.5,,,,,,14.3363647,0,1.396635362,,,,,,,,,,,,,0,13,13,78,1,0.504775474,1,,,,,,,,,,,,,,,,,,,,,,,,,,,,,,,,,,,,,,,,,,,,,,,,,,,,,,,,,,,,,,,,,,,,,,,,,,,,,,,,
,,614aec96ea8423682133d903,2022-09-08_13h52.42.087,CGTgamblingSpanTasks,2022.2.1,MacIntel,59.97361161,,,,,,,,2.7663,,,,,,,,,,,,,,2,n,1.2337,0,1,3.7663,1,,,,,,29.30724159,0,3.247012935,,,,,,,,,,,,,0,14,14,71,1,0.470571125,1,,,,,,,,,,,,,,,,,,,,,,,,,,,,,,,,,,,,,,,,,,,,,,,,,,,,,,,,,,,,,,,,,,,,,,,,,,,,,,,,
,,614aec96ea8423682133d903,2022-09-08_13h52.42.087,CGTgamblingSpanTasks,2022.2.1,MacIntel,59.97361161,,,,,,,,2.8975,,,,,,,,,,,,,,1,v,1.1025,20.5726842,1,4.3975,1.5,,,,,,20.5726842,0,0.073558523,,,,,,,,,,,,,0,15,15,26,1,0.901008565,0,,,,,,,,,,,,,,,,,,,,,,,,,,,,,,,,,,,,,,,,,,,,,,,,,,,,,,,,,,,,,,,,,,,,,,,,,,,,,,,,
,,614aec96ea8423682133d903,2022-09-08_13h52.42.087,CGTgamblingSpanTasks,2022.2.1,MacIntel,59.97361161,,,,,,,,2.917,,,,,,,,,,,,,,1,v,1.083,21.16780451,1,4.417,1.5,,,,,,21.16780451,0,2.469465385,,,,,,,,,,,,,0,16,16,32,1,0.456531699,1,,,,,,,,,,,,,,,,,,,,,,,,,,,,,,,,,,,,,,,,,,,,,,,,,,,,,,,,,,,,,,,,,,,,,,,,,,,,,,,,
,,614aec96ea8423682133d903,2022-09-08_13h52.42.087,CGTgamblingSpanTasks,2022.2.1,MacIntel,59.97361161,,,,,,,,2.9818,,,,,,,,,,,,,,1,n,1.0182,8.42547829,0,4.4818,1.5,,,,,,15.87668502,0,8.42547829,,,,,,,,,,,,,0,17,17,56,1,0.092099462,0,,,,,,,,,,,,,,,,,,,,,,,,,,,,,,,,,,,,,,,,,,,,,,,,,,,,,,,,,,,,,,,,,,,,,,,,,,,,,,,,
,,614aec96ea8423682133d903,2022-09-08_13h52.42.087,CGTgamblingSpanTasks,2022.2.1,MacIntel,59.97361161,,,,,,,,2.9159,,,,,,,,,,,,,,1,n,1.0841,6.781500919,0,4.4159,1.5,,,,,,8.363821911,0,6.781500919,,,,,,,,,,,,,0,18,18,61,1,0.044227959,0,,,,,,,,,,,,,,,,,,,,,,,,,,,,,,,,,,,,,,,,,,,,,,,,,,,,,,,,,,,,,,,,,,,,,,,,,,,,,,,,
,,614aec96ea8423682133d903,2022-09-08_13h52.42.087,CGTgamblingSpanTasks,2022.2.1,MacIntel,59.97361161,,,,,,,,2.3969,,,,,,,,,,,,,,1,v,1.6031,0,1,3.8969,1.5,,,,,,27.53810185,0,0.097022401,,,,,,,,,,,,,0,19,19,50,1,0.901515865,0,,,,,,,,,,,,,,,,,,,,,,,,,,,,,,,,,,,,,,,,,,,,,,,,,,,,,,,,,,,,,,,,,,,,,,,,,,,,,,,,
,,614aec96ea8423682133d903,2022-09-08_13h52.42.087,CGTgamblingSpanTasks,2022.2.1,MacIntel,59.97361161,,,,,,,,2.6825,,,,,,,,,,,,,,1,v,1.3175,0,1,4.1825,1.5,,,,,,22.72923833,0,0.067170781,,,,,,,,,,,,,0,20,20,86,1,0.907226703,0,,,,,,,,,,,,,,,,,,,,,,,,,,,,,,,,,,,,,,,,,,,,,,,,,,,,,,,,,,,,,,,,,,,,,,,,,,,,,,,,
,,614aec96ea8423682133d903,2022-09-08_13h52.42.087,CGTgamblingSpanTasks,2022.2.1,MacIntel,59.97361161,,,,,,,,2.5884,,,,,,,,,,,,,,2,n,1.4116,11.08143071,1,3.5884,1,,,,,,11.08143071,0,1.207538756,,,,,,,,,,,,,0,21,21,84,1,0.475047453,1,,,,,,,,,,,,,,,,,,,,,,,,,,,,,,,,,,,,,,,,,,,,,,,,,,,,,,,,,,,,,,,,,,,,,,,,,,,,,,,,
,,614aec96ea8423682133d903,2022-09-08_13h52.42.087,CGTgamblingSpanTasks,2022.2.1,MacIntel,59.97361161,,,,,,,,2.892,,,,,,,,,,,,,,2,n,1.108,0,1,3.892,1,,,,,,21.03408097,0,2.208275162,,,,,,,,,,,,,0,22,22,0,1,0.485031246,1,,,,,,,,,,,,,,,,,,,,,,,,,,,,,,,,,,,,,,,,,,,,,,,,,,,,,,,,,,,,,,,,,,,,,,,,,,,,,,,,
,,614aec96ea8423682133d903,2022-09-08_13h52.42.087,CGTgamblingSpanTasks,2022.2.1,MacIntel,59.97361161,,,,,,,,2.7646,,,,,,,,,,,,,,1,v,1.2354,19.3050342,1,3.7646,1,,,,,,19.3050342,0,2.030232342,,,,,,,,,,,,,0,23,23,73,1,0.484573227,1,,,,,,,,,,,,,,,,,,,,,,,,,,,,,,,,,,,,,,,,,,,,,,,,,,,,,,,,,,,,,,,,,,,,,,,,,,,,,,,,
,,614aec96ea8423682133d903,2022-09-08_13h52.42.087,CGTgamblingSpanTasks,2022.2.1,MacIntel,59.97361161,,,,,,,,2.3981,,,,,,,,,,,,,,1,n,1.6019,5.526483034,0,3.8981,1.5,,,,,,9.725876653,0,5.526483034,,,,,,,,,,,,,0,24,24,44,1,0.082550696,0,,,,,,,,,,,,,,,,,,,,,,,,,,,,,,,,,,,,,,,,,,,,,,,,,,,,,,,,,,,,,,,,,,,,,,,,,,,,,,,,
,,614aec96ea8423682133d903,2022-09-08_13h52.42.087,CGTgamblingSpanTasks,2022.2.1,MacIntel,59.97361161,,,,,,,,2.4601,,,,,,,,,,,,,,1,v,1.5399,0,1,3.4601,1,,,,,,23.24777057,0,2.003482335,,,,,,,,,,,,,0,25,25,59,1,0.536135174,1,,,,,,,,,,,,,,,,,,,,,,,,,,,,,,,,,,,,,,,,,,,,,,,,,,,,,,,,,,,,,,,,,,,,,,,,,,,,,,,,
,,614aec96ea8423682133d903,2022-09-08_13h52.42.087,CGTgamblingSpanTasks,2022.2.1,MacIntel,59.97361161,,,,,,,,1.8822,,,,,,,,,,,,,,2,n,2.1178,21.00799273,1,3.3822,1.5,,,,,,21.00799273,0,0.067969053,,,,,,,,,,,,,0,26,26,92,1,0.904360262,0,,,,,,,,,,,,,,,,,,,,,,,,,,,,,,,,,,,,,,,,,,,,,,,,,,,,,,,,,,,,,,,,,,,,,,,,,,,,,,,,
,,614aec96ea8423682133d903,2022-09-08_13h52.42.087,CGTgamblingSpanTasks,2022.2.1,MacIntel,59.97361161,,,,,,,,2.5484,,,,,,,,,,,,,,2,n,1.4516,28.18900855,1,4.0484,1.5,,,,,,28.18900855,0,0.05384276,,,,,,,,,,,,,0,27,27,55,1,0.919081308,0,,,,,,,,,,,,,,,,,,,,,,,,,,,,,,,,,,,,,,,,,,,,,,,,,,,,,,,,,,,,,,,,,,,,,,,,,,,,,,,,
,,614aec96ea8423682133d903,2022-09-08_13h52.42.087,CGTgamblingSpanTasks,2022.2.1,MacIntel,59.97361161,,,,,,,,2.7666,,,,,,,,,,,,,,2,n,1.2334,0,1,4.2666,1.5,,,,,,28.9381277,0,2.663622024,,,,,,,,,,,,,0,28,28,103,1,0.519453367,1,,,,,,,,,,,,,,,,,,,,,,,,,,,,,,,,,,,,,,,,,,,,,,,,,,,,,,,,,,,,,,,,,,,,,,,,,,,,,,,,
,,614aec96ea8423682133d903,2022-09-08_13h52.42.087,CGTgamblingSpanTasks,2022.2.1,MacIntel,59.97361161,,,,,,,,1.8822,,,,,,,,,,,,,,1,v,2.1178,7.066129113,1,2.8822,1,,,,,,7.066129113,0,0.585581699,,,,,,,,,,,,,0,29,29,19,1,0.545860632,1,,,,,,,,,,,,,,,,,,,,,,,,,,,,,,,,,,,,,,,,,,,,,,,,,,,,,,,,,,,,,,,,,,,,,,,,,,,,,,,,
,,614aec96ea8423682133d903,2022-09-08_13h52.42.087,CGTgamblingSpanTasks,2022.2.1,MacIntel,59.97361161,,,,,,,,2.6256,,,,,,,,,,,,,,1,v,1.3744,27.88092897,1,3.6256,1,,,,,,27.88092897,0,2.771762788,,,,,,,,,,,,,0,30,30,117,1,0.499466648,1,,,,,,,,,,,,,,,,,,,,,,,,,,,,,,,,,,,,,,,,,,,,,,,,,,,,,,,,,,,,,,,,,,,,,,,,,,,,,,,,
,,614aec96ea8423682133d903,2022-09-08_13h52.42.087,CGTgamblingSpanTasks,2022.2.1,MacIntel,59.97361161,,,,,,,,2.547,,,,,,,,,,,,,,1,v,1.453,0,1,4.047,1.5,,,,,,29.76099779,0,0.095763086,,,,,,,,,,,,,0,31,31,35,1,0.904537896,0,,,,,,,,,,,,,,,,,,,,,,,,,,,,,,,,,,,,,,,,,,,,,,,,,,,,,,,,,,,,,,,,,,,,,,,,,,,,,,,,
,,614aec96ea8423682133d903,2022-09-08_13h52.42.087,CGTgamblingSpanTasks,2022.2.1,MacIntel,59.97361161,,,,,,,,2.5468,,,,,,,,,,,,,,1,v,1.4532,18.16238569,1,4.0468,1.5,,,,,,18.16238569,0,1.540604093,,,,,,,,,,,,,0,32,32,34,1,0.540092491,1,,,,,,,,,,,,,,,,,,,,,,,,,,,,,,,,,,,,,,,,,,,,,,,,,,,,,,,,,,,,,,,,,,,,,,,,,,,,,,,,
,,614aec96ea8423682133d903,2022-09-08_13h52.42.087,CGTgamblingSpanTasks,2022.2.1,MacIntel,59.97361161,,,,,,,,2.1814,,,,,,,,,,,,,,2,n,1.8186,0,1,3.1814,1,,,,,,17.4320197,0,1.448620949,,,,,,,,,,,,,0,33,33,30,1,0.545178213,1,,,,,,,,,,,,,,,,,,,,,,,,,,,,,,,,,,,,,,,,,,,,,,,,,,,,,,,,,,,,,,,,,,,,,,,,,,,,,,,,
,,614aec96ea8423682133d903,2022-09-08_13h52.42.087,CGTgamblingSpanTasks,2022.2.1,MacIntel,59.97361161,,,,,,,,2.798,,,,,,,,,,,,,,2,n,1.202,25.54604005,1,3.798,1,,,,,,25.54604005,0,0.088845411,,,,,,,,,,,,,0,34,34,79,1,0.901957831,0,,,,,,,,,,,,,,,,,,,,,,,,,,,,,,,,,,,,,,,,,,,,,,,,,,,,,,,,,,,,,,,,,,,,,,,,,,,,,,,,
,,614aec96ea8423682133d903,2022-09-08_13h52.42.087,CGTgamblingSpanTasks,2022.2.1,MacIntel,59.97361161,,,,,,,,2.8164,,,,,,,,,,,,,,1,v,1.1836,0,1,3.8164,1,,,,,,26.11188619,0,0.081942421,,,,,,,,,,,,,0,35,35,105,1,0.905343856,0,,,,,,,,,,,,,,,,,,,,,,,,,,,,,,,,,,,,,,,,,,,,,,,,,,,,,,,,,,,,,,,,,,,,,,,,,,,,,,,,
,,614aec96ea8423682133d903,2022-09-08_13h52.42.087,CGTgamblingSpanTasks,2022.2.1,MacIntel,59.97361161,,,,,,,,2.6145,,,,,,,,,,,,,,1,v,1.3855,17.92584289,1,3.6145,1,,,,,,17.92584289,0,1.878232496,,,,,,,,,,,,,0,36,36,5,1,0.485559263,1,,,,,,,,,,,,,,,,,,,,,,,,,,,,,,,,,,,,,,,,,,,,,,,,,,,,,,,,,,,,,,,,,,,,,,,,,,,,,,,,
,,614aec96ea8423682133d903,2022-09-08_13h52.42.087,CGTgamblingSpanTasks,2022.2.1,MacIntel,59.97361161,,,,,,,,2.822,,,,,,,,,,,,,,2,n,1.178,0,1,4.322,1.5,,,,,,27.2532142,0,0.08089327,,,,,,,,,,,,,0,37,37,119,1,0.907091845,0,,,,,,,,,,,,,,,,,,,,,,,,,,,,,,,,,,,,,,,,,,,,,,,,,,,,,,,,,,,,,,,,,,,,,,,,,,,,,,,,
,,614aec96ea8423682133d903,2022-09-08_13h52.42.087,CGTgamblingSpanTasks,2022.2.1,MacIntel,59.97361161,,,,,,,,2.3666,,,,,,,,,,,,,,2,v,1.6334,10.41201161,0,3.8666,1.5,,,,,,6.307062696,0,10.41201161,,,,,,,,,,,,,0,38,38,23,1,0.018187109,0,,,,,,,,,,,,,,,,,,,,,,,,,,,,,,,,,,,,,,,,,,,,,,,,,,,,,,,,,,,,,,,,,,,,,,,,,,,,,,,,
,,614aec96ea8423682133d903,2022-09-08_13h52.42.087,CGTgamblingSpanTasks,2022.2.1,MacIntel,59.97361161,,,,,,,,2.4319,,,,,,,,,,,,,,2,n,1.5681,0,1,3.4319,1,,,,,,8.217594828,0,0.951019374,,,,,,,,,,,,,0,39,39,87,1,0.458722936,1,,,,,,,,,,,,,,,,,,,,,,,,,,,,,,,,,,,,,,,,,,,,,,,,,,,,,,,,,,,,,,,,,,,,,,,,,,,,,,,,
,,614aec96ea8423682133d903,2022-09-08_13h52.42.087,CGTgamblingSpanTasks,2022.2.1,MacIntel,59.97361161,,,,,,,,2.3992,,,,,,,,,,,,,,1,n,1.6008,4.251676631,0,3.3992,1,,,,,,3.395192929,0,4.251676631,,,,,,,,,,,,,0,40,40,7,1,0.023467153,0,,,,,,,,,,,,,,,,,,,,,,,,,,,,,,,,,,,,,,,,,,,,,,,,,,,,,,,,,,,,,,,,,,,,,,,,,,,,,,,,
,,614aec96ea8423682133d903,2022-09-08_13h52.42.087,CGTgamblingSpanTasks,2022.2.1,MacIntel,59.97361161,,,,,,,,2.4979,,,,,,,,,,,,,,2,n,1.5021,25.21882231,1,3.9979,1.5,,,,,,25.21882231,0,0.085746782,,,,,,,,,,,,,0,41,41,64,1,0.90272076,0,,,,,,,,,,,,,,,,,,,,,,,,,,,,,,,,,,,,,,,,,,,,,,,,,,,,,,,,,,,,,,,,,,,,,,,,,,,,,,,,
,,614aec96ea8423682133d903,2022-09-08_13h52.42.087,CGTgamblingSpanTasks,2022.2.1,MacIntel,59.97361161,,,,,,,,2.5334,,,,,,,,,,,,,,1,v,1.4666,26.36733703,1,3.5334,1,,,,,,26.36733703,0,2.201057101,,,,,,,,,,,,,0,42,42,90,1,0.544064207,1,,,,,,,,,,,,,,,,,,,,,,,,,,,,,,,,,,,,,,,,,,,,,,,,,,,,,,,,,,,,,,,,,,,,,,,,,,,,,,,,
,,614aec96ea8423682133d903,2022-09-08_13h52.42.087,CGTgamblingSpanTasks,2022.2.1,MacIntel,59.97361161,,,,,,,,2.7025,,,,,,,,,,,,,,1,v,1.2975,0,1,3.7025,1,,,,,,27.7711693,0,2.320849632,,,,,,,,,,,,,0,43,43,94,1,0.543786368,1,,,,,,,,,,,,,,,,,,,,,,,,,,,,,,,,,,,,,,,,,,,,,,,,,,,,,,,,,,,,,,,,,,,,,,,,,,,,,,,,
,,614aec96ea8423682133d903,2022-09-08_13h52.42.087,CGTgamblingSpanTasks,2022.2.1,MacIntel,59.97361161,,,,,,,,0,,,,,,,,,,,,,,1,,,,,1,1,,,,,,18.11029021,0,11.41737518,,,,,,,,,,,,,0,44,44,48,1,0.069445859,0,,,,,,,,,,,,,,,,,,,,,,,,,,,,,,,,,,,,,,,,,,,,,,,,,,,,,,,,,,,,,,,,,,,,,,,,,,,,,,,,
,,614aec96ea8423682133d903,2022-09-08_13h52.42.087,CGTgamblingSpanTasks,2022.2.1,MacIntel,59.97361161,,,,,,,,0,,,,,,,,,,,,,,1,,,,,1.5,1.5,,,,,,12.9904115,0,11.42134125,,,,,,,,,,,,,0,45,45,118,1,0.037876033,0,,,,,,,,,,,,,,,,,,,,,,,,,,,,,,,,,,,,,,,,,,,,,,,,,,,,,,,,,,,,,,,,,,,,,,,,,,,,,,,,
,,614aec96ea8423682133d903,2022-09-08_13h52.42.087,CGTgamblingSpanTasks,2022.2.1,MacIntel,59.97361161,,,,,,,,2.2375,,,,,,,,,,,,,,2,n,1.7625,27.38828234,1,3.2375,1,,,,,,27.38828234,0,0.0639233,,,,,,,,,,,,,0,46,46,43,1,0.914010176,0,,,,,,,,,,,,,,,,,,,,,,,,,,,,,,,,,,,,,,,,,,,,,,,,,,,,,,,,,,,,,,,,,,,,,,,,,,,,,,,,
,,614aec96ea8423682133d903,2022-09-08_13h52.42.087,CGTgamblingSpanTasks,2022.2.1,MacIntel,59.97361161,,,,,,,,2.7484,,,,,,,,,,,,,,2,n,1.2516,17.30137174,1,3.7484,1,,,,,,17.30137174,0,1.716380842,,,,,,,,,,,,,0,47,47,20,1,0.500020285,1,,,,,,,,,,,,,,,,,,,,,,,,,,,,,,,,,,,,,,,,,,,,,,,,,,,,,,,,,,,,,,,,,,,,,,,,,,,,,,,,
,,614aec96ea8423682133d903,2022-09-08_13h52.42.087,CGTgamblingSpanTasks,2022.2.1,MacIntel,59.97361161,,,,,,,,2.7392,,,,,,,,,,,,,,1,v,1.2608,24.66627941,1,4.2392,1.5,,,,,,24.66627941,0,2.765426402,,,,,,,,,,,,,0,48,48,24,1,0.467360588,1,,,,,,,,,,,,,,,,,,,,,,,,,,,,,,,,,,,,,,,,,,,,,,,,,,,,,,,,,,,,,,,,,,,,,,,,,,,,,,,,
,,614aec96ea8423682133d903,2022-09-08_13h52.42.087,CGTgamblingSpanTasks,2022.2.1,MacIntel,59.97361161,,,,,,,,2.9028,,,,,,,,,,,,,,1,v,1.0972,0,1,4.4028,1.5,,,,,,23.59556381,0,2.464662219,,,,,,,,,,,,,0,49,49,22,1,0.486383205,1,,,,,,,,,,,,,,,,,,,,,,,,,,,,,,,,,,,,,,,,,,,,,,,,,,,,,,,,,,,,,,,,,,,,,,,,,,,,,,,,
,,614aec96ea8423682133d903,2022-09-08_13h52.42.087,CGTgamblingSpanTasks,2022.2.1,MacIntel,59.97361161,,,,,,,,2.8807,,,,,,,,,,,,,,1,v,1.1193,29.75778644,1,3.8807,1,,,,,,29.75778644,0,2.810531415,,,,,,,,,,,,,0,50,50,113,1,0.512824233,1,,,,,,,,,,,,,,,,,,,,,,,,,,,,,,,,,,,,,,,,,,,,,,,,,,,,,,,,,,,,,,,,,,,,,,,,,,,,,,,,
,,614aec96ea8423682133d903,2022-09-08_13h52.42.087,CGTgamblingSpanTasks,2022.2.1,MacIntel,59.97361161,,,,,,,,2.4318,,,,,,,,,,,,,,2,v,1.5682,3.877530383,0,3.4318,1,,,,,,3.471484939,0,3.877530383,,,,,,,,,,,,,0,51,51,40,1,0.02623078,0,,,,,,,,,,,,,,,,,,,,,,,,,,,,,,,,,,,,,,,,,,,,,,,,,,,,,,,,,,,,,,,,,,,,,,,,,,,,,,,,
,,614aec96ea8423682133d903,2022-09-08_13h52.42.087,CGTgamblingSpanTasks,2022.2.1,MacIntel,59.97361161,,,,,,,,2.8637,,,,,,,,,,,,,,2,v,1.1363,11.39288827,0,4.3637,1.5,,,,,,20.97851654,0,11.39288827,,,,,,,,,,,,,0,52,52,2,1,0.088791079,0,,,,,,,,,,,,,,,,,,,,,,,,,,,,,,,,,,,,,,,,,,,,,,,,,,,,,,,,,,,,,,,,,,,,,,,,,,,,,,,,
,,614aec96ea8423682133d903,2022-09-08_13h52.42.087,CGTgamblingSpanTasks,2022.2.1,MacIntel,59.97361161,,,,,,,,2.6634,,,,,,,,,,,,,,2,n,1.3366,0,1,3.6634,1,,,,,,19.68065872,0,1.843597162,,,,,,,,,,,,,0,53,53,80,1,0.514941058,1,,,,,,,,,,,,,,,,,,,,,,,,,,,,,,,,,,,,,,,,,,,,,,,,,,,,,,,,,,,,,,,,,,,,,,,,,,,,,,,,
,,614aec96ea8423682133d903,2022-09-08_13h52.42.087,CGTgamblingSpanTasks,2022.2.1,MacIntel,59.97361161,,,,,,,,2.9321,,,,,,,,,,,,,,1,v,1.0679,6.662965216,1,3.9321,1,,,,,,6.662965216,0,6.091504705,,,,,,,,,,,,,0,54,54,102,1,0.035087099,0,,,,,,,,,,,,,,,,,,,,,,,,,,,,,,,,,,,,,,,,,,,,,,,,,,,,,,,,,,,,,,,,,,,,,,,,,,,,,,,,
,,614aec96ea8423682133d903,2022-09-08_13h52.42.087,CGTgamblingSpanTasks,2022.2.1,MacIntel,59.97361161,,,,,,,,2.4495,,,,,,,,,,,,,,2,n,1.5505,27.94544945,1,3.9495,1.5,,,,,,27.94544945,0,2.32030209,,,,,,,,,,,,,0,55,55,115,1,0.545390564,1,,,,,,,,,,,,,,,,,,,,,,,,,,,,,,,,,,,,,,,,,,,,,,,,,,,,,,,,,,,,,,,,,,,,,,,,,,,,,,,,
,,614aec96ea8423682133d903,2022-09-08_13h52.42.087,CGTgamblingSpanTasks,2022.2.1,MacIntel,59.97361161,,,,,,,,2.8821,,,,,,,,,,,,,,2,n,1.1179,0,1,3.8821,1,,,,,,22.87092517,0,0.059276504,,,,,,,,,,,,,0,56,56,27,1,0.911114935,0,,,,,,,,,,,,,,,,,,,,,,,,,,,,,,,,,,,,,,,,,,,,,,,,,,,,,,,,,,,,,,,,,,,,,,,,,,,,,,,,
,,614aec96ea8423682133d903,2022-09-08_13h52.42.087,CGTgamblingSpanTasks,2022.2.1,MacIntel,59.97361161,,,,,,,,2.8658,,,,,,,,,,,,,,2,n,1.1342,27.76752685,1,3.8658,1,,,,,,27.76752685,0,0.083968035,,,,,,,,,,,,,0,57,57,13,1,0.906513967,0,,,,,,,,,,,,,,,,,,,,,,,,,,,,,,,,,,,,,,,,,,,,,,,,,,,,,,,,,,,,,,,,,,,,,,,,,,,,,,,,
,,614aec96ea8423682133d903,2022-09-08_13h52.42.087,CGTgamblingSpanTasks,2022.2.1,MacIntel,59.97361161,,,,,,,,2.7298,,,,,,,,,,,,,,2,n,1.2702,0,1,3.7298,1,,,,,,25.26994993,0,2.78925142,,,,,,,,,,,,,0,58,58,108,1,0.471582922,1,,,,,,,,,,,,,,,,,,,,,,,,,,,,,,,,,,,,,,,,,,,,,,,,,,,,,,,,,,,,,,,,,,,,,,,,,,,,,,,,
,,614aec96ea8423682133d903,2022-09-08_13h52.42.087,CGTgamblingSpanTasks,2022.2.1,MacIntel,59.97361161,,,,,,,,2.5829,,,,,,,,,,,,,,1,v,1.4171,0,1,3.5829,1,,,,,,23.0613391,0,2.387726776,,,,,,,,,,,,,0,59,59,69,1,0.488727763,1,,,,,,,,,,,,,,,,,,,,,,,,,,,,,,,,,,,,,,,,,,,,,,,,,,,,,,,,,,,,,,,,,,,,,,,,,,,,,,,,
,,614aec96ea8423682133d903,2022-09-08_13h52.42.087,CGTgamblingSpanTasks,2022.2.1,MacIntel,59.97361161,,,,,,,,2.6466,,,,,,,,,,,,,,1,v,1.3534,22.0050376,1,4.1466,1.5,,,,,,22.0050376,0,2.257683666,,,,,,,,,,,,,0,60,60,4,1,0.491147312,1,,,,,,,,,,,,,,,,,,,,,,,,,,,,,,,,,,,,,,,,,,,,,,,,,,,,,,,,,,,,,,,,,,,,,,,,,,,,,,,,
,,614aec96ea8423682133d903,2022-09-08_13h52.42.087,CGTgamblingSpanTasks,2022.2.1,MacIntel,59.97361161,,,,,,,,2.5661,,,,,,,,,,,,,,1,v,1.4339,0,1,4.0661,1.5,,,,,,25.65316415,0,0.079652925,,,,,,,,,,,,,0,61,61,109,1,0.90568168,0,,,,,,,,,,,,,,,,,,,,,,,,,,,,,,,,,,,,,,,,,,,,,,,,,,,,,,,,,,,,,,,,,,,,,,,,,,,,,,,,
,,614aec96ea8423682133d903,2022-09-08_13h52.42.087,CGTgamblingSpanTasks,2022.2.1,MacIntel,59.97361161,,,,,,,,2.5821,,,,,,,,,,,,,,2,v,1.4179,8.579385201,0,3.5821,1,,,,,,14.11762686,0,8.579385201,,,,,,,,,,,,,0,62,62,60,1,0.073886959,0,,,,,,,,,,,,,,,,,,,,,,,,,,,,,,,,,,,,,,,,,,,,,,,,,,,,,,,,,,,,,,,,,,,,,,,,,,,,,,,,
,,614aec96ea8423682133d903,2022-09-08_13h52.42.087,CGTgamblingSpanTasks,2022.2.1,MacIntel,59.97361161,,,,,,,,2.5832,,,,,,,,,,,,,,1,n,1.4168,10.68505773,0,4.0832,1.5,,,,,,17.64114152,0,10.68505773,,,,,,,,,,,,,0,63,63,98,1,0.074299362,0,,,,,,,,,,,,,,,,,,,,,,,,,,,,,,,,,,,,,,,,,,,,,,,,,,,,,,,,,,,,,,,,,,,,,,,,,,,,,,,,
,,614aec96ea8423682133d903,2022-09-08_13h52.42.087,CGTgamblingSpanTasks,2022.2.1,MacIntel,59.97361161,,,,,,,,2.5985,,,,,,,,,,,,,,2,n,1.4015,0,1,3.5985,1,,,,,,13.96521039,0,1.591282699,,,,,,,,,,,,,0,64,64,49,1,0.462956344,1,,,,,,,,,,,,,,,,,,,,,,,,,,,,,,,,,,,,,,,,,,,,,,,,,,,,,,,,,,,,,,,,,,,,,,,,,,,,,,,,
,,614aec96ea8423682133d903,2022-09-08_13h52.42.087,CGTgamblingSpanTasks,2022.2.1,MacIntel,59.97361161,,,,,,,,2.782,,,,,,,,,,,,,,1,n,1.218,10.3417501,0,3.782,1,,,,,,15.21435748,0,10.3417501,,,,,,,,,,,,,0,65,65,72,1,0.060969226,0,,,,,,,,,,,,,,,,,,,,,,,,,,,,,,,,,,,,,,,,,,,,,,,,,,,,,,,,,,,,,,,,,,,,,,,,,,,,,,,,
,,614aec96ea8423682133d903,2022-09-08_13h52.42.087,CGTgamblingSpanTasks,2022.2.1,MacIntel,59.97361161,,,,,,,,2.3822,,,,,,,,,,,,,,1,v,1.6178,15.43649625,1,3.3822,1,,,,,,15.43649625,0,1.65459324,,,,,,,,,,,,,0,66,66,33,1,0.479480163,1,,,,,,,,,,,,,,,,,,,,,,,,,,,,,,,,,,,,,,,,,,,,,,,,,,,,,,,,,,,,,,,,,,,,,,,,,,,,,,,,
,,614aec96ea8423682133d903,2022-09-08_13h52.42.087,CGTgamblingSpanTasks,2022.2.1,MacIntel,59.97361161,,,,,,,,2.7814,,,,,,,,,,,,,,2,n,1.2186,0,1,4.2814,1.5,,,,,,27.57491653,0,2.99133314,,,,,,,,,,,,,0,67,67,10,1,0.47625893,1,,,,,,,,,,,,,,,,,,,,,,,,,,,,,,,,,,,,,,,,,,,,,,,,,,,,,,,,,,,,,,,,,,,,,,,,,,,,,,,,
,,614aec96ea8423682133d903,2022-09-08_13h52.42.087,CGTgamblingSpanTasks,2022.2.1,MacIntel,59.97361161,,,,,,,,2.7524,,,,,,,,,,,,,,1,v,1.2476,0,1,4.2524,1.5,,,,,,18.50662664,0,0.052546026,,,,,,,,,,,,,0,68,68,112,1,0.908444837,0,,,,,,,,,,,,,,,,,,,,,,,,,,,,,,,,,,,,,,,,,,,,,,,,,,,,,,,,,,,,,,,,,,,,,,,,,,,,,,,,
,,614aec96ea8423682133d903,2022-09-08_13h52.42.087,CGTgamblingSpanTasks,2022.2.1,MacIntel,59.97361161,,,,,,,,2.8326,,,,,,,,,,,,,,2,n,1.1674,0,1,4.3326,1.5,,,,,,27.60724521,0,0.088432325,,,,,,,,,,,,,0,69,69,17,1,0.904684186,0,,,,,,,,,,,,,,,,,,,,,,,,,,,,,,,,,,,,,,,,,,,,,,,,,,,,,,,,,,,,,,,,,,,,,,,,,,,,,,,,
,,614aec96ea8423682133d903,2022-09-08_13h52.42.087,CGTgamblingSpanTasks,2022.2.1,MacIntel,59.97361161,,,,,,,,2.7868,,,,,,,,,,,,,,2,n,1.2132,18.51345298,1,4.2868,1.5,,,,,,18.51345298,0,1.932334278,,,,,,,,,,,,,0,70,70,31,1,0.48658696,1,,,,,,,,,,,,,,,,,,,,,,,,,,,,,,,,,,,,,,,,,,,,,,,,,,,,,,,,,,,,,,,,,,,,,,,,,,,,,,,,
,,614aec96ea8423682133d903,2022-09-08_13h52.42.087,CGTgamblingSpanTasks,2022.2.1,MacIntel,59.97361161,,,,,,,,2.7082,,,,,,,,,,,,,,1,v,1.2918,25.0707644,1,3.7082,1,,,,,,25.0707644,0,0.067651625,,,,,,,,,,,,,0,71,71,70,1,0.909952349,0,,,,,,,,,,,,,,,,,,,,,,,,,,,,,,,,,,,,,,,,,,,,,,,,,,,,,,,,,,,,,,,,,,,,,,,,,,,,,,,,
,,614aec96ea8423682133d903,2022-09-08_13h52.42.087,CGTgamblingSpanTasks,2022.2.1,MacIntel,59.97361161,,,,,,,,2.8157,,,,,,,,,,,,,,2,n,1.1843,20.31034258,1,4.3157,1.5,,,,,,20.31034258,0,1.870404296,,,,,,,,,,,,,0,72,72,85,1,0.519325853,1,,,,,,,,,,,,,,,,,,,,,,,,,,,,,,,,,,,,,,,,,,,,,,,,,,,,,,,,,,,,,,,,,,,,,,,,,,,,,,,,
,,614aec96ea8423682133d903,2022-09-08_13h52.42.087,CGTgamblingSpanTasks,2022.2.1,MacIntel,59.97361161,,,,,,,,2.6983,,,,,,,,,,,,,,1,v,1.3017,21.39646914,1,3.6983,1,,,,,,21.39646914,0,0.072474078,,,,,,,,,,,,,0,73,73,3,1,0.902848133,0,,,,,,,,,,,,,,,,,,,,,,,,,,,,,,,,,,,,,,,,,,,,,,,,,,,,,,,,,,,,,,,,,,,,,,,,,,,,,,,,
,,614aec96ea8423682133d903,2022-09-08_13h52.42.087,CGTgamblingSpanTasks,2022.2.1,MacIntel,59.97361161,,,,,,,,2.4099,,,,,,,,,,,,,,2,v,1.5901,8.512335864,0,3.4099,1,,,,,,10.05300841,0,8.512335864,,,,,,,,,,,,,0,74,74,74,1,0.040729225,0,,,,,,,,,,,,,,,,,,,,,,,,,,,,,,,,,,,,,,,,,,,,,,,,,,,,,,,,,,,,,,,,,,,,,,,,,,,,,,,,
,,614aec96ea8423682133d903,2022-09-08_13h52.42.087,CGTgamblingSpanTasks,2022.2.1,MacIntel,59.97361161,,,,,,,,2.4167,,,,,,,,,,,,,,1,v,1.5833,17.85020524,1,3.9167,1.5,,,,,,17.85020524,0,2.058701084,,,,,,,,,,,,,0,75,75,25,1,0.459662216,1,,,,,,,,,,,,,,,,,,,,,,,,,,,,,,,,,,,,,,,,,,,,,,,,,,,,,,,,,,,,,,,,,,,,,,,,,,,,,,,,
,,614aec96ea8423682133d903,2022-09-08_13h52.42.087,CGTgamblingSpanTasks,2022.2.1,MacIntel,59.97361161,,,,,,,,2.7987,,,,,,,,,,,,,,1,v,1.2013,18.20422443,1,3.7987,1,,,,,,18.20422443,0,1.635040165,,,,,,,,,,,,,0,76,76,82,1,0.525708991,1,,,,,,,,,,,,,,,,,,,,,,,,,,,,,,,,,,,,,,,,,,,,,,,,,,,,,,,,,,,,,,,,,,,,,,,,,,,,,,,,
,,614aec96ea8423682133d903,2022-09-08_13h52.42.087,CGTgamblingSpanTasks,2022.2.1,MacIntel,59.97361161,,,,,,,,2.785,,,,,,,,,,,,,,2,n,1.215,22.86604061,1,4.285,1.5,,,,,,22.86604061,0,2.293289792,,,,,,,,,,,,,0,77,77,51,1,0.49715382,1,,,,,,,,,,,,,,,,,,,,,,,,,,,,,,,,,,,,,,,,,,,,,,,,,,,,,,,,,,,,,,,,,,,,,,,,,,,,,,,,
,,614aec96ea8423682133d903,2022-09-08_13h52.42.087,CGTgamblingSpanTasks,2022.2.1,MacIntel,59.97361161,,,,,,,,2.9156,,,,,,,,,,,,,,2,n,1.0844,24.479109,1,3.9156,1,,,,,,24.479109,0,0.089582697,,,,,,,,,,,,,0,78,78,89,1,0.900200232,0,,,,,,,,,,,,,,,,,,,,,,,,,,,,,,,,,,,,,,,,,,,,,,,,,,,,,,,,,,,,,,,,,,,,,,,,,,,,,,,,
,,614aec96ea8423682133d903,2022-09-08_13h52.42.087,CGTgamblingSpanTasks,2022.2.1,MacIntel,59.97361161,,,,,,,,2.8541,,,,,,,,,,,,,,2,n,1.1459,11.16819157,1,3.8541,1,,,,,,11.16819157,0,0.941456753,,,,,,,,,,,,,0,79,79,45,1,0.54163803,1,,,,,,,,,,,,,,,,,,,,,,,,,,,,,,,,,,,,,,,,,,,,,,,,,,,,,,,,,,,,,,,,,,,,,,,,,,,,,,,,
,,614aec96ea8423682133d903,2022-09-08_13h52.42.087,CGTgamblingSpanTasks,2022.2.1,MacIntel,59.97361161,,,,,,,,2.7311,,,,,,,,,,,,,,1,n,1.2689,11.6744431,0,4.2311,1.5,,,,,,10.43004651,0,11.6744431,,,,,,,,,,,,,0,80,80,15,1,0.026176489,0,,,,,,,,,,,,,,,,,,,,,,,,,,,,,,,,,,,,,,,,,,,,,,,,,,,,,,,,,,,,,,,,,,,,,,,,,,,,,,,,
,,614aec96ea8423682133d903,2022-09-08_13h52.42.087,CGTgamblingSpanTasks,2022.2.1,MacIntel,59.97361161,,,,,,,,2.5305,,,,,,,,,,,,,,1,v,1.4695,0,1,4.0305,1.5,,,,,,29.77342428,0,2.838865588,,,,,,,,,,,,,0,81,81,57,1,0.510363415,1,,,,,,,,,,,,,,,,,,,,,,,,,,,,,,,,,,,,,,,,,,,,,,,,,,,,,,,,,,,,,,,,,,,,,,,,,,,,,,,,
,,614aec96ea8423682133d903,2022-09-08_13h52.42.087,CGTgamblingSpanTasks,2022.2.1,MacIntel,59.97361161,,,,,,,,2.7365,,,,,,,,,,,,,,1,v,1.2635,0,1,4.2365,1.5,,,,,,27.77179191,0,0.074524436,,,,,,,,,,,,,0,82,82,99,1,0.910114387,0,,,,,,,,,,,,,,,,,,,,,,,,,,,,,,,,,,,,,,,,,,,,,,,,,,,,,,,,,,,,,,,,,,,,,,,,,,,,,,,,
,,614aec96ea8423682133d903,2022-09-08_13h52.42.087,CGTgamblingSpanTasks,2022.2.1,MacIntel,59.97361161,,,,,,,,2.8138,,,,,,,,,,,,,,2,n,1.1862,0,1,3.8138,1,,,,,,27.93093084,0,0.050207531,,,,,,,,,,,,,0,83,83,83,1,0.920505936,0,,,,,,,,,,,,,,,,,,,,,,,,,,,,,,,,,,,,,,,,,,,,,,,,,,,,,,,,,,,,,,,,,,,,,,,,,,,,,,,,
,,614aec96ea8423682133d903,2022-09-08_13h52.42.087,CGTgamblingSpanTasks,2022.2.1,MacIntel,59.97361161,,,,,,,,1.9996,,,,,,,,,,,,,,1,v,2.0004,0,1,3.4996,1.5,,,,,,21.46599803,0,0.059789256,,,,,,,,,,,,,0,84,84,8,1,0.909019081,0,,,,,,,,,,,,,,,,,,,,,,,,,,,,,,,,,,,,,,,,,,,,,,,,,,,,,,,,,,,,,,,,,,,,,,,,,,,,,,,,
,,614aec96ea8423682133d903,2022-09-08_13h52.42.087,CGTgamblingSpanTasks,2022.2.1,MacIntel,59.97361161,,,,,,,,2.351,,,,,,,,,,,,,,2,v,1.649,7.646213173,0,3.851,1.5,,,,,,2.042350179,0,7.646213173,,,,,,,,,,,,,0,85,85,53,1,0.009522273,0,,,,,,,,,,,,,,,,,,,,,,,,,,,,,,,,,,,,,,,,,,,,,,,,,,,,,,,,,,,,,,,,,,,,,,,,,,,,,,,,
,,614aec96ea8423682133d903,2022-09-08_13h52.42.087,CGTgamblingSpanTasks,2022.2.1,MacIntel,59.97361161,,,,,,,,2.4302,,,,,,,,,,,,,,1,v,1.5698,0,1,3.4302,1,,,,,,28.14876717,0,3.117906378,,,,,,,,,,,,,0,86,86,76,1,0.470636736,1,,,,,,,,,,,,,,,,,,,,,,,,,,,,,,,,,,,,,,,,,,,,,,,,,,,,,,,,,,,,,,,,,,,,,,,,,,,,,,,,
,,614aec96ea8423682133d903,2022-09-08_13h52.42.087,CGTgamblingSpanTasks,2022.2.1,MacIntel,59.97361161,,,,,,,,2.4503,,,,,,,,,,,,,,2,n,1.5497,25.76582409,1,3.9503,1.5,,,,,,25.76582409,0,2.393193076,,,,,,,,,,,,,0,87,87,46,1,0.517129855,1,,,,,,,,,,,,,,,,,,,,,,,,,,,,,,,,,,,,,,,,,,,,,,,,,,,,,,,,,,,,,,,,,,,,,,,,,,,,,,,,
,,614aec96ea8423682133d903,2022-09-08_13h52.42.087,CGTgamblingSpanTasks,2022.2.1,MacIntel,59.97361161,,,,,,,,2.7138,,,,,,,,,,,,,,2,n,1.2862,0,1,4.2138,1.5,,,,,,28.13634754,0,2.532806323,,,,,,,,,,,,,0,88,88,28,1,0.525136524,1,,,,,,,,,,,,,,,,,,,,,,,,,,,,,,,,,,,,,,,,,,,,,,,,,,,,,,,,,,,,,,,,,,,,,,,,,,,,,,,,
,,614aec96ea8423682133d903,2022-09-08_13h52.42.087,CGTgamblingSpanTasks,2022.2.1,MacIntel,59.97361161,,,,,,,,2.5557,,,,,,,,,,,,,,1,v,1.4443,28.94627214,1,4.0557,1.5,,,,,,28.94627214,0,2.701896413,,,,,,,,,,,,,0,89,89,111,1,0.515860759,1,,,,,,,,,,,,,,,,,,,,,,,,,,,,,,,,,,,,,,,,,,,,,,,,,,,,,,,,,,,,,,,,,,,,,,,,,,,,,,,,
,,614aec96ea8423682133d903,2022-09-08_13h52.42.087,CGTgamblingSpanTasks,2022.2.1,MacIntel,59.97361161,,,,,,,,2.4646,,,,,,,,,,,,,,1,v,1.5354,25.56803059,1,3.9646,1.5,,,,,,25.56803059,0,2.543951743,,,,,,,,,,,,,0,90,90,41,1,0.499247217,1,,,,,,,,,,,,,,,,,,,,,,,,,,,,,,,,,,,,,,,,,,,,,,,,,,,,,,,,,,,,,,,,,,,,,,,,,,,,,,,,
,,614aec96ea8423682133d903,2022-09-08_13h52.42.087,CGTgamblingSpanTasks,2022.2.1,MacIntel,59.97361161,,,,,,,,2.2849,,,,,,,,,,,,,,1,v,1.7151,0,1,3.2849,1,,,,,,27.4965044,0,2.461467004,,,,,,,,,,,,,0,91,91,36,1,0.526550878,1,,,,,,,,,,,,,,,,,,,,,,,,,,,,,,,,,,,,,,,,,,,,,,,,,,,,,,,,,,,,,,,,,,,,,,,,,,,,,,,,
,,614aec96ea8423682133d903,2022-09-08_13h52.42.087,CGTgamblingSpanTasks,2022.2.1,MacIntel,59.97361161,,,,,,,,2.3641,,,,,,,,,,,,,,1,v,1.6359,28.9323758,1,3.3641,1,,,,,,28.9323758,0,2.893007023,,,,,,,,,,,,,0,92,92,11,1,0.497943321,1,,,,,,,,,,,,,,,,,,,,,,,,,,,,,,,,,,,,,,,,,,,,,,,,,,,,,,,,,,,,,,,,,,,,,,,,,,,,,,,,
,,614aec96ea8423682133d903,2022-09-08_13h52.42.087,CGTgamblingSpanTasks,2022.2.1,MacIntel,59.97361161,,,,,,,,2.4366,,,,,,,,,,,,,,2,n,1.5634,22.25959835,1,3.4366,1,,,,,,22.25959835,0,0.065383587,,,,,,,,,,,,,0,93,93,97,1,0.907413875,0,,,,,,,,,,,,,,,,,,,,,,,,,,,,,,,,,,,,,,,,,,,,,,,,,,,,,,,,,,,,,,,,,,,,,,,,,,,,,,,,
,,614aec96ea8423682133d903,2022-09-08_13h52.42.087,CGTgamblingSpanTasks,2022.2.1,MacIntel,59.97361161,,,,,,,,2.9247,,,,,,,,,,,,,,2,n,1.0753,0,1,4.4247,1.5,,,,,,24.8002852,0,0.071848086,,,,,,,,,,,,,0,94,94,16,1,0.90783559,0,,,,,,,,,,,,,,,,,,,,,,,,,,,,,,,,,,,,,,,,,,,,,,,,,,,,,,,,,,,,,,,,,,,,,,,,,,,,,,,,
,,614aec96ea8423682133d903,2022-09-08_13h52.42.087,CGTgamblingSpanTasks,2022.2.1,MacIntel,59.97361161,,,,,,,,2.8151,,,,,,,,,,,,,,2,n,1.1849,24.35708027,1,3.8151,1,,,,,,24.35708027,0,2.738695417,,,,,,,,,,,,,0,95,95,114,1,0.466573634,1,,,,,,,,,,,,,,,,,,,,,,,,,,,,,,,,,,,,,,,,,,,,,,,,,,,,,,,,,,,,,,,,,,,,,,,,,,,,,,,,
,,614aec96ea8423682133d903,2022-09-08_13h52.42.087,CGTgamblingSpanTasks,2022.2.1,MacIntel,59.97361161,,,,,,,,2.3436,,,,,,,,,,,,,,1,n,1.6564,11.35147481,0,3.8436,1.5,,,,,,17.67865084,0,11.35147481,,,,,,,,,,,,,0,96,96,91,1,0.067304606,0,,,,,,,,,,,,,,,,,,,,,,,,,,,,,,,,,,,,,,,,,,,,,,,,,,,,,,,,,,,,,,,,,,,,,,,,,,,,,,,,
,,614aec96ea8423682133d903,2022-09-08_13h52.42.087,CGTgamblingSpanTasks,2022.2.1,MacIntel,59.97361161,,,,,,,,2.4318,,,,,,,,,,,,,,1,v,1.5682,21.17800335,1,3.4318,1,,,,,,21.17800335,0,0.059830985,,,,,,,,,,,,,0,97,97,67,1,0.908594974,0,,,,,,,,,,,,,,,,,,,,,,,,,,,,,,,,,,,,,,,,,,,,,,,,,,,,,,,,,,,,,,,,,,,,,,,,,,,,,,,,
,,614aec96ea8423682133d903,2022-09-08_13h52.42.087,CGTgamblingSpanTasks,2022.2.1,MacIntel,59.97361161,,,,,,,,2.5489,,,,,,,,,,,,,,2,v,1.4511,5.683635938,0,3.5489,1,,,,,,4.941039335,0,5.683635938,,,,,,,,,,,,,0,98,98,9,1,0.025481984,0,,,,,,,,,,,,,,,,,,,,,,,,,,,,,,,,,,,,,,,,,,,,,,,,,,,,,,,,,,,,,,,,,,,,,,,,,,,,,,,,
,,614aec96ea8423682133d903,2022-09-08_13h52.42.087,CGTgamblingSpanTasks,2022.2.1,MacIntel,59.97361161,,,,,,,,2.6497,,,,,,,,,,,,,,1,n,1.3503,7.850775577,0,4.1497,1.5,,,,,,4.622707531,0,7.850775577,,,,,,,,,,,,,0,99,99,6,1,0.017737407,0,,,,,,,,,,,,,,,,,,,,,,,,,,,,,,,,,,,,,,,,,,,,,,,,,,,,,,,,,,,,,,,,,,,,,,,,,,,,,,,,
,,614aec96ea8423682133d903,2022-09-08_13h52.42.087,CGTgamblingSpanTasks,2022.2.1,MacIntel,59.97361161,,,,,,,,1.9102,,,,,,,,,,,,,,2,v,2.0898,8.830252162,0,2.9102,1,,,,,,15.73000491,0,8.830252162,,,,,,,,,,,,,0,100,100,95,1,0.084193143,0,,,,,,,,,,,,,,,,,,,,,,,,,,,,,,,,,,,,,,,,,,,,,,,,,,,,,,,,,,,,,,,,,,,,,,,,,,,,,,,,
,,614aec96ea8423682133d903,2022-09-08_13h52.42.087,CGTgamblingSpanTasks,2022.2.1,MacIntel,59.97361161,,,,,,,,2.8542,,,,,,,,,,,,,,2,v,1.1458,9.936178001,0,4.3542,1.5,,,,,,19.58698544,0,9.936178001,,,,,,,,,,,,,0,101,101,77,1,0.098812204,0,,,,,,,,,,,,,,,,,,,,,,,,,,,,,,,,,,,,,,,,,,,,,,,,,,,,,,,,,,,,,,,,,,,,,,,,,,,,,,,,
,,614aec96ea8423682133d903,2022-09-08_13h52.42.087,CGTgamblingSpanTasks,2022.2.1,MacIntel,59.97361161,,,,,,,,2.0472,,,,,,,,,,,,,,2,v,1.9528,11.61882862,0,3.5472,1.5,,,,,,4.022743614,0,11.61882862,,,,,,,,,,,,,0,102,102,38,1,0.011499376,0,,,,,,,,,,,,,,,,,,,,,,,,,,,,,,,,,,,,,,,,,,,,,,,,,,,,,,,,,,,,,,,,,,,,,,,,,,,,,,,,
,,614aec96ea8423682133d903,2022-09-08_13h52.42.087,CGTgamblingSpanTasks,2022.2.1,MacIntel,59.97361161,,,,,,,,2.5166,,,,,,,,,,,,,,2,n,1.4834,0,1,3.5166,1,,,,,,27.37527992,0,2.860319095,,,,,,,,,,,,,0,103,103,39,1,0.486304156,1,,,,,,,,,,,,,,,,,,,,,,,,,,,,,,,,,,,,,,,,,,,,,,,,,,,,,,,,,,,,,,,,,,,,,,,,,,,,,,,,
,,614aec96ea8423682133d903,2022-09-08_13h52.42.087,CGTgamblingSpanTasks,2022.2.1,MacIntel,59.97361161,,,,,,,,2.6324,,,,,,,,,,,,,,2,n,1.3676,0,1,4.1324,1.5,,,,,,21.48443242,0,2.229247341,,,,,,,,,,,,,0,104,104,63,1,0.488155912,1,,,,,,,,,,,,,,,,,,,,,,,,,,,,,,,,,,,,,,,,,,,,,,,,,,,,,,,,,,,,,,,,,,,,,,,,,,,,,,,,
,,614aec96ea8423682133d903,2022-09-08_13h52.42.087,CGTgamblingSpanTasks,2022.2.1,MacIntel,59.97361161,,,,,,,,2.4318,,,,,,,,,,,,,,2,v,1.5682,4.462262453,0,3.4318,1,,,,,,0.192759042,0,4.462262453,,,,,,,,,,,,,0,105,105,52,1,0.003553223,0,,,,,,,,,,,,,,,,,,,,,,,,,,,,,,,,,,,,,,,,,,,,,,,,,,,,,,,,,,,,,,,,,,,,,,,,,,,,,,,,
,,614aec96ea8423682133d903,2022-09-08_13h52.42.087,CGTgamblingSpanTasks,2022.2.1,MacIntel,59.97361161,,,,,,,,2.465,,,,,,,,,,,,,,2,n,1.535,0,1,3.465,1,,,,,,13.84410806,0,1.535873964,,,,,,,,,,,,,0,106,106,88,1,0.470209002,1,,,,,,,,,,,,,,,,,,,,,,,,,,,,,,,,,,,,,,,,,,,,,,,,,,,,,,,,,,,,,,,,,,,,,,,,,,,,,,,,
,,614aec96ea8423682133d903,2022-09-08_13h52.42.087,CGTgamblingSpanTasks,2022.2.1,MacIntel,59.97361161,,,,,,,,2.8985,,,,,,,,,,,,,,2,v,1.1015,11.93550497,0,4.3985,1.5,,,,,,14.20587264,0,11.93550497,,,,,,,,,,,,,0,107,107,21,1,0.041340301,0,,,,,,,,,,,,,,,,,,,,,,,,,,,,,,,,,,,,,,,,,,,,,,,,,,,,,,,,,,,,,,,,,,,,,,,,,,,,,,,,
,,614aec96ea8423682133d903,2022-09-08_13h52.42.087,CGTgamblingSpanTasks,2022.2.1,MacIntel,59.97361161,,,,,,,,2.834,,,,,,,,,,,,,,2,v,1.166,4.904872644,0,3.834,1,,,,,,4.698775357,0,4.904872644,,,,,,,,,,,,,0,108,108,75,1,0.028064484,0,,,,,,,,,,,,,,,,,,,,,,,,,,,,,,,,,,,,,,,,,,,,,,,,,,,,,,,,,,,,,,,,,,,,,,,,,,,,,,,,
,,614aec96ea8423682133d903,2022-09-08_13h52.42.087,CGTgamblingSpanTasks,2022.2.1,MacIntel,59.97361161,,,,,,,,2.4993,,,,,,,,,,,,,,1,v,1.5007,0,1,3.9993,1.5,,,,,,27.12325385,0,0.080932047,,,,,,,,,,,,,0,109,109,14,1,0.906929184,0,,,,,,,,,,,,,,,,,,,,,,,,,,,,,,,,,,,,,,,,,,,,,,,,,,,,,,,,,,,,,,,,,,,,,,,,,,,,,,,,
,,614aec96ea8423682133d903,2022-09-08_13h52.42.087,CGTgamblingSpanTasks,2022.2.1,MacIntel,59.97361161,,,,,,,,2.6987,,,,,,,,,,,,,,2,n,1.3013,0,1,4.1987,1.5,,,,,,28.68598705,0,0.050674956,,,,,,,,,,,,,0,110,110,62,1,0.920905497,0,,,,,,,,,,,,,,,,,,,,,,,,,,,,,,,,,,,,,,,,,,,,,,,,,,,,,,,,,,,,,,,,,,,,,,,,,,,,,,,,
,,614aec96ea8423682133d903,2022-09-08_13h52.42.087,CGTgamblingSpanTasks,2022.2.1,MacIntel,59.97361161,,,,,,,,2.4822,,,,,,,,,,,,,,2,n,1.5178,0,1,3.9822,1.5,,,,,,13.4287264,0,1.317368801,,,,,,,,,,,,,0,111,111,100,1,0.502953125,1,,,,,,,,,,,,,,,,,,,,,,,,,,,,,,,,,,,,,,,,,,,,,,,,,,,,,,,,,,,,,,,,,,,,,,,,,,,,,,,,
,,614aec96ea8423682133d903,2022-09-08_13h52.42.087,CGTgamblingSpanTasks,2022.2.1,MacIntel,59.97361161,,,,,,,,2.3871,,,,,,,,,,,,,,1,v,1.6129,0,1,3.8871,1.5,,,,,,8.670591867,0,1.025847652,,,,,,,,,,,,,0,112,112,18,1,0.452680459,1,,,,,,,,,,,,,,,,,,,,,,,,,,,,,,,,,,,,,,,,,,,,,,,,,,,,,,,,,,,,,,,,,,,,,,,,,,,,,,,,
,,614aec96ea8423682133d903,2022-09-08_13h52.42.087,CGTgamblingSpanTasks,2022.2.1,MacIntel,59.97361161,,,,,,,,2.5151,,,,,,,,,,,,,,1,v,1.4849,26.16821818,1,4.0151,1.5,,,,,,26.16821818,0,0.093528069,,,,,,,,,,,,,0,113,113,42,1,0.901022427,0,,,,,,,,,,,,,,,,,,,,,,,,,,,,,,,,,,,,,,,,,,,,,,,,,,,,,,,,,,,,,,,,,,,,,,,,,,,,,,,,
,,614aec96ea8423682133d903,2022-09-08_13h52.42.087,CGTgamblingSpanTasks,2022.2.1,MacIntel,59.97361161,,,,,,,,2.6843,,,,,,,,,,,,,,2,n,1.3157,7.534278541,1,4.1843,1.5,,,,,,7.534278541,0,0.747140182,,,,,,,,,,,,,0,114,114,37,1,0.50012466,1,,,,,,,,,,,,,,,,,,,,,,,,,,,,,,,,,,,,,,,,,,,,,,,,,,,,,,,,,,,,,,,,,,,,,,,,,,,,,,,,
,,614aec96ea8423682133d903,2022-09-08_13h52.42.087,CGTgamblingSpanTasks,2022.2.1,MacIntel,59.97361161,,,,,,,,2.5657,,,,,,,,,,,,,,2,n,1.4343,22.62475578,1,4.0657,1.5,,,,,,22.62475578,0,2.397643354,,,,,,,,,,,,,0,115,115,93,1,0.482527609,1,,,,,,,,,,,,,,,,,,,,,,,,,,,,,,,,,,,,,,,,,,,,,,,,,,,,,,,,,,,,,,,,,,,,,,,,,,,,,,,,
,,614aec96ea8423682133d903,2022-09-08_13h52.42.087,CGTgamblingSpanTasks,2022.2.1,MacIntel,59.97361161,,,,,,,,2.8507,,,,,,,,,,,,,,2,n,1.1493,17.5608285,1,4.3507,1.5,,,,,,17.5608285,0,1.825111303,,,,,,,,,,,,,0,116,116,104,1,0.487721116,1,,,,,,,,,,,,,,,,,,,,,,,,,,,,,,,,,,,,,,,,,,,,,,,,,,,,,,,,,,,,,,,,,,,,,,,,,,,,,,,,
,,614aec96ea8423682133d903,2022-09-08_13h52.42.087,CGTgamblingSpanTasks,2022.2.1,MacIntel,59.97361161,,,,,,,,2.8998,,,,,,,,,,,,,,2,n,1.1002,17.23907308,1,3.8998,1,,,,,,17.23907308,0,2.055848574,,,,,,,,,,,,,0,117,117,66,1,0.450504458,1,,,,,,,,,,,,,,,,,,,,,,,,,,,,,,,,,,,,,,,,,,,,,,,,,,,,,,,,,,,,,,,,,,,,,,,,,,,,,,,,
,,614aec96ea8423682133d903,2022-09-08_13h52.42.087,CGTgamblingSpanTasks,2022.2.1,MacIntel,59.97361161,,,,,,,,2.8026,,,,,,,,,,,,,,2,v,1.1974,11.19311486,0,3.8026,1,,,,,,8.17598802,0,11.19311486,,,,,,,,,,,,,0,118,118,110,1,0.021568003,0,,,,,,,,,,,,,,,,,,,,,,,,,,,,,,,,,,,,,,,,,,,,,,,,,,,,,,,,,,,,,,,,,,,,,,,,,,,,,,,,
,,614aec96ea8423682133d903,2022-09-08_13h52.42.087,CGTgamblingSpanTasks,2022.2.1,MacIntel,59.97361161,,,,,,,,1.8856,,,,,,,,,,,,,,1,n,2.1144,1.002188111,0,3.3856,1.5,,,,,,9.012590634,0,1.002188111,,,,,,,,,,,,,0,119,119,12,1,0.46958041,1,,,,,,,,,,,,,,,,,,,,,,,,,,,,,,,,,,,,,,,,,,,,,,,,,,,,,,,,,,,,,,,,,,,,,,,,,,,,,,,,
,,614aec96ea8423682133d903,2022-09-08_13h52.42.087,CGTgamblingSpanTasks,2022.2.1,MacIntel,59.97361161,,,,,,,,,,,,,,,,,,,,,,,,,,,,,,,,,,,,,,,,,,,,,,,,,,,,,,,,return,8.322,,,,,,,,,,,,,,,,,,,,,,,,,,,,,,,,,,,,,,,,,,,,,,,,,,,,,,,,,,,,,,,,,,,,,,,,,,,,,,
,,614aec96ea8423682133d903,2022-09-08_13h52.42.087,CGTgamblingSpanTasks,2022.2.1,MacIntel,59.97361161,,,,,,,,,,,,,,,,,,,,,,,,,,,,,,,,,,,,,,,,,,,,,,,,,,,,,,,,,,return,82.0697,,,,,,,,,,,,,,,,,,,,,,,,,,,,,,,,,,,,,,,,,,,,,,,,,,,,,,,,,,,,,,,,,,,,,,,,,,,,
,,614aec96ea8423682133d903,2022-09-08_13h52.42.087,CGTgamblingSpanTasks,2022.2.1,MacIntel,59.97361161,,,,,,,,,,,,,,,,,,,,,,,,,,,,,,,,,,,,,,,,,,,,,,,,,,,,,,,,,,,,return,17.5167,,,,,,,,,,,,,,,,,,,,,,,,,,,,,,,,,,,,,,,,,,,,,,,,,,,,,,,,,,,,,,,,,,,,,,,,,,
,,614aec96ea8423682133d903,2022-09-08_13h52.42.087,CGTgamblingSpanTasks,2022.2.1,MacIntel,59.97361161,,,,,,,,,,,,,,,,,,,,,,,,,,,,,,,,,,,,,,,,,,,,,,,,,,,,,,,,,,,,,,342,1,0.018759766,-0.382636719,1,0,0,cont_buttonPractice,0,0,0,0,1,3,342,24,2,42,,,,,,,,,,,,,,,,,,,,,,,,,,,,,,,,,,,,,,,,,,,,,,,,,,,,,,,,
,,614aec96ea8423682133d903,2022-09-08_13h52.42.087,CGTgamblingSpanTasks,2022.2.1,MacIntel,59.97361161,,,,,,,,,,,,,,,,,,,,,,,,,,,,,,,,,,,,,,,,,,,,,,,,,,,,,,,,,,,,,,937,1,0.014868164,-0.421572266,1,0,0,cont_buttonPractice,0,1,1,1,1,3,937,73,2,37,,,,,,,,,,,,,,,,,,,,,,,,,,,,,,,,,,,,,,,,,,,,,,,,,,,,,,,,
,,614aec96ea8423682133d903,2022-09-08_13h52.42.087,CGTgamblingSpanTasks,2022.2.1,MacIntel,59.97361161,,,,,,,,,,,,,,,,,,,,,,,,,,,,,,,,,,,,,,,,,,,,,,,,,,,,,,,,,,,,,,,,,,,,,,,,,,,,,,,,return,6.2447,,,,,,,,,,,,,,,,,,,,,,,,,,,,,,,,,,,,,,,,,,,,,,,,,,,,,,
,,614aec96ea8423682133d903,2022-09-08_13h52.42.087,CGTgamblingSpanTasks,2022.2.1,MacIntel,59.97361161,,,,,,,,,,,,,,,,,,,,,,,,,,,,,,,,,,,,,,,,,,,,,,,,,,,,,,,,,,,,,,,,,,,,,,,,,,,,,,,,,,"[4,9,6]",0,0,0,0,1,,,,,,,,,,,,,,,,,,,,,,,,,,,,,,,,,,,,,,,,,,,,,,,,
,,614aec96ea8423682133d903,2022-09-08_13h52.42.087,CGTgamblingSpanTasks,2022.2.1,MacIntel,59.97361161,,,,,,,,,,,,,,,,,,,,,,,,,,,,,,,,,,,,,,,,,,,,,,,,,,,,,,,,,,,,,,,,,,,,,,,,,,,,,,,,,,"[4,9,6]",1,0,1,0,1,,,,,,,,,,,,,,,,,,,,,,,,,,,,,,,,,,,,,,,,,,,,,,,,
,,614aec96ea8423682133d903,2022-09-08_13h52.42.087,CGTgamblingSpanTasks,2022.2.1,MacIntel,59.97361161,,,,,,,,,,,,,,,,,,,,,,,,,,,,,,,,,,,,,,,,,,,,,,,,,,,,,,,,,,,,,,,,,,,,,,,,,,,,,,,,,,"[4,9,6]",2,0,2,0,1,,,,,,,,,,,,,,,,,,,,,,,,,,,,,,,,,,,,,,,,,,,,,,,,
,,614aec96ea8423682133d903,2022-09-08_13h52.42.087,CGTgamblingSpanTasks,2022.2.1,MacIntel,59.97361161,,,,,,,,,,,,,,,,,,,,,,,,,,,,,,,,,,,,,,,,,,,,,,,,,,,,,,,,,,,,,,,1,,,,,,,,,,,,,,,,,,,,,,,,,496,0.016108398,-0.423476562,1,0,0,cont_button,0,0,0,0,1,1,,,,,,,,,,,,,,,,,,,,,,,,,,,,,,,,,,,
,,614aec96ea8423682133d903,2022-09-08_13h52.42.087,CGTgamblingSpanTasks,2022.2.1,MacIntel,59.97361161,,,,,,,,,,,,,,,,,,,,,,,,,,,,,,,,,,,,,,,,,,,,,,,,,,,,,,,,,,,,,,,,,,,,,,,,,,,,,,,,,,"[1,3,2,7]",0,0,0,0,1,,,,,,,,,,,,,,,,,,,,,,,,,,,,,,,,,,,,,,,,,,,,,,,,
,,614aec96ea8423682133d903,2022-09-08_13h52.42.087,CGTgamblingSpanTasks,2022.2.1,MacIntel,59.97361161,,,,,,,,,,,,,,,,,,,,,,,,,,,,,,,,,,,,,,,,,,,,,,,,,,,,,,,,,,,,,,,,,,,,,,,,,,,,,,,,,,"[1,3,2,7]",1,0,1,0,1,,,,,,,,,,,,,,,,,,,,,,,,,,,,,,,,,,,,,,,,,,,,,,,,
,,614aec96ea8423682133d903,2022-09-08_13h52.42.087,CGTgamblingSpanTasks,2022.2.1,MacIntel,59.97361161,,,,,,,,,,,,,,,,,,,,,,,,,,,,,,,,,,,,,,,,,,,,,,,,,,,,,,,,,,,,,,,,,,,,,,,,,,,,,,,,,,"[1,3,2,7]",2,0,2,0,1,,,,,,,,,,,,,,,,,,,,,,,,,,,,,,,,,,,,,,,,,,,,,,,,
,,614aec96ea8423682133d903,2022-09-08_13h52.42.087,CGTgamblingSpanTasks,2022.2.1,MacIntel,59.97361161,,,,,,,,,,,,,,,,,,,,,,,,,,,,,,,,,,,,,,,,,,,,,,,,,,,,,,,,,,,,,,,,,,,,,,,,,,,,,,,,,,"[1,3,2,7]",3,0,3,0,1,,,,,,,,,,,,,,,,,,,,,,,,,,,,,,,,,,,,,,,,,,,,,,,,
,,614aec96ea8423682133d903,2022-09-08_13h52.42.087,CGTgamblingSpanTasks,2022.2.1,MacIntel,59.97361161,,,,,,,,,,,,,,,,,,,,,,,,,,,,,,,,,,,,,,,,,,,,,,,,,,,,,,,,,,,,,,,1,,,,,,,,,,,,,,,,,,,,,,,,,1327,0.016108398,-0.423476562,1,0,0,cont_button,0,1,1,1,1,2,,,,,,,,,,,,,,,,,,,,,,,,,,,,,,,,,,,
,,614aec96ea8423682133d903,2022-09-08_13h52.42.087,CGTgamblingSpanTasks,2022.2.1,MacIntel,59.97361161,,,,,,,,,,,,,,,,,,,,,,,,,,,,,,,,,,,,,,,,,,,,,,,,,,,,,,,,,,,,,,,,,,,,,,,,,,,,,,,,,,"[9,8,3,6,5]",0,0,0,0,1,,,,,,,,,,,,,,,,,,,,,,,,,,,,,,,,,,,,,,,,,,,,,,,,
,,614aec96ea8423682133d903,2022-09-08_13h52.42.087,CGTgamblingSpanTasks,2022.2.1,MacIntel,59.97361161,,,,,,,,,,,,,,,,,,,,,,,,,,,,,,,,,,,,,,,,,,,,,,,,,,,,,,,,,,,,,,,,,,,,,,,,,,,,,,,,,,"[9,8,3,6,5]",1,0,1,0,1,,,,,,,,,,,,,,,,,,,,,,,,,,,,,,,,,,,,,,,,,,,,,,,,
,,614aec96ea8423682133d903,2022-09-08_13h52.42.087,CGTgamblingSpanTasks,2022.2.1,MacIntel,59.97361161,,,,,,,,,,,,,,,,,,,,,,,,,,,,,,,,,,,,,,,,,,,,,,,,,,,,,,,,,,,,,,,,,,,,,,,,,,,,,,,,,,"[9,8,3,6,5]",2,0,2,0,1,,,,,,,,,,,,,,,,,,,,,,,,,,,,,,,,,,,,,,,,,,,,,,,,
,,614aec96ea8423682133d903,2022-09-08_13h52.42.087,CGTgamblingSpanTasks,2022.2.1,MacIntel,59.97361161,,,,,,,,,,,,,,,,,,,,,,,,,,,,,,,,,,,,,,,,,,,,,,,,,,,,,,,,,,,,,,,,,,,,,,,,,,,,,,,,,,"[9,8,3,6,5]",3,0,3,0,1,,,,,,,,,,,,,,,,,,,,,,,,,,,,,,,,,,,,,,,,,,,,,,,,
,,614aec96ea8423682133d903,2022-09-08_13h52.42.087,CGTgamblingSpanTasks,2022.2.1,MacIntel,59.97361161,,,,,,,,,,,,,,,,,,,,,,,,,,,,,,,,,,,,,,,,,,,,,,,,,,,,,,,,,,,,,,,,,,,,,,,,,,,,,,,,,,"[9,8,3,6,5]",4,0,4,0,1,,,,,,,,,,,,,,,,,,,,,,,,,,,,,,,,,,,,,,,,,,,,,,,,
,,614aec96ea8423682133d903,2022-09-08_13h52.42.087,CGTgamblingSpanTasks,2022.2.1,MacIntel,59.97361161,,,,,,,,,,,,,,,,,,,,,,,,,,,,,,,,,,,,,,,,,,,,,,,,,,,,,,,,,,,,,,,1,,,,,,,,,,,,,,,,,,,,,,,,,98365,0.016108398,-0.423476562,1,0,0,cont_button,0,2,2,2,1,3,,,,,,,,,,,,,,,,,,,,,,,,,,,,,,,,,,,
,,614aec96ea8423682133d903,2022-09-08_13h52.42.087,CGTgamblingSpanTasks,2022.2.1,MacIntel,59.97361161,,,,,,,,,,,,,,,,,,,,,,,,,,,,,,,,,,,,,,,,,,,,,,,,,,,,,,,,,,,,,,,,,,,,,,,,,,,,,,,,,,"[6,8,4,1,2,9]",0,0,0,0,1,,,,,,,,,,,,,,,,,,,,,,,,,,,,,,,,,,,,,,,,,,,,,,,,
,,614aec96ea8423682133d903,2022-09-08_13h52.42.087,CGTgamblingSpanTasks,2022.2.1,MacIntel,59.97361161,,,,,,,,,,,,,,,,,,,,,,,,,,,,,,,,,,,,,,,,,,,,,,,,,,,,,,,,,,,,,,,,,,,,,,,,,,,,,,,,,,"[6,8,4,1,2,9]",1,0,1,0,1,,,,,,,,,,,,,,,,,,,,,,,,,,,,,,,,,,,,,,,,,,,,,,,,
,,614aec96ea8423682133d903,2022-09-08_13h52.42.087,CGTgamblingSpanTasks,2022.2.1,MacIntel,59.97361161,,,,,,,,,,,,,,,,,,,,,,,,,,,,,,,,,,,,,,,,,,,,,,,,,,,,,,,,,,,,,,,,,,,,,,,,,,,,,,,,,,"[6,8,4,1,2,9]",2,0,2,0,1,,,,,,,,,,,,,,,,,,,,,,,,,,,,,,,,,,,,,,,,,,,,,,,,
,,614aec96ea8423682133d903,2022-09-08_13h52.42.087,CGTgamblingSpanTasks,2022.2.1,MacIntel,59.97361161,,,,,,,,,,,,,,,,,,,,,,,,,,,,,,,,,,,,,,,,,,,,,,,,,,,,,,,,,,,,,,,,,,,,,,,,,,,,,,,,,,"[6,8,4,1,2,9]",3,0,3,0,1,,,,,,,,,,,,,,,,,,,,,,,,,,,,,,,,,,,,,,,,,,,,,,,,
,,614aec96ea8423682133d903,2022-09-08_13h52.42.087,CGTgamblingSpanTasks,2022.2.1,MacIntel,59.97361161,,,,,,,,,,,,,,,,,,,,,,,,,,,,,,,,,,,,,,,,,,,,,,,,,,,,,,,,,,,,,,,,,,,,,,,,,,,,,,,,,,"[6,8,4,1,2,9]",4,0,4,0,1,,,,,,,,,,,,,,,,,,,,,,,,,,,,,,,,,,,,,,,,,,,,,,,,
,,614aec96ea8423682133d903,2022-09-08_13h52.42.087,CGTgamblingSpanTasks,2022.2.1,MacIntel,59.97361161,,,,,,,,,,,,,,,,,,,,,,,,,,,,,,,,,,,,,,,,,,,,,,,,,,,,,,,,,,,,,,,,,,,,,,,,,,,,,,,,,,"[6,8,4,1,2,9]",5,0,5,0,1,,,,,,,,,,,,,,,,,,,,,,,,,,,,,,,,,,,,,,,,,,,,,,,,
,,614aec96ea8423682133d903,2022-09-08_13h52.42.087,CGTgamblingSpanTasks,2022.2.1,MacIntel,59.97361161,,,,,,,,,,,,,,,,,,,,,,,,,,,,,,,,,,,,,,,,,,,,,,,,,,,,,,,,,,,,,,,1,,,,,,,,,,,,,,,,,,,,,,,,,684129,0.016108398,-0.423476562,1,0,0,cont_button,0,3,3,3,1,4,,,,,,,,,,,,,,,,,,,,,,,,,,,,,,,,,,,
,,614aec96ea8423682133d903,2022-09-08_13h52.42.087,CGTgamblingSpanTasks,2022.2.1,MacIntel,59.97361161,,,,,,,,,,,,,,,,,,,,,,,,,,,,,,,,,,,,,,,,,,,,,,,,,,,,,,,,,,,,,,,,,,,,,,,,,,,,,,,,,,"[4,1,9,5,3,8,7]",0,0,0,0,1,,,,,,,,,,,,,,,,,,,,,,,,,,,,,,,,,,,,,,,,,,,,,,,,
,,614aec96ea8423682133d903,2022-09-08_13h52.42.087,CGTgamblingSpanTasks,2022.2.1,MacIntel,59.97361161,,,,,,,,,,,,,,,,,,,,,,,,,,,,,,,,,,,,,,,,,,,,,,,,,,,,,,,,,,,,,,,,,,,,,,,,,,,,,,,,,,"[4,1,9,5,3,8,7]",1,0,1,0,1,,,,,,,,,,,,,,,,,,,,,,,,,,,,,,,,,,,,,,,,,,,,,,,,
,,614aec96ea8423682133d903,2022-09-08_13h52.42.087,CGTgamblingSpanTasks,2022.2.1,MacIntel,59.97361161,,,,,,,,,,,,,,,,,,,,,,,,,,,,,,,,,,,,,,,,,,,,,,,,,,,,,,,,,,,,,,,,,,,,,,,,,,,,,,,,,,"[4,1,9,5,3,8,7]",2,0,2,0,1,,,,,,,,,,,,,,,,,,,,,,,,,,,,,,,,,,,,,,,,,,,,,,,,
,,614aec96ea8423682133d903,2022-09-08_13h52.42.087,CGTgamblingSpanTasks,2022.2.1,MacIntel,59.97361161,,,,,,,,,,,,,,,,,,,,,,,,,,,,,,,,,,,,,,,,,,,,,,,,,,,,,,,,,,,,,,,,,,,,,,,,,,,,,,,,,,"[4,1,9,5,3,8,7]",3,0,3,0,1,,,,,,,,,,,,,,,,,,,,,,,,,,,,,,,,,,,,,,,,,,,,,,,,
,,614aec96ea8423682133d903,2022-09-08_13h52.42.087,CGTgamblingSpanTasks,2022.2.1,MacIntel,59.97361161,,,,,,,,,,,,,,,,,,,,,,,,,,,,,,,,,,,,,,,,,,,,,,,,,,,,,,,,,,,,,,,,,,,,,,,,,,,,,,,,,,"[4,1,9,5,3,8,7]",4,0,4,0,1,,,,,,,,,,,,,,,,,,,,,,,,,,,,,,,,,,,,,,,,,,,,,,,,
,,614aec96ea8423682133d903,2022-09-08_13h52.42.087,CGTgamblingSpanTasks,2022.2.1,MacIntel,59.97361161,,,,,,,,,,,,,,,,,,,,,,,,,,,,,,,,,,,,,,,,,,,,,,,,,,,,,,,,,,,,,,,,,,,,,,,,,,,,,,,,,,"[4,1,9,5,3,8,7]",5,0,5,0,1,,,,,,,,,,,,,,,,,,,,,,,,,,,,,,,,,,,,,,,,,,,,,,,,
,,614aec96ea8423682133d903,2022-09-08_13h52.42.087,CGTgamblingSpanTasks,2022.2.1,MacIntel,59.97361161,,,,,,,,,,,,,,,,,,,,,,,,,,,,,,,,,,,,,,,,,,,,,,,,,,,,,,,,,,,,,,,,,,,,,,,,,,,,,,,,,,"[4,1,9,5,3,8,7]",6,0,6,0,1,,,,,,,,,,,,,,,,,,,,,,,,,,,,,,,,,,,,,,,,,,,,,,,,
,,614aec96ea8423682133d903,2022-09-08_13h52.42.087,CGTgamblingSpanTasks,2022.2.1,MacIntel,59.97361161,,,,,,,,,,,,,,,,,,,,,,,,,,,,,,,,,,,,,,,,,,,,,,,,,,,,,,,,,,,,,,,1,,,,,,,,,,,,,,,,,,,,,,,,,4195387,0.016108398,-0.423476562,1,0,0,cont_button,0,4,4,4,1,5,,,,,,,,,,,,,,,,,,,,,,,,,,,,,,,,,,,
,,614aec96ea8423682133d903,2022-09-08_13h52.42.087,CGTgamblingSpanTasks,2022.2.1,MacIntel,59.97361161,,,,,,,,,,,,,,,,,,,,,,,,,,,,,,,,,,,,,,,,,,,,,,,,,,,,,,,,,,,,,,,,,,,,,,,,,,,,,,,,,,"[6,9,8,2,3,1,4,5]",0,0,0,0,1,,,,,,,,,,,,,,,,,,,,,,,,,,,,,,,,,,,,,,,,,,,,,,,,
,,614aec96ea8423682133d903,2022-09-08_13h52.42.087,CGTgamblingSpanTasks,2022.2.1,MacIntel,59.97361161,,,,,,,,,,,,,,,,,,,,,,,,,,,,,,,,,,,,,,,,,,,,,,,,,,,,,,,,,,,,,,,,,,,,,,,,,,,,,,,,,,"[6,9,8,2,3,1,4,5]",1,0,1,0,1,,,,,,,,,,,,,,,,,,,,,,,,,,,,,,,,,,,,,,,,,,,,,,,,
,,614aec96ea8423682133d903,2022-09-08_13h52.42.087,CGTgamblingSpanTasks,2022.2.1,MacIntel,59.97361161,,,,,,,,,,,,,,,,,,,,,,,,,,,,,,,,,,,,,,,,,,,,,,,,,,,,,,,,,,,,,,,,,,,,,,,,,,,,,,,,,,"[6,9,8,2,3,1,4,5]",2,0,2,0,1,,,,,,,,,,,,,,,,,,,,,,,,,,,,,,,,,,,,,,,,,,,,,,,,
,,614aec96ea8423682133d903,2022-09-08_13h52.42.087,CGTgamblingSpanTasks,2022.2.1,MacIntel,59.97361161,,,,,,,,,,,,,,,,,,,,,,,,,,,,,,,,,,,,,,,,,,,,,,,,,,,,,,,,,,,,,,,,,,,,,,,,,,,,,,,,,,"[6,9,8,2,3,1,4,5]",3,0,3,0,1,,,,,,,,,,,,,,,,,,,,,,,,,,,,,,,,,,,,,,,,,,,,,,,,
,,614aec96ea8423682133d903,2022-09-08_13h52.42.087,CGTgamblingSpanTasks,2022.2.1,MacIntel,59.97361161,,,,,,,,,,,,,,,,,,,,,,,,,,,,,,,,,,,,,,,,,,,,,,,,,,,,,,,,,,,,,,,,,,,,,,,,,,,,,,,,,,"[6,9,8,2,3,1,4,5]",4,0,4,0,1,,,,,,,,,,,,,,,,,,,,,,,,,,,,,,,,,,,,,,,,,,,,,,,,
,,614aec96ea8423682133d903,2022-09-08_13h52.42.087,CGTgamblingSpanTasks,2022.2.1,MacIntel,59.97361161,,,,,,,,,,,,,,,,,,,,,,,,,,,,,,,,,,,,,,,,,,,,,,,,,,,,,,,,,,,,,,,,,,,,,,,,,,,,,,,,,,"[6,9,8,2,3,1,4,5]",5,0,5,0,1,,,,,,,,,,,,,,,,,,,,,,,,,,,,,,,,,,,,,,,,,,,,,,,,
,,614aec96ea8423682133d903,2022-09-08_13h52.42.087,CGTgamblingSpanTasks,2022.2.1,MacIntel,59.97361161,,,,,,,,,,,,,,,,,,,,,,,,,,,,,,,,,,,,,,,,,,,,,,,,,,,,,,,,,,,,,,,,,,,,,,,,,,,,,,,,,,"[6,9,8,2,3,1,4,5]",6,0,6,0,1,,,,,,,,,,,,,,,,,,,,,,,,,,,,,,,,,,,,,,,,,,,,,,,,
,,614aec96ea8423682133d903,2022-09-08_13h52.42.087,CGTgamblingSpanTasks,2022.2.1,MacIntel,59.97361161,,,,,,,,,,,,,,,,,,,,,,,,,,,,,,,,,,,,,,,,,,,,,,,,,,,,,,,,,,,,,,,,,,,,,,,,,,,,,,,,,,"[6,9,8,2,3,1,4,5]",7,0,7,0,1,,,,,,,,,,,,,,,,,,,,,,,,,,,,,,,,,,,,,,,,,,,,,,,,
,,614aec96ea8423682133d903,2022-09-08_13h52.42.087,CGTgamblingSpanTasks,2022.2.1,MacIntel,59.97361161,,,,,,,,,,,,,,,,,,,,,,,,,,,,,,,,,,,,,,,,,,,,,,,,,,,,,,,,,,,,,,,0,,,,,,,,,,,,,,,,,,,,,,,,,69823154,0.017109375,-0.429858398,1,0,0,cont_button,0,5,5,5,1,6,,,,,,,,,,,,,,,,,,,,,,,,,,,,,,,,,,,
,,614aec96ea8423682133d903,2022-09-08_13h52.42.087,CGTgamblingSpanTasks,2022.2.1,MacIntel,59.97361161,,,,,,,,,,,,,,,,,,,,,,,,,,,,,,,,,,,,,,,,,,,,,,,,,,,,,,,,,,,,,,,,,,,,,,,,,,,,,,,,,,"[5,1,3,4,2,7,8,6]",0,0,0,0,1,,,,,,,,,,,,,,,,,,,,,,,,,,,,,,,,,,,,,,,,,,,,,,,,
,,614aec96ea8423682133d903,2022-09-08_13h52.42.087,CGTgamblingSpanTasks,2022.2.1,MacIntel,59.97361161,,,,,,,,,,,,,,,,,,,,,,,,,,,,,,,,,,,,,,,,,,,,,,,,,,,,,,,,,,,,,,,,,,,,,,,,,,,,,,,,,,"[5,1,3,4,2,7,8,6]",1,0,1,0,1,,,,,,,,,,,,,,,,,,,,,,,,,,,,,,,,,,,,,,,,,,,,,,,,
,,614aec96ea8423682133d903,2022-09-08_13h52.42.087,CGTgamblingSpanTasks,2022.2.1,MacIntel,59.97361161,,,,,,,,,,,,,,,,,,,,,,,,,,,,,,,,,,,,,,,,,,,,,,,,,,,,,,,,,,,,,,,,,,,,,,,,,,,,,,,,,,"[5,1,3,4,2,7,8,6]",2,0,2,0,1,,,,,,,,,,,,,,,,,,,,,,,,,,,,,,,,,,,,,,,,,,,,,,,,
,,614aec96ea8423682133d903,2022-09-08_13h52.42.087,CGTgamblingSpanTasks,2022.2.1,MacIntel,59.97361161,,,,,,,,,,,,,,,,,,,,,,,,,,,,,,,,,,,,,,,,,,,,,,,,,,,,,,,,,,,,,,,,,,,,,,,,,,,,,,,,,,"[5,1,3,4,2,7,8,6]",3,0,3,0,1,,,,,,,,,,,,,,,,,,,,,,,,,,,,,,,,,,,,,,,,,,,,,,,,
,,614aec96ea8423682133d903,2022-09-08_13h52.42.087,CGTgamblingSpanTasks,2022.2.1,MacIntel,59.97361161,,,,,,,,,,,,,,,,,,,,,,,,,,,,,,,,,,,,,,,,,,,,,,,,,,,,,,,,,,,,,,,,,,,,,,,,,,,,,,,,,,"[5,1,3,4,2,7,8,6]",4,0,4,0,1,,,,,,,,,,,,,,,,,,,,,,,,,,,,,,,,,,,,,,,,,,,,,,,,
,,614aec96ea8423682133d903,2022-09-08_13h52.42.087,CGTgamblingSpanTasks,2022.2.1,MacIntel,59.97361161,,,,,,,,,,,,,,,,,,,,,,,,,,,,,,,,,,,,,,,,,,,,,,,,,,,,,,,,,,,,,,,,,,,,,,,,,,,,,,,,,,"[5,1,3,4,2,7,8,6]",5,0,5,0,1,,,,,,,,,,,,,,,,,,,,,,,,,,,,,,,,,,,,,,,,,,,,,,,,
,,614aec96ea8423682133d903,2022-09-08_13h52.42.087,CGTgamblingSpanTasks,2022.2.1,MacIntel,59.97361161,,,,,,,,,,,,,,,,,,,,,,,,,,,,,,,,,,,,,,,,,,,,,,,,,,,,,,,,,,,,,,,,,,,,,,,,,,,,,,,,,,"[5,1,3,4,2,7,8,6]",6,0,6,0,1,,,,,,,,,,,,,,,,,,,,,,,,,,,,,,,,,,,,,,,,,,,,,,,,
,,614aec96ea8423682133d903,2022-09-08_13h52.42.087,CGTgamblingSpanTasks,2022.2.1,MacIntel,59.97361161,,,,,,,,,,,,,,,,,,,,,,,,,,,,,,,,,,,,,,,,,,,,,,,,,,,,,,,,,,,,,,,,,,,,,,,,,,,,,,,,,,"[5,1,3,4,2,7,8,6]",7,0,7,0,1,,,,,,,,,,,,,,,,,,,,,,,,,,,,,,,,,,,,,,,,,,,,,,,,
,,614aec96ea8423682133d903,2022-09-08_13h52.42.087,CGTgamblingSpanTasks,2022.2.1,MacIntel,59.97361161,,,,,,,,,,,,,,,,,,,,,,,,,,,,,,,,,,,,,,,,,,,,,,,,,,,,,,,,,,,,,,,0,,,,,,,,,,,,,,,,,,,,,,,,,5142376,-0.006655273,-0.400537109,1,0,0,cont_button,0,6,6,6,1,7,,,,,,,,,,,,,,,,,,,,,,,,,,,,,,,,,,,
,,614aec96ea8423682133d903,2022-09-08_13h52.42.087,CGTgamblingSpanTasks,2022.2.1,MacIntel,59.97361161,,,,,,,,,,,,,,,,,,,,,,,,,,,,,,,,,,,,,,,,,,,,,,,,,,,,,,,,,,,,,,,,,,,,,,,,,,,,,,,,,,"[7,2,5,6,9,4,3]",0,0,0,0,1,,,,,,,,,,,,,,,,,,,,,,,,,,,,,,,,,,,,,,,,,,,,,,,,
,,614aec96ea8423682133d903,2022-09-08_13h52.42.087,CGTgamblingSpanTasks,2022.2.1,MacIntel,59.97361161,,,,,,,,,,,,,,,,,,,,,,,,,,,,,,,,,,,,,,,,,,,,,,,,,,,,,,,,,,,,,,,,,,,,,,,,,,,,,,,,,,"[7,2,5,6,9,4,3]",1,0,1,0,1,,,,,,,,,,,,,,,,,,,,,,,,,,,,,,,,,,,,,,,,,,,,,,,,
,,614aec96ea8423682133d903,2022-09-08_13h52.42.087,CGTgamblingSpanTasks,2022.2.1,MacIntel,59.97361161,,,,,,,,,,,,,,,,,,,,,,,,,,,,,,,,,,,,,,,,,,,,,,,,,,,,,,,,,,,,,,,,,,,,,,,,,,,,,,,,,,"[7,2,5,6,9,4,3]",2,0,2,0,1,,,,,,,,,,,,,,,,,,,,,,,,,,,,,,,,,,,,,,,,,,,,,,,,
,,614aec96ea8423682133d903,2022-09-08_13h52.42.087,CGTgamblingSpanTasks,2022.2.1,MacIntel,59.97361161,,,,,,,,,,,,,,,,,,,,,,,,,,,,,,,,,,,,,,,,,,,,,,,,,,,,,,,,,,,,,,,,,,,,,,,,,,,,,,,,,,"[7,2,5,6,9,4,3]",3,0,3,0,1,,,,,,,,,,,,,,,,,,,,,,,,,,,,,,,,,,,,,,,,,,,,,,,,
,,614aec96ea8423682133d903,2022-09-08_13h52.42.087,CGTgamblingSpanTasks,2022.2.1,MacIntel,59.97361161,,,,,,,,,,,,,,,,,,,,,,,,,,,,,,,,,,,,,,,,,,,,,,,,,,,,,,,,,,,,,,,,,,,,,,,,,,,,,,,,,,"[7,2,5,6,9,4,3]",4,0,4,0,1,,,,,,,,,,,,,,,,,,,,,,,,,,,,,,,,,,,,,,,,,,,,,,,,
,,614aec96ea8423682133d903,2022-09-08_13h52.42.087,CGTgamblingSpanTasks,2022.2.1,MacIntel,59.97361161,,,,,,,,,,,,,,,,,,,,,,,,,,,,,,,,,,,,,,,,,,,,,,,,,,,,,,,,,,,,,,,,,,,,,,,,,,,,,,,,,,"[7,2,5,6,9,4,3]",5,0,5,0,1,,,,,,,,,,,,,,,,,,,,,,,,,,,,,,,,,,,,,,,,,,,,,,,,
,,614aec96ea8423682133d903,2022-09-08_13h52.42.087,CGTgamblingSpanTasks,2022.2.1,MacIntel,59.97361161,,,,,,,,,,,,,,,,,,,,,,,,,,,,,,,,,,,,,,,,,,,,,,,,,,,,,,,,,,,,,,,,,,,,,,,,,,,,,,,,,,"[7,2,5,6,9,4,3]",6,0,6,0,1,,,,,,,,,,,,,,,,,,,,,,,,,,,,,,,,,,,,,,,,,,,,,,,,
,,614aec96ea8423682133d903,2022-09-08_13h52.42.087,CGTgamblingSpanTasks,2022.2.1,MacIntel,59.97361161,,,,,,,,,,,,,,,,,,,,,,,,,,,,,,,,,,,,,,,,,,,,,,,,,,,,,,,,,,,,,,,0,,,,,,,,,,,,,,,,,,,,,,,,,729634,0.019677734,-0.38315918,1,0,0,cont_button,0,7,7,7,1,8,,,,,,,,,,,,,,,,,,,,,,,,,,,,,,,,,,,
,,614aec96ea8423682133d903,2022-09-08_13h52.42.087,CGTgamblingSpanTasks,2022.2.1,MacIntel,59.97361161,,,,,,,,,,,,,,,,,,,,,,,,,,,,,,,,,,,,,,,,,,,,,,,,,,,,,,,,,,,,,,,,,,,,,,,,,,,,,,,,,,"[8,4,6,5,1,9,2]",0,0,0,0,1,,,,,,,,,,,,,,,,,,,,,,,,,,,,,,,,,,,,,,,,,,,,,,,,
,,614aec96ea8423682133d903,2022-09-08_13h52.42.087,CGTgamblingSpanTasks,2022.2.1,MacIntel,59.97361161,,,,,,,,,,,,,,,,,,,,,,,,,,,,,,,,,,,,,,,,,,,,,,,,,,,,,,,,,,,,,,,,,,,,,,,,,,,,,,,,,,"[8,4,6,5,1,9,2]",1,0,1,0,1,,,,,,,,,,,,,,,,,,,,,,,,,,,,,,,,,,,,,,,,,,,,,,,,
,,614aec96ea8423682133d903,2022-09-08_13h52.42.087,CGTgamblingSpanTasks,2022.2.1,MacIntel,59.97361161,,,,,,,,,,,,,,,,,,,,,,,,,,,,,,,,,,,,,,,,,,,,,,,,,,,,,,,,,,,,,,,,,,,,,,,,,,,,,,,,,,"[8,4,6,5,1,9,2]",2,0,2,0,1,,,,,,,,,,,,,,,,,,,,,,,,,,,,,,,,,,,,,,,,,,,,,,,,
,,614aec96ea8423682133d903,2022-09-08_13h52.42.087,CGTgamblingSpanTasks,2022.2.1,MacIntel,59.97361161,,,,,,,,,,,,,,,,,,,,,,,,,,,,,,,,,,,,,,,,,,,,,,,,,,,,,,,,,,,,,,,,,,,,,,,,,,,,,,,,,,"[8,4,6,5,1,9,2]",3,0,3,0,1,,,,,,,,,,,,,,,,,,,,,,,,,,,,,,,,,,,,,,,,,,,,,,,,
,,614aec96ea8423682133d903,2022-09-08_13h52.42.087,CGTgamblingSpanTasks,2022.2.1,MacIntel,59.97361161,,,,,,,,,,,,,,,,,,,,,,,,,,,,,,,,,,,,,,,,,,,,,,,,,,,,,,,,,,,,,,,,,,,,,,,,,,,,,,,,,,"[8,4,6,5,1,9,2]",4,0,4,0,1,,,,,,,,,,,,,,,,,,,,,,,,,,,,,,,,,,,,,,,,,,,,,,,,
,,614aec96ea8423682133d903,2022-09-08_13h52.42.087,CGTgamblingSpanTasks,2022.2.1,MacIntel,59.97361161,,,,,,,,,,,,,,,,,,,,,,,,,,,,,,,,,,,,,,,,,,,,,,,,,,,,,,,,,,,,,,,,,,,,,,,,,,,,,,,,,,"[8,4,6,5,1,9,2]",5,0,5,0,1,,,,,,,,,,,,,,,,,,,,,,,,,,,,,,,,,,,,,,,,,,,,,,,,
,,614aec96ea8423682133d903,2022-09-08_13h52.42.087,CGTgamblingSpanTasks,2022.2.1,MacIntel,59.97361161,,,,,,,,,,,,,,,,,,,,,,,,,,,,,,,,,,,,,,,,,,,,,,,,,,,,,,,,,,,,,,,,,,,,,,,,,,,,,,,,,,"[8,4,6,5,1,9,2]",6,0,6,0,1,,,,,,,,,,,,,,,,,,,,,,,,,,,,,,,,,,,,,,,,,,,,,,,,
,,614aec96ea8423682133d903,2022-09-08_13h52.42.087,CGTgamblingSpanTasks,2022.2.1,MacIntel,59.97361161,,,,,,,,,,,,,,,,,,,,,,,,,,,,,,,,,,,,,,,,,,,,,,,,,,,,,,,,,,,,,,,0,,,,,,,,,,,,,,,,,,,,,,,,,8465129,0.019677734,-0.38315918,1,0,0,cont_button,0,8,8,8,1,9,,,,,,,,,,,,,,,,,,,,,,,,,,,,,,,,,,,
,,614aec96ea8423682133d903,2022-09-08_13h52.42.087,CGTgamblingSpanTasks,2022.2.1,MacIntel,59.97361161,,,,,,,,,,,,,,,,,,,,,,,,,,,,,,,,,,,,,,,,,,,,,,,,,,,,,,,,,,,,,,,,,,,,,,,,,,,,,,,,,,"[3,7,1,8,5,6]",0,0,0,0,1,,,,,,,,,,,,,,,,,,,,,,,,,,,,,,,,,,,,,,,,,,,,,,,,
,,614aec96ea8423682133d903,2022-09-08_13h52.42.087,CGTgamblingSpanTasks,2022.2.1,MacIntel,59.97361161,,,,,,,,,,,,,,,,,,,,,,,,,,,,,,,,,,,,,,,,,,,,,,,,,,,,,,,,,,,,,,,,,,,,,,,,,,,,,,,,,,"[3,7,1,8,5,6]",1,0,1,0,1,,,,,,,,,,,,,,,,,,,,,,,,,,,,,,,,,,,,,,,,,,,,,,,,
,,614aec96ea8423682133d903,2022-09-08_13h52.42.087,CGTgamblingSpanTasks,2022.2.1,MacIntel,59.97361161,,,,,,,,,,,,,,,,,,,,,,,,,,,,,,,,,,,,,,,,,,,,,,,,,,,,,,,,,,,,,,,,,,,,,,,,,,,,,,,,,,"[3,7,1,8,5,6]",2,0,2,0,1,,,,,,,,,,,,,,,,,,,,,,,,,,,,,,,,,,,,,,,,,,,,,,,,
,,614aec96ea8423682133d903,2022-09-08_13h52.42.087,CGTgamblingSpanTasks,2022.2.1,MacIntel,59.97361161,,,,,,,,,,,,,,,,,,,,,,,,,,,,,,,,,,,,,,,,,,,,,,,,,,,,,,,,,,,,,,,,,,,,,,,,,,,,,,,,,,"[3,7,1,8,5,6]",3,0,3,0,1,,,,,,,,,,,,,,,,,,,,,,,,,,,,,,,,,,,,,,,,,,,,,,,,
,,614aec96ea8423682133d903,2022-09-08_13h52.42.087,CGTgamblingSpanTasks,2022.2.1,MacIntel,59.97361161,,,,,,,,,,,,,,,,,,,,,,,,,,,,,,,,,,,,,,,,,,,,,,,,,,,,,,,,,,,,,,,,,,,,,,,,,,,,,,,,,,"[3,7,1,8,5,6]",4,0,4,0,1,,,,,,,,,,,,,,,,,,,,,,,,,,,,,,,,,,,,,,,,,,,,,,,,
,,614aec96ea8423682133d903,2022-09-08_13h52.42.087,CGTgamblingSpanTasks,2022.2.1,MacIntel,59.97361161,,,,,,,,,,,,,,,,,,,,,,,,,,,,,,,,,,,,,,,,,,,,,,,,,,,,,,,,,,,,,,,,,,,,,,,,,,,,,,,,,,"[3,7,1,8,5,6]",5,0,5,0,1,,,,,,,,,,,,,,,,,,,,,,,,,,,,,,,,,,,,,,,,,,,,,,,,
,,614aec96ea8423682133d903,2022-09-08_13h52.42.087,CGTgamblingSpanTasks,2022.2.1,MacIntel,59.97361161,,,,,,,,,,,,,,,,,,,,,,,,,,,,,,,,,,,,,,,,,,,,,,,,,,,,,,,,,,,,,,,1,,,,,,,,,,,,,,,,,,,,,,,,,371856,0.019677734,-0.38315918,1,0,0,cont_button,0,9,9,9,1,10,,,,,,,,,,,,,,,,,,,,,,,,,,,,,,,,,,,
,,614aec96ea8423682133d903,2022-09-08_13h52.42.087,CGTgamblingSpanTasks,2022.2.1,MacIntel,59.97361161,,,,,,,,,,,,,,,,,,,,,,,,,,,,,,,,,,,,,,,,,,,,,,,,,,,,,,,,,,,,,,,,,,,,,,,,,,,,,,,,,,"[9,3,8,5,4,6,7]",0,0,0,0,1,,,,,,,,,,,,,,,,,,,,,,,,,,,,,,,,,,,,,,,,,,,,,,,,
,,614aec96ea8423682133d903,2022-09-08_13h52.42.087,CGTgamblingSpanTasks,2022.2.1,MacIntel,59.97361161,,,,,,,,,,,,,,,,,,,,,,,,,,,,,,,,,,,,,,,,,,,,,,,,,,,,,,,,,,,,,,,,,,,,,,,,,,,,,,,,,,"[9,3,8,5,4,6,7]",1,0,1,0,1,,,,,,,,,,,,,,,,,,,,,,,,,,,,,,,,,,,,,,,,,,,,,,,,
,,614aec96ea8423682133d903,2022-09-08_13h52.42.087,CGTgamblingSpanTasks,2022.2.1,MacIntel,59.97361161,,,,,,,,,,,,,,,,,,,,,,,,,,,,,,,,,,,,,,,,,,,,,,,,,,,,,,,,,,,,,,,,,,,,,,,,,,,,,,,,,,"[9,3,8,5,4,6,7]",2,0,2,0,1,,,,,,,,,,,,,,,,,,,,,,,,,,,,,,,,,,,,,,,,,,,,,,,,
,,614aec96ea8423682133d903,2022-09-08_13h52.42.087,CGTgamblingSpanTasks,2022.2.1,MacIntel,59.97361161,,,,,,,,,,,,,,,,,,,,,,,,,,,,,,,,,,,,,,,,,,,,,,,,,,,,,,,,,,,,,,,,,,,,,,,,,,,,,,,,,,"[9,3,8,5,4,6,7]",3,0,3,0,1,,,,,,,,,,,,,,,,,,,,,,,,,,,,,,,,,,,,,,,,,,,,,,,,
,,614aec96ea8423682133d903,2022-09-08_13h52.42.087,CGTgamblingSpanTasks,2022.2.1,MacIntel,59.97361161,,,,,,,,,,,,,,,,,,,,,,,,,,,,,,,,,,,,,,,,,,,,,,,,,,,,,,,,,,,,,,,,,,,,,,,,,,,,,,,,,,"[9,3,8,5,4,6,7]",4,0,4,0,1,,,,,,,,,,,,,,,,,,,,,,,,,,,,,,,,,,,,,,,,,,,,,,,,
,,614aec96ea8423682133d903,2022-09-08_13h52.42.087,CGTgamblingSpanTasks,2022.2.1,MacIntel,59.97361161,,,,,,,,,,,,,,,,,,,,,,,,,,,,,,,,,,,,,,,,,,,,,,,,,,,,,,,,,,,,,,,,,,,,,,,,,,,,,,,,,,"[9,3,8,5,4,6,7]",5,0,5,0,1,,,,,,,,,,,,,,,,,,,,,,,,,,,,,,,,,,,,,,,,,,,,,,,,
,,614aec96ea8423682133d903,2022-09-08_13h52.42.087,CGTgamblingSpanTasks,2022.2.1,MacIntel,59.97361161,,,,,,,,,,,,,,,,,,,,,,,,,,,,,,,,,,,,,,,,,,,,,,,,,,,,,,,,,,,,,,,,,,,,,,,,,,,,,,,,,,"[9,3,8,5,4,6,7]",6,0,6,0,1,,,,,,,,,,,,,,,,,,,,,,,,,,,,,,,,,,,,,,,,,,,,,,,,
,,614aec96ea8423682133d903,2022-09-08_13h52.42.087,CGTgamblingSpanTasks,2022.2.1,MacIntel,59.97361161,,,,,,,,,,,,,,,,,,,,,,,,,,,,,,,,,,,,,,,,,,,,,,,,,,,,,,,,,,,,,,,1,,,,,,,,,,,,,,,,,,,,,,,,,9385467,0.019677734,-0.38315918,1,0,0,cont_button,0,10,10,10,1,11,,,,,,,,,,,,,,,,,,,,,,,,,,,,,,,,,,,
,,614aec96ea8423682133d903,2022-09-08_13h52.42.087,CGTgamblingSpanTasks,2022.2.1,MacIntel,59.97361161,,,,,,,,,,,,,,,,,,,,,,,,,,,,,,,,,,,,,,,,,,,,,,,,,,,,,,,,,,,,,,,,,,,,,,,,,,,,,,,,,,"[4,6,8,3,9,7,2,5]",0,0,0,0,1,,,,,,,,,,,,,,,,,,,,,,,,,,,,,,,,,,,,,,,,,,,,,,,,
,,614aec96ea8423682133d903,2022-09-08_13h52.42.087,CGTgamblingSpanTasks,2022.2.1,MacIntel,59.97361161,,,,,,,,,,,,,,,,,,,,,,,,,,,,,,,,,,,,,,,,,,,,,,,,,,,,,,,,,,,,,,,,,,,,,,,,,,,,,,,,,,"[4,6,8,3,9,7,2,5]",1,0,1,0,1,,,,,,,,,,,,,,,,,,,,,,,,,,,,,,,,,,,,,,,,,,,,,,,,
,,614aec96ea8423682133d903,2022-09-08_13h52.42.087,CGTgamblingSpanTasks,2022.2.1,MacIntel,59.97361161,,,,,,,,,,,,,,,,,,,,,,,,,,,,,,,,,,,,,,,,,,,,,,,,,,,,,,,,,,,,,,,,,,,,,,,,,,,,,,,,,,"[4,6,8,3,9,7,2,5]",2,0,2,0,1,,,,,,,,,,,,,,,,,,,,,,,,,,,,,,,,,,,,,,,,,,,,,,,,
,,614aec96ea8423682133d903,2022-09-08_13h52.42.087,CGTgamblingSpanTasks,2022.2.1,MacIntel,59.97361161,,,,,,,,,,,,,,,,,,,,,,,,,,,,,,,,,,,,,,,,,,,,,,,,,,,,,,,,,,,,,,,,,,,,,,,,,,,,,,,,,,"[4,6,8,3,9,7,2,5]",3,0,3,0,1,,,,,,,,,,,,,,,,,,,,,,,,,,,,,,,,,,,,,,,,,,,,,,,,
,,614aec96ea8423682133d903,2022-09-08_13h52.42.087,CGTgamblingSpanTasks,2022.2.1,MacIntel,59.97361161,,,,,,,,,,,,,,,,,,,,,,,,,,,,,,,,,,,,,,,,,,,,,,,,,,,,,,,,,,,,,,,,,,,,,,,,,,,,,,,,,,"[4,6,8,3,9,7,2,5]",4,0,4,0,1,,,,,,,,,,,,,,,,,,,,,,,,,,,,,,,,,,,,,,,,,,,,,,,,
,,614aec96ea8423682133d903,2022-09-08_13h52.42.087,CGTgamblingSpanTasks,2022.2.1,MacIntel,59.97361161,,,,,,,,,,,,,,,,,,,,,,,,,,,,,,,,,,,,,,,,,,,,,,,,,,,,,,,,,,,,,,,,,,,,,,,,,,,,,,,,,,"[4,6,8,3,9,7,2,5]",5,0,5,0,1,,,,,,,,,,,,,,,,,,,,,,,,,,,,,,,,,,,,,,,,,,,,,,,,
,,614aec96ea8423682133d903,2022-09-08_13h52.42.087,CGTgamblingSpanTasks,2022.2.1,MacIntel,59.97361161,,,,,,,,,,,,,,,,,,,,,,,,,,,,,,,,,,,,,,,,,,,,,,,,,,,,,,,,,,,,,,,,,,,,,,,,,,,,,,,,,,"[4,6,8,3,9,7,2,5]",6,0,6,0,1,,,,,,,,,,,,,,,,,,,,,,,,,,,,,,,,,,,,,,,,,,,,,,,,
,,614aec96ea8423682133d903,2022-09-08_13h52.42.087,CGTgamblingSpanTasks,2022.2.1,MacIntel,59.97361161,,,,,,,,,,,,,,,,,,,,,,,,,,,,,,,,,,,,,,,,,,,,,,,,,,,,,,,,,,,,,,,,,,,,,,,,,,,,,,,,,,"[4,6,8,3,9,7,2,5]",7,0,7,0,1,,,,,,,,,,,,,,,,,,,,,,,,,,,,,,,,,,,,,,,,,,,,,,,,
,,614aec96ea8423682133d903,2022-09-08_13h52.42.087,CGTgamblingSpanTasks,2022.2.1,MacIntel,59.97361161,,,,,,,,,,,,,,,,,,,,,,,,,,,,,,,,,,,,,,,,,,,,,,,,,,,,,,,,,,,,,,,0,,,,,,,,,,,,,,,,,,,,,,,,,438697,0.019677734,-0.38315918,1,0,0,cont_button,0,11,11,11,1,12,,,,,,,,,,,,,,,,,,,,,,,,,,,,,,,,,,,
,,614aec96ea8423682133d903,2022-09-08_13h52.42.087,CGTgamblingSpanTasks,2022.2.1,MacIntel,59.97361161,,,,,,,,,,,,,,,,,,,,,,,,,,,,,,,,,,,,,,,,,,,,,,,,,,,,,,,,,,,,,,,,,,,,,,,,,,,,,,,,,,"[4,3,7,9,1,2,8,5]",0,0,0,0,1,,,,,,,,,,,,,,,,,,,,,,,,,,,,,,,,,,,,,,,,,,,,,,,,
,,614aec96ea8423682133d903,2022-09-08_13h52.42.087,CGTgamblingSpanTasks,2022.2.1,MacIntel,59.97361161,,,,,,,,,,,,,,,,,,,,,,,,,,,,,,,,,,,,,,,,,,,,,,,,,,,,,,,,,,,,,,,,,,,,,,,,,,,,,,,,,,"[4,3,7,9,1,2,8,5]",1,0,1,0,1,,,,,,,,,,,,,,,,,,,,,,,,,,,,,,,,,,,,,,,,,,,,,,,,
,,614aec96ea8423682133d903,2022-09-08_13h52.42.087,CGTgamblingSpanTasks,2022.2.1,MacIntel,59.97361161,,,,,,,,,,,,,,,,,,,,,,,,,,,,,,,,,,,,,,,,,,,,,,,,,,,,,,,,,,,,,,,,,,,,,,,,,,,,,,,,,,"[4,3,7,9,1,2,8,5]",2,0,2,0,1,,,,,,,,,,,,,,,,,,,,,,,,,,,,,,,,,,,,,,,,,,,,,,,,
,,614aec96ea8423682133d903,2022-09-08_13h52.42.087,CGTgamblingSpanTasks,2022.2.1,MacIntel,59.97361161,,,,,,,,,,,,,,,,,,,,,,,,,,,,,,,,,,,,,,,,,,,,,,,,,,,,,,,,,,,,,,,,,,,,,,,,,,,,,,,,,,"[4,3,7,9,1,2,8,5]",3,0,3,0,1,,,,,,,,,,,,,,,,,,,,,,,,,,,,,,,,,,,,,,,,,,,,,,,,
,,614aec96ea8423682133d903,2022-09-08_13h52.42.087,CGTgamblingSpanTasks,2022.2.1,MacIntel,59.97361161,,,,,,,,,,,,,,,,,,,,,,,,,,,,,,,,,,,,,,,,,,,,,,,,,,,,,,,,,,,,,,,,,,,,,,,,,,,,,,,,,,"[4,3,7,9,1,2,8,5]",4,0,4,0,1,,,,,,,,,,,,,,,,,,,,,,,,,,,,,,,,,,,,,,,,,,,,,,,,
,,614aec96ea8423682133d903,2022-09-08_13h52.42.087,CGTgamblingSpanTasks,2022.2.1,MacIntel,59.97361161,,,,,,,,,,,,,,,,,,,,,,,,,,,,,,,,,,,,,,,,,,,,,,,,,,,,,,,,,,,,,,,,,,,,,,,,,,,,,,,,,,"[4,3,7,9,1,2,8,5]",5,0,5,0,1,,,,,,,,,,,,,,,,,,,,,,,,,,,,,,,,,,,,,,,,,,,,,,,,
,,614aec96ea8423682133d903,2022-09-08_13h52.42.087,CGTgamblingSpanTasks,2022.2.1,MacIntel,59.97361161,,,,,,,,,,,,,,,,,,,,,,,,,,,,,,,,,,,,,,,,,,,,,,,,,,,,,,,,,,,,,,,,,,,,,,,,,,,,,,,,,,"[4,3,7,9,1,2,8,5]",6,0,6,0,1,,,,,,,,,,,,,,,,,,,,,,,,,,,,,,,,,,,,,,,,,,,,,,,,
,,614aec96ea8423682133d903,2022-09-08_13h52.42.087,CGTgamblingSpanTasks,2022.2.1,MacIntel,59.97361161,,,,,,,,,,,,,,,,,,,,,,,,,,,,,,,,,,,,,,,,,,,,,,,,,,,,,,,,,,,,,,,,,,,,,,,,,,,,,,,,,,"[4,3,7,9,1,2,8,5]",7,0,7,0,1,,,,,,,,,,,,,,,,,,,,,,,,,,,,,,,,,,,,,,,,,,,,,,,,
,,614aec96ea8423682133d903,2022-09-08_13h52.42.087,CGTgamblingSpanTasks,2022.2.1,MacIntel,59.97361161,,,,,,,,,,,,,,,,,,,,,,,,,,,,,,,,,,,,,,,,,,,,,,,,,,,,,,,,,,,,,,,0,,,,,,,,,,,,,,,,,,,,,,,,,437918,-0.004394531,-0.389360352,1,0,0,cont_button,0,12,12,12,1,13,,,,,,,,,,,,,,,,,,,,,,,,,,,,,,,,,,,
,,614aec96ea8423682133d903,2022-09-08_13h52.42.087,CGTgamblingSpanTasks,2022.2.1,MacIntel,59.97361161,,,,,,,,,,,,,,,,,,,,,,,,,,,,,,,,,,,,,,,,,,,,,,,,,,,,,,,,,,,,,,,,,,,,,,,,,,,,,,,,,,"[1,4,8,3,2,7,5]",0,0,0,0,1,,,,,,,,,,,,,,,,,,,,,,,,,,,,,,,,,,,,,,,,,,,,,,,,
,,614aec96ea8423682133d903,2022-09-08_13h52.42.087,CGTgamblingSpanTasks,2022.2.1,MacIntel,59.97361161,,,,,,,,,,,,,,,,,,,,,,,,,,,,,,,,,,,,,,,,,,,,,,,,,,,,,,,,,,,,,,,,,,,,,,,,,,,,,,,,,,"[1,4,8,3,2,7,5]",1,0,1,0,1,,,,,,,,,,,,,,,,,,,,,,,,,,,,,,,,,,,,,,,,,,,,,,,,
,,614aec96ea8423682133d903,2022-09-08_13h52.42.087,CGTgamblingSpanTasks,2022.2.1,MacIntel,59.97361161,,,,,,,,,,,,,,,,,,,,,,,,,,,,,,,,,,,,,,,,,,,,,,,,,,,,,,,,,,,,,,,,,,,,,,,,,,,,,,,,,,"[1,4,8,3,2,7,5]",2,0,2,0,1,,,,,,,,,,,,,,,,,,,,,,,,,,,,,,,,,,,,,,,,,,,,,,,,
,,614aec96ea8423682133d903,2022-09-08_13h52.42.087,CGTgamblingSpanTasks,2022.2.1,MacIntel,59.97361161,,,,,,,,,,,,,,,,,,,,,,,,,,,,,,,,,,,,,,,,,,,,,,,,,,,,,,,,,,,,,,,,,,,,,,,,,,,,,,,,,,"[1,4,8,3,2,7,5]",3,0,3,0,1,,,,,,,,,,,,,,,,,,,,,,,,,,,,,,,,,,,,,,,,,,,,,,,,
,,614aec96ea8423682133d903,2022-09-08_13h52.42.087,CGTgamblingSpanTasks,2022.2.1,MacIntel,59.97361161,,,,,,,,,,,,,,,,,,,,,,,,,,,,,,,,,,,,,,,,,,,,,,,,,,,,,,,,,,,,,,,,,,,,,,,,,,,,,,,,,,"[1,4,8,3,2,7,5]",4,0,4,0,1,,,,,,,,,,,,,,,,,,,,,,,,,,,,,,,,,,,,,,,,,,,,,,,,
,,614aec96ea8423682133d903,2022-09-08_13h52.42.087,CGTgamblingSpanTasks,2022.2.1,MacIntel,59.97361161,,,,,,,,,,,,,,,,,,,,,,,,,,,,,,,,,,,,,,,,,,,,,,,,,,,,,,,,,,,,,,,,,,,,,,,,,,,,,,,,,,"[1,4,8,3,2,7,5]",5,0,5,0,1,,,,,,,,,,,,,,,,,,,,,,,,,,,,,,,,,,,,,,,,,,,,,,,,
,,614aec96ea8423682133d903,2022-09-08_13h52.42.087,CGTgamblingSpanTasks,2022.2.1,MacIntel,59.97361161,,,,,,,,,,,,,,,,,,,,,,,,,,,,,,,,,,,,,,,,,,,,,,,,,,,,,,,,,,,,,,,,,,,,,,,,,,,,,,,,,,"[1,4,8,3,2,7,5]",6,0,6,0,1,,,,,,,,,,,,,,,,,,,,,,,,,,,,,,,,,,,,,,,,,,,,,,,,
,,614aec96ea8423682133d903,2022-09-08_13h52.42.087,CGTgamblingSpanTasks,2022.2.1,MacIntel,59.97361161,,,,,,,,,,,,,,,,,,,,,,,,,,,,,,,,,,,,,,,,,,,,,,,,,,,,,,,,,,,,,,,0,,,,,,,,,,,,,,,,,,,,,,,,,148327,-0.007871094,-0.421987305,1,0,0,cont_button,0,13,13,13,1,14,,,,,,,,,,,,,,,,,,,,,,,,,,,,,,,,,,,
,,614aec96ea8423682133d903,2022-09-08_13h52.42.087,CGTgamblingSpanTasks,2022.2.1,MacIntel,59.97361161,,,,,,,,,,,,,,,,,,,,,,,,,,,,,,,,,,,,,,,,,,,,,,,,,,,,,,,,,,,,,,,,,,,,,,,,,,,,,,,,,,,,,,,,,,,,,,,,,,,,,return,2.5489,,,,,,,,,,,,,,,,,,,,,,,,,,,,,,,,,
,,614aec96ea8423682133d903,2022-09-08_13h52.42.087,CGTgamblingSpanTasks,2022.2.1,MacIntel,59.97361161,,,,,,,,,,,,,,,,,,,,,,,,,,,,,,,,,,,,,,,,,,,,,,,,,,,,,,,,,,,,,,,,,,,,,,,,,,,,,,,,,,,,,,,,,,,,,,,,,,,,,,,return,13.0821,,,,,,,,,,,,,,,,,,,,,,,,,,,,,,,
,,614aec96ea8423682133d903,2022-09-08_13h52.42.087,CGTgamblingSpanTasks,2022.2.1,MacIntel,59.97361161,,,,,,,,,,,,,,,,,,,,,,,,,,,,,,,,,,,,,,,,,,,,,,,,,,,,,,,,,,,,,,,1,,,,,,,,,,,,3,342,24,2,42,,,,,,,,,,,,,,,,,,,,,,,,,,42,-0.029599609,-0.399023438,1,0,0,cont_buttonPractice_2,0,0,0,0,1,,,,,,,,,,,,,,,,,,,
,,614aec96ea8423682133d903,2022-09-08_13h52.42.087,CGTgamblingSpanTasks,2022.2.1,MacIntel,59.97361161,,,,,,,,,,,,,,,,,,,,,,,,,,,,,,,,,,,,,,,,,,,,,,,,,,,,,,,,,,,,,,,1,,,,,,,,,,,,3,937,73,2,37,,,,,,,,,,,,,,,,,,,,,,,,,,37,-0.029599609,-0.399023438,1,0,0,cont_buttonPractice_2,0,1,1,1,1,,,,,,,,,,,,,,,,,,,
,,614aec96ea8423682133d903,2022-09-08_13h52.42.087,CGTgamblingSpanTasks,2022.2.1,MacIntel,59.97361161,,,,,,,,,,,,,,,,,,,,,,,,,,,,,,,,,,,,,,,,,,,,,,,,,,,,,,,,,,,,,,,,,,,,,,,,,,,,,,,,,,,,,,,,,,,,,,,,,,,,,,,,,,,,,,,,,,,,,return,5.8816,,,,,,,,,,,,,,,,,
,,614aec96ea8423682133d903,2022-09-08_13h52.42.087,CGTgamblingSpanTasks,2022.2.1,MacIntel,59.97361161,,,,,,,,,,,,,,,,,,,,,,,,,,,,,,,,,,,,,,,,,,,,,,,,,,,,,,,,,,,,,,,,,,,,,,,,,,,,,,,,,,"[5,8]",,,,,,,,,,,,,,,,,,,,,,,,,,,,,,,,,,,,,0,0,0,0,1,,,,,,,,,,,,
,,614aec96ea8423682133d903,2022-09-08_13h52.42.087,CGTgamblingSpanTasks,2022.2.1,MacIntel,59.97361161,,,,,,,,,,,,,,,,,,,,,,,,,,,,,,,,,,,,,,,,,,,,,,,,,,,,,,,,,,,,,,,,,,,,,,,,,,,,,,,,,,"[5,8]",,,,,,,,,,,,,,,,,,,,,,,,,,,,,,,,,,,,,1,0,1,0,1,,,,,,,,,,,,
,,614aec96ea8423682133d903,2022-09-08_13h52.42.087,CGTgamblingSpanTasks,2022.2.1,MacIntel,59.97361161,,,,,,,,,,,,,,,,,,,,,,,,,,,,,,,,,,,,,,,,,,,,,,,,,,,,,,,,,,,,,,,1,,,,,,,,,,,,,,,,,,,,,,,,,,,,,,,,,,,,,1,,,,,,,,,,,,,,,,,,,,,,,,85,-0.024121094,-0.399414063,1,0,0,cont_buttonBS,0,0,0,0,1
,,614aec96ea8423682133d903,2022-09-08_13h52.42.087,CGTgamblingSpanTasks,2022.2.1,MacIntel,59.97361161,,,,,,,,,,,,,,,,,,,,,,,,,,,,,,,,,,,,,,,,,,,,,,,,,,,,,,,,,,,,,,,,,,,,,,,,,,,,,,,,,,"[5,1,6]",,,,,,,,,,,,,,,,,,,,,,,,,,,,,,,,,,,,,0,0,0,0,1,,,,,,,,,,,,
,,614aec96ea8423682133d903,2022-09-08_13h52.42.087,CGTgamblingSpanTasks,2022.2.1,MacIntel,59.97361161,,,,,,,,,,,,,,,,,,,,,,,,,,,,,,,,,,,,,,,,,,,,,,,,,,,,,,,,,,,,,,,,,,,,,,,,,,,,,,,,,,"[5,1,6]",,,,,,,,,,,,,,,,,,,,,,,,,,,,,,,,,,,,,1,0,1,0,1,,,,,,,,,,,,
,,614aec96ea8423682133d903,2022-09-08_13h52.42.087,CGTgamblingSpanTasks,2022.2.1,MacIntel,59.97361161,,,,,,,,,,,,,,,,,,,,,,,,,,,,,,,,,,,,,,,,,,,,,,,,,,,,,,,,,,,,,,,,,,,,,,,,,,,,,,,,,,"[5,1,6]",,,,,,,,,,,,,,,,,,,,,,,,,,,,,,,,,,,,,2,0,2,0,1,,,,,,,,,,,,
,,614aec96ea8423682133d903,2022-09-08_13h52.42.087,CGTgamblingSpanTasks,2022.2.1,MacIntel,59.97361161,,,,,,,,,,,,,,,,,,,,,,,,,,,,,,,,,,,,,,,,,,,,,,,,,,,,,,,,,,,,,,,1,,,,,,,,,,,,,,,,,,,,,,,,,,,,,,,,,,,,,2,,,,,,,,,,,,,,,,,,,,,,,,615,-0.023964844,-0.418115234,1,0,0,cont_buttonBS,0,1,1,1,1
,,614aec96ea8423682133d903,2022-09-08_13h52.42.087,CGTgamblingSpanTasks,2022.2.1,MacIntel,59.97361161,,,,,,,,,,,,,,,,,,,,,,,,,,,,,,,,,,,,,,,,,,,,,,,,,,,,,,,,,,,,,,,,,,,,,,,,,,,,,,,,,,"[5,4,2,6]",,,,,,,,,,,,,,,,,,,,,,,,,,,,,,,,,,,,,0,0,0,0,1,,,,,,,,,,,,
,,614aec96ea8423682133d903,2022-09-08_13h52.42.087,CGTgamblingSpanTasks,2022.2.1,MacIntel,59.97361161,,,,,,,,,,,,,,,,,,,,,,,,,,,,,,,,,,,,,,,,,,,,,,,,,,,,,,,,,,,,,,,,,,,,,,,,,,,,,,,,,,"[5,4,2,6]",,,,,,,,,,,,,,,,,,,,,,,,,,,,,,,,,,,,,1,0,1,0,1,,,,,,,,,,,,
,,614aec96ea8423682133d903,2022-09-08_13h52.42.087,CGTgamblingSpanTasks,2022.2.1,MacIntel,59.97361161,,,,,,,,,,,,,,,,,,,,,,,,,,,,,,,,,,,,,,,,,,,,,,,,,,,,,,,,,,,,,,,,,,,,,,,,,,,,,,,,,,"[5,4,2,6]",,,,,,,,,,,,,,,,,,,,,,,,,,,,,,,,,,,,,2,0,2,0,1,,,,,,,,,,,,
,,614aec96ea8423682133d903,2022-09-08_13h52.42.087,CGTgamblingSpanTasks,2022.2.1,MacIntel,59.97361161,,,,,,,,,,,,,,,,,,,,,,,,,,,,,,,,,,,,,,,,,,,,,,,,,,,,,,,,,,,,,,,,,,,,,,,,,,,,,,,,,,"[5,4,2,6]",,,,,,,,,,,,,,,,,,,,,,,,,,,,,,,,,,,,,3,0,3,0,1,,,,,,,,,,,,
,,614aec96ea8423682133d903,2022-09-08_13h52.42.087,CGTgamblingSpanTasks,2022.2.1,MacIntel,59.97361161,,,,,,,,,,,,,,,,,,,,,,,,,,,,,,,,,,,,,,,,,,,,,,,,,,,,,,,,,,,,,,,1,,,,,,,,,,,,,,,,,,,,,,,,,,,,,,,,,,,,,3,,,,,,,,,,,,,,,,,,,,,,,,6245,-0.02484375,-0.419716797,1,0,0,cont_buttonBS,0,2,2,2,1
,,614aec96ea8423682133d903,2022-09-08_13h52.42.087,CGTgamblingSpanTasks,2022.2.1,MacIntel,59.97361161,,,,,,,,,,,,,,,,,,,,,,,,,,,,,,,,,,,,,,,,,,,,,,,,,,,,,,,,,,,,,,,,,,,,,,,,,,,,,,,,,,"[1,6,8,2,9]",,,,,,,,,,,,,,,,,,,,,,,,,,,,,,,,,,,,,0,0,0,0,1,,,,,,,,,,,,
,,614aec96ea8423682133d903,2022-09-08_13h52.42.087,CGTgamblingSpanTasks,2022.2.1,MacIntel,59.97361161,,,,,,,,,,,,,,,,,,,,,,,,,,,,,,,,,,,,,,,,,,,,,,,,,,,,,,,,,,,,,,,,,,,,,,,,,,,,,,,,,,"[1,6,8,2,9]",,,,,,,,,,,,,,,,,,,,,,,,,,,,,,,,,,,,,1,0,1,0,1,,,,,,,,,,,,
,,614aec96ea8423682133d903,2022-09-08_13h52.42.087,CGTgamblingSpanTasks,2022.2.1,MacIntel,59.97361161,,,,,,,,,,,,,,,,,,,,,,,,,,,,,,,,,,,,,,,,,,,,,,,,,,,,,,,,,,,,,,,,,,,,,,,,,,,,,,,,,,"[1,6,8,2,9]",,,,,,,,,,,,,,,,,,,,,,,,,,,,,,,,,,,,,2,0,2,0,1,,,,,,,,,,,,
,,614aec96ea8423682133d903,2022-09-08_13h52.42.087,CGTgamblingSpanTasks,2022.2.1,MacIntel,59.97361161,,,,,,,,,,,,,,,,,,,,,,,,,,,,,,,,,,,,,,,,,,,,,,,,,,,,,,,,,,,,,,,,,,,,,,,,,,,,,,,,,,"[1,6,8,2,9]",,,,,,,,,,,,,,,,,,,,,,,,,,,,,,,,,,,,,3,0,3,0,1,,,,,,,,,,,,
,,614aec96ea8423682133d903,2022-09-08_13h52.42.087,CGTgamblingSpanTasks,2022.2.1,MacIntel,59.97361161,,,,,,,,,,,,,,,,,,,,,,,,,,,,,,,,,,,,,,,,,,,,,,,,,,,,,,,,,,,,,,,,,,,,,,,,,,,,,,,,,,"[1,6,8,2,9]",,,,,,,,,,,,,,,,,,,,,,,,,,,,,,,,,,,,,4,0,4,0,1,,,,,,,,,,,,
,,614aec96ea8423682133d903,2022-09-08_13h52.42.087,CGTgamblingSpanTasks,2022.2.1,MacIntel,59.97361161,,,,,,,,,,,,,,,,,,,,,,,,,,,,,,,,,,,,,,,,,,,,,,,,,,,,,,,,,,,,,,,1,,,,,,,,,,,,,,,,,,,,,,,,,,,,,,,,,,,,,4,,,,,,,,,,,,,,,,,,,,,,,,92861,-0.031879883,-0.405546875,1,0,0,cont_buttonBS,0,3,3,3,1
,,614aec96ea8423682133d903,2022-09-08_13h52.42.087,CGTgamblingSpanTasks,2022.2.1,MacIntel,59.97361161,,,,,,,,,,,,,,,,,,,,,,,,,,,,,,,,,,,,,,,,,,,,,,,,,,,,,,,,,,,,,,,,,,,,,,,,,,,,,,,,,,"[5,4,1,6,3,7]",,,,,,,,,,,,,,,,,,,,,,,,,,,,,,,,,,,,,0,0,0,0,1,,,,,,,,,,,,
,,614aec96ea8423682133d903,2022-09-08_13h52.42.087,CGTgamblingSpanTasks,2022.2.1,MacIntel,59.97361161,,,,,,,,,,,,,,,,,,,,,,,,,,,,,,,,,,,,,,,,,,,,,,,,,,,,,,,,,,,,,,,,,,,,,,,,,,,,,,,,,,"[5,4,1,6,3,7]",,,,,,,,,,,,,,,,,,,,,,,,,,,,,,,,,,,,,1,0,1,0,1,,,,,,,,,,,,
,,614aec96ea8423682133d903,2022-09-08_13h52.42.087,CGTgamblingSpanTasks,2022.2.1,MacIntel,59.97361161,,,,,,,,,,,,,,,,,,,,,,,,,,,,,,,,,,,,,,,,,,,,,,,,,,,,,,,,,,,,,,,,,,,,,,,,,,,,,,,,,,"[5,4,1,6,3,7]",,,,,,,,,,,,,,,,,,,,,,,,,,,,,,,,,,,,,2,0,2,0,1,,,,,,,,,,,,
,,614aec96ea8423682133d903,2022-09-08_13h52.42.087,CGTgamblingSpanTasks,2022.2.1,MacIntel,59.97361161,,,,,,,,,,,,,,,,,,,,,,,,,,,,,,,,,,,,,,,,,,,,,,,,,,,,,,,,,,,,,,,,,,,,,,,,,,,,,,,,,,"[5,4,1,6,3,7]",,,,,,,,,,,,,,,,,,,,,,,,,,,,,,,,,,,,,3,0,3,0,1,,,,,,,,,,,,
,,614aec96ea8423682133d903,2022-09-08_13h52.42.087,CGTgamblingSpanTasks,2022.2.1,MacIntel,59.97361161,,,,,,,,,,,,,,,,,,,,,,,,,,,,,,,,,,,,,,,,,,,,,,,,,,,,,,,,,,,,,,,,,,,,,,,,,,,,,,,,,,"[5,4,1,6,3,7]",,,,,,,,,,,,,,,,,,,,,,,,,,,,,,,,,,,,,4,0,4,0,1,,,,,,,,,,,,
,,614aec96ea8423682133d903,2022-09-08_13h52.42.087,CGTgamblingSpanTasks,2022.2.1,MacIntel,59.97361161,,,,,,,,,,,,,,,,,,,,,,,,,,,,,,,,,,,,,,,,,,,,,,,,,,,,,,,,,,,,,,,,,,,,,,,,,,,,,,,,,,"[5,4,1,6,3,7]",,,,,,,,,,,,,,,,,,,,,,,,,,,,,,,,,,,,,5,0,5,0,1,,,,,,,,,,,,
,,614aec96ea8423682133d903,2022-09-08_13h52.42.087,CGTgamblingSpanTasks,2022.2.1,MacIntel,59.97361161,,,,,,,,,,,,,,,,,,,,,,,,,,,,,,,,,,,,,,,,,,,,,,,,,,,,,,,,,,,,,,,1,,,,,,,,,,,,,,,,,,,,,,,,,,,,,,,,,,,,,5,,,,,,,,,,,,,,,,,,,,,,,,736145,-0.039960938,-0.40043457,1,0,0,cont_buttonBS,0,4,4,4,1
,,614aec96ea8423682133d903,2022-09-08_13h52.42.087,CGTgamblingSpanTasks,2022.2.1,MacIntel,59.97361161,,,,,,,,,,,,,,,,,,,,,,,,,,,,,,,,,,,,,,,,,,,,,,,,,,,,,,,,,,,,,,,,,,,,,,,,,,,,,,,,,,"[1,3,5,4,8,2,6]",,,,,,,,,,,,,,,,,,,,,,,,,,,,,,,,,,,,,0,0,0,0,1,,,,,,,,,,,,
,,614aec96ea8423682133d903,2022-09-08_13h52.42.087,CGTgamblingSpanTasks,2022.2.1,MacIntel,59.97361161,,,,,,,,,,,,,,,,,,,,,,,,,,,,,,,,,,,,,,,,,,,,,,,,,,,,,,,,,,,,,,,,,,,,,,,,,,,,,,,,,,"[1,3,5,4,8,2,6]",,,,,,,,,,,,,,,,,,,,,,,,,,,,,,,,,,,,,1,0,1,0,1,,,,,,,,,,,,
,,614aec96ea8423682133d903,2022-09-08_13h52.42.087,CGTgamblingSpanTasks,2022.2.1,MacIntel,59.97361161,,,,,,,,,,,,,,,,,,,,,,,,,,,,,,,,,,,,,,,,,,,,,,,,,,,,,,,,,,,,,,,,,,,,,,,,,,,,,,,,,,"[1,3,5,4,8,2,6]",,,,,,,,,,,,,,,,,,,,,,,,,,,,,,,,,,,,,2,0,2,0,1,,,,,,,,,,,,
,,614aec96ea8423682133d903,2022-09-08_13h52.42.087,CGTgamblingSpanTasks,2022.2.1,MacIntel,59.97361161,,,,,,,,,,,,,,,,,,,,,,,,,,,,,,,,,,,,,,,,,,,,,,,,,,,,,,,,,,,,,,,,,,,,,,,,,,,,,,,,,,"[1,3,5,4,8,2,6]",,,,,,,,,,,,,,,,,,,,,,,,,,,,,,,,,,,,,3,0,3,0,1,,,,,,,,,,,,
,,614aec96ea8423682133d903,2022-09-08_13h52.42.087,CGTgamblingSpanTasks,2022.2.1,MacIntel,59.97361161,,,,,,,,,,,,,,,,,,,,,,,,,,,,,,,,,,,,,,,,,,,,,,,,,,,,,,,,,,,,,,,,,,,,,,,,,,,,,,,,,,"[1,3,5,4,8,2,6]",,,,,,,,,,,,,,,,,,,,,,,,,,,,,,,,,,,,,4,0,4,0,1,,,,,,,,,,,,
,,614aec96ea8423682133d903,2022-09-08_13h52.42.087,CGTgamblingSpanTasks,2022.2.1,MacIntel,59.97361161,,,,,,,,,,,,,,,,,,,,,,,,,,,,,,,,,,,,,,,,,,,,,,,,,,,,,,,,,,,,,,,,,,,,,,,,,,,,,,,,,,"[1,3,5,4,8,2,6]",,,,,,,,,,,,,,,,,,,,,,,,,,,,,,,,,,,,,5,0,5,0,1,,,,,,,,,,,,
,,614aec96ea8423682133d903,2022-09-08_13h52.42.087,CGTgamblingSpanTasks,2022.2.1,MacIntel,59.97361161,,,,,,,,,,,,,,,,,,,,,,,,,,,,,,,,,,,,,,,,,,,,,,,,,,,,,,,,,,,,,,,,,,,,,,,,,,,,,,,,,,"[1,3,5,4,8,2,6]",,,,,,,,,,,,,,,,,,,,,,,,,,,,,,,,,,,,,6,0,6,0,1,,,,,,,,,,,,
,,614aec96ea8423682133d903,2022-09-08_13h52.42.087,CGTgamblingSpanTasks,2022.2.1,MacIntel,59.97361161,,,,,,,,,,,,,,,,,,,,,,,,,,,,,,,,,,,,,,,,,,,,,,,,,,,,,,,,,,,,,,,1,,,,,,,,,,,,,,,,,,,,,,,,,,,,,,,,,,,,,6,,,,,,,,,,,,,,,,,,,,,,,,6284531,-0.035522461,-0.41737793,1,0,0,cont_buttonBS,0,5,5,5,1
,,614aec96ea8423682133d903,2022-09-08_13h52.42.087,CGTgamblingSpanTasks,2022.2.1,MacIntel,59.97361161,,,,,,,,,,,,,,,,,,,,,,,,,,,,,,,,,,,,,,,,,,,,,,,,,,,,,,,,,,,,,,,,,,,,,,,,,,,,,,,,,,"[8,4,1,5,7,6,9,3]",,,,,,,,,,,,,,,,,,,,,,,,,,,,,,,,,,,,,0,0,0,0,1,,,,,,,,,,,,
,,614aec96ea8423682133d903,2022-09-08_13h52.42.087,CGTgamblingSpanTasks,2022.2.1,MacIntel,59.97361161,,,,,,,,,,,,,,,,,,,,,,,,,,,,,,,,,,,,,,,,,,,,,,,,,,,,,,,,,,,,,,,,,,,,,,,,,,,,,,,,,,"[8,4,1,5,7,6,9,3]",,,,,,,,,,,,,,,,,,,,,,,,,,,,,,,,,,,,,1,0,1,0,1,,,,,,,,,,,,
,,614aec96ea8423682133d903,2022-09-08_13h52.42.087,CGTgamblingSpanTasks,2022.2.1,MacIntel,59.97361161,,,,,,,,,,,,,,,,,,,,,,,,,,,,,,,,,,,,,,,,,,,,,,,,,,,,,,,,,,,,,,,,,,,,,,,,,,,,,,,,,,"[8,4,1,5,7,6,9,3]",,,,,,,,,,,,,,,,,,,,,,,,,,,,,,,,,,,,,2,0,2,0,1,,,,,,,,,,,,
,,614aec96ea8423682133d903,2022-09-08_13h52.42.087,CGTgamblingSpanTasks,2022.2.1,MacIntel,59.97361161,,,,,,,,,,,,,,,,,,,,,,,,,,,,,,,,,,,,,,,,,,,,,,,,,,,,,,,,,,,,,,,,,,,,,,,,,,,,,,,,,,"[8,4,1,5,7,6,9,3]",,,,,,,,,,,,,,,,,,,,,,,,,,,,,,,,,,,,,3,0,3,0,1,,,,,,,,,,,,
,,614aec96ea8423682133d903,2022-09-08_13h52.42.087,CGTgamblingSpanTasks,2022.2.1,MacIntel,59.97361161,,,,,,,,,,,,,,,,,,,,,,,,,,,,,,,,,,,,,,,,,,,,,,,,,,,,,,,,,,,,,,,,,,,,,,,,,,,,,,,,,,"[8,4,1,5,7,6,9,3]",,,,,,,,,,,,,,,,,,,,,,,,,,,,,,,,,,,,,4,0,4,0,1,,,,,,,,,,,,
,,614aec96ea8423682133d903,2022-09-08_13h52.42.087,CGTgamblingSpanTasks,2022.2.1,MacIntel,59.97361161,,,,,,,,,,,,,,,,,,,,,,,,,,,,,,,,,,,,,,,,,,,,,,,,,,,,,,,,,,,,,,,,,,,,,,,,,,,,,,,,,,"[8,4,1,5,7,6,9,3]",,,,,,,,,,,,,,,,,,,,,,,,,,,,,,,,,,,,,5,0,5,0,1,,,,,,,,,,,,
,,614aec96ea8423682133d903,2022-09-08_13h52.42.087,CGTgamblingSpanTasks,2022.2.1,MacIntel,59.97361161,,,,,,,,,,,,,,,,,,,,,,,,,,,,,,,,,,,,,,,,,,,,,,,,,,,,,,,,,,,,,,,,,,,,,,,,,,,,,,,,,,"[8,4,1,5,7,6,9,3]",,,,,,,,,,,,,,,,,,,,,,,,,,,,,,,,,,,,,6,0,6,0,1,,,,,,,,,,,,
,,614aec96ea8423682133d903,2022-09-08_13h52.42.087,CGTgamblingSpanTasks,2022.2.1,MacIntel,59.97361161,,,,,,,,,,,,,,,,,,,,,,,,,,,,,,,,,,,,,,,,,,,,,,,,,,,,,,,,,,,,,,,,,,,,,,,,,,,,,,,,,,"[8,4,1,5,7,6,9,3]",,,,,,,,,,,,,,,,,,,,,,,,,,,,,,,,,,,,,7,0,7,0,1,,,,,,,,,,,,
,,614aec96ea8423682133d903,2022-09-08_13h52.42.087,CGTgamblingSpanTasks,2022.2.1,MacIntel,59.97361161,,,,,,,,,,,,,,,,,,,,,,,,,,,,,,,,,,,,,,,,,,,,,,,,,,,,,,,,,,,,,,,0,,,,,,,,,,,,,,,,,,,,,,,,,,,,,,,,,,,,,7,,,,,,,,,,,,,,,,,,,,,,,,3967,-0.04925293,-0.396298828,1,0,0,cont_buttonBS,0,6,6,6,1
,,614aec96ea8423682133d903,2022-09-08_13h52.42.087,CGTgamblingSpanTasks,2022.2.1,MacIntel,59.97361161,,,,,,,,,,,,,,,,,,,,,,,,,,,,,,,,,,,,,,,,,,,,,,,,,,,,,,,,,,,,,,,,,,,,,,,,,,,,,,,,,,"[6,4,7,1,2,8,3,5]",,,,,,,,,,,,,,,,,,,,,,,,,,,,,,,,,,,,,0,0,0,0,1,,,,,,,,,,,,
,,614aec96ea8423682133d903,2022-09-08_13h52.42.087,CGTgamblingSpanTasks,2022.2.1,MacIntel,59.97361161,,,,,,,,,,,,,,,,,,,,,,,,,,,,,,,,,,,,,,,,,,,,,,,,,,,,,,,,,,,,,,,,,,,,,,,,,,,,,,,,,,"[6,4,7,1,2,8,3,5]",,,,,,,,,,,,,,,,,,,,,,,,,,,,,,,,,,,,,1,0,1,0,1,,,,,,,,,,,,
,,614aec96ea8423682133d903,2022-09-08_13h52.42.087,CGTgamblingSpanTasks,2022.2.1,MacIntel,59.97361161,,,,,,,,,,,,,,,,,,,,,,,,,,,,,,,,,,,,,,,,,,,,,,,,,,,,,,,,,,,,,,,,,,,,,,,,,,,,,,,,,,"[6,4,7,1,2,8,3,5]",,,,,,,,,,,,,,,,,,,,,,,,,,,,,,,,,,,,,2,0,2,0,1,,,,,,,,,,,,
