initITIstatic,initITIdynamic,participant,date,expName,psychopyVersion,OS,frameRate,inst1.keys,inst1.rt,startPracResp.keys,startPracResp.rt,choice1.keys,choice1.rt,outcome,extraITI,trials.thisRepN,trials.thisTrialN,trials.thisN,trials.thisIndex,trials.ran,riskyGain,riskyLoss,alternative,isi,iti,loc,postPractResp.keys,postPractResp.rt,realloc,realChoice.keys,realChoice.rt,outcomes,choices,actualITI,init ITI,staticRDM.thisRepN,staticRDM.thisTrialN,staticRDM.thisN,staticRDM.thisIndex,staticRDM.ran,riskyoption1,riskyoption2,safeoption,ischecktrial,dynamicChoiceSetName,dynamicChoiceSetPath,bestRho,bestMu,trials_2.thisRepN,trials_2.thisTrialN,trials_2.thisN,trials_2.thisIndex,trials_2.ran,key_resp.keys,key_resp.rt,dynamicRDM.thisRepN,dynamicRDM.thisTrialN,dynamicRDM.thisN,dynamicRDM.thisIndex,dynamicRDM.ran,choiceP,easy0difficult1,stopBreak.keys,stopBreak.rt,movealong.keys,movealong.rt,startPractice.keys,startPractice.rt,textboxPractice.text,correct,mousePractice.x,mousePractice.y,mousePractice.leftButton,mousePractice.midButton,mousePractice.rightButton,mousePractice.clicked_name,trialFSPractice.thisRepN,trialFSPractice.thisTrialN,trialFSPractice.thisN,trialFSPractice.thisIndex,trialFSPractice.ran,digitSpanForward,digits,digitsReverse,digitSpanReverse,digitsReverseCorrAnswer,startFSreal.keys,startFSreal.rt,digitsForTrial,digitLoop.thisRepN,digitLoop.thisTrialN,digitLoop.thisN,digitLoop.thisIndex,digitLoop.ran,textbox.text,mouse_3.x,mouse_3.y,mouse_3.leftButton,mouse_3.midButton,mouse_3.rightButton,mouse_3.clicked_name,trialsFS.thisRepN,trialsFS.thisTrialN,trialsFS.thisN,trialsFS.thisIndex,trialsFS.ran,trialNumber,moveToBS.keys,moveToBS.rt,startBSprac.keys,startBSprac.rt,textboxPractice_2.text,mousePractice_2.x,mousePractice_2.y,mousePractice_2.leftButton,mousePractice_2.midButton,mousePractice_2.rightButton,mousePractice_2.clicked_name,trialsPracticeBS.thisRepN,trialsPracticeBS.thisTrialN,trialsPracticeBS.thisN,trialsPracticeBS.thisIndex,trialsPracticeBS.ran,startBSreal.keys,startBSreal.rt,digitLoopBS.thisRepN,digitLoopBS.thisTrialN,digitLoopBS.thisN,digitLoopBS.thisIndex,digitLoopBS.ran,textboxBS.text,mouseBS.x,mouseBS.y,mouseBS.leftButton,mouseBS.midButton,mouseBS.rightButton,mouseBS.clicked_name,trialsBS.thisRepN,trialsBS.thisTrialN,trialsBS.thisN,trialsBS.thisIndex,trialsBS.ran
"[1,1,1,1.5,1,1.5,1.5,1,1.5,1.5,1,1,1.5,1,1.5,1.5,1,1.5,1,1,1,1.5,1,1,1.5,1,1,1.5,1.5,1.5,1.5,1,1.5,1.5,1.5,1,1,1,1.5,1.5,1,1.5,1.5,1.5,1.5,1,1,1,1.5,1]","[1,1.5,1.5,1.5,1,1,1,1,1.5,1.5,1,1,1,1.5,1,1,1.5,1.5,1,1,1.5,1.5,1.5,1.5,1.5,1,1.5,1.5,1.5,1,1.5,1,1,1.5,1,1.5,1,1.5,1,1.5,1,1,1,1,1,1,1,1,1.5,1.5,1,1,1,1,1.5,1.5,1,1.5,1,1.5,1.5,1.5,1.5,1.5,1,1.5,1,1,1.5,1.5,1,1,1,1.5,1.5,1.5,1,1,1.5,1,1,1,1.5,1,1.5,1,1,1,1.5,1,1.5,1,1.5,1.5,1.5,1.5,1.5,1.5,1.5,1,1,1.5,1,1.5,1,1.5,1.5,1.5,1,1,1.5,1.5,1,1,1,1.5,1.5,1.5,1,1.5]",614ca7f8fc7cba1b74101bfe,2022-09-08_14h02.38.097,CGTgamblingSpanTasks,2022.2.1,Win32,60.0240096,,,,,,,,,,,,,,,,,,,,,,,,,,,,,,,,,,,,,,,,,,,,,,,,,,,,,,,,,,,,,,,,,,,,,,,,,,,,,,,,,,,,,,,,,,,,,,,,,,,,,,,,,,,,,,,,,,,,,,,,,,,,,,,,,,,,,,,
,,614ca7f8fc7cba1b74101bfe,2022-09-08_14h02.38.097,CGTgamblingSpanTasks,2022.2.1,Win32,60.0240096,return,1.283,,,,,,,,,,,,,,,,,,,,,,,,,,,,,,,,,,,,,,,,,,,,,,,,,,,,,,,,,,,,,,,,,,,,,,,,,,,,,,,,,,,,,,,,,,,,,,,,,,,,,,,,,,,,,,,,,,,,,,,,,,,,,,,,,,,,,
,,614ca7f8fc7cba1b74101bfe,2022-09-08_14h02.38.097,CGTgamblingSpanTasks,2022.2.1,Win32,60.0240096,,,v,0.056,,,,,,,,,,,,,,,,,,,,,,,,,,,,,,,,,,,,,,,,,,,,,,,,,,,,,,,,,,,,,,,,,,,,,,,,,,,,,,,,,,,,,,,,,,,,,,,,,,,,,,,,,,,,,,,,,,,,,,,,,,,,,,,,,,,
,,614ca7f8fc7cba1b74101bfe,2022-09-08_14h02.38.097,CGTgamblingSpanTasks,2022.2.1,Win32,60.0240096,,,,,n,1.921,9.45,2.079,0,0,0,0,1,18.23,0,9.45,2,1,1,,,,,,,,,,,,,,,,,,,,,,,,,,,,,,,,,,,,,,,,,,,,,,,,,,,,,,,,,,,,,,,,,,,,,,,,,,,,,,,,,,,,,,,,,,,,,,,,,,,,,,,,,,,,,,,,,,,,
,,614ca7f8fc7cba1b74101bfe,2022-09-08_14h02.38.097,CGTgamblingSpanTasks,2022.2.1,Win32,60.0240096,,,,,n,1.322,35.16,2.678,0,1,1,1,1,53.27,0,35.16,1,1.5,1,,,,,,,,,,,,,,,,,,,,,,,,,,,,,,,,,,,,,,,,,,,,,,,,,,,,,,,,,,,,,,,,,,,,,,,,,,,,,,,,,,,,,,,,,,,,,,,,,,,,,,,,,,,,,,,,,,,,
,,614ca7f8fc7cba1b74101bfe,2022-09-08_14h02.38.097,CGTgamblingSpanTasks,2022.2.1,Win32,60.0240096,,,,,n,1.24,0,2.76,0,2,2,2,1,8.27,0,1.15,1,1.5,2,,,,,,,,,,,,,,,,,,,,,,,,,,,,,,,,,,,,,,,,,,,,,,,,,,,,,,,,,,,,,,,,,,,,,,,,,,,,,,,,,,,,,,,,,,,,,,,,,,,,,,,,,,,,,,,,,,,,
,,614ca7f8fc7cba1b74101bfe,2022-09-08_14h02.38.097,CGTgamblingSpanTasks,2022.2.1,Win32,60.0240096,,,,,n,1.136,40.41,2.864,0,3,3,3,1,45.88,0,40.41,3,1,1,,,,,,,,,,,,,,,,,,,,,,,,,,,,,,,,,,,,,,,,,,,,,,,,,,,,,,,,,,,,,,,,,,,,,,,,,,,,,,,,,,,,,,,,,,,,,,,,,,,,,,,,,,,,,,,,,,,,
,,614ca7f8fc7cba1b74101bfe,2022-09-08_14h02.38.097,CGTgamblingSpanTasks,2022.2.1,Win32,60.0240096,,,,,v,1.168,11.96,2.832,0,4,4,4,1,21.56,0,11.96,1,1.5,2,,,,,,,,,,,,,,,,,,,,,,,,,,,,,,,,,,,,,,,,,,,,,,,,,,,,,,,,,,,,,,,,,,,,,,,,,,,,,,,,,,,,,,,,,,,,,,,,,,,,,,,,,,,,,,,,,,,,
,,614ca7f8fc7cba1b74101bfe,2022-09-08_14h02.38.097,CGTgamblingSpanTasks,2022.2.1,Win32,60.0240096,,,,,,,,,,,,,,,,,,,,v,1.751,,,,,,,,,,,,,,,,,,,,,,,,,,,,,,,,,,,,,,,,,,,,,,,,,,,,,,,,,,,,,,,,,,,,,,,,,,,,,,,,,,,,,,,,,,,,,,,,,,,,,,,,,,,,,,,,,,
,,614ca7f8fc7cba1b74101bfe,2022-09-08_14h02.38.097,CGTgamblingSpanTasks,2022.2.1,Win32,60.0240096,,,,,,,,3.04,,,,,,,,,,,,,,2,v,0.96,10.02,0,4.04,1,0,0,0,31,1,15.96,0,10.02,0,,,,,,,,,,,,,,,,,,,,,,,,,,,,,,,,,,,,,,,,,,,,,,,,,,,,,,,,,,,,,,,,,,,,,,,,,,,,,,,,,,,,,,,,,,,,,,,,,,
,,614ca7f8fc7cba1b74101bfe,2022-09-08_14h02.38.097,CGTgamblingSpanTasks,2022.2.1,Win32,60.0240096,,,,,,,,2.934,,,,,,,,,,,,,,1,n,1.066,5.96,0,3.934,1,0,1,1,18,1,12.08,0,5.96,0,,,,,,,,,,,,,,,,,,,,,,,,,,,,,,,,,,,,,,,,,,,,,,,,,,,,,,,,,,,,,,,,,,,,,,,,,,,,,,,,,,,,,,,,,,,,,,,,,,
,,614ca7f8fc7cba1b74101bfe,2022-09-08_14h02.38.097,CGTgamblingSpanTasks,2022.2.1,Win32,60.0240096,,,,,,,,2.928,,,,,,,,,,,,,,2,v,1.072,5.82,0,3.928,1,0,2,2,16,1,12.36,0,5.82,0,,,,,,,,,,,,,,,,,,,,,,,,,,,,,,,,,,,,,,,,,,,,,,,,,,,,,,,,,,,,,,,,,,,,,,,,,,,,,,,,,,,,,,,,,,,,,,,,,,
,,614ca7f8fc7cba1b74101bfe,2022-09-08_14h02.38.097,CGTgamblingSpanTasks,2022.2.1,Win32,60.0240096,,,,,,,,3.018,,,,,,,,,,,,,,1,n,0.982,6.08,0,4.518,1.5,0,3,3,20,1,11.84,0,6.08,0,,,,,,,,,,,,,,,,,,,,,,,,,,,,,,,,,,,,,,,,,,,,,,,,,,,,,,,,,,,,,,,,,,,,,,,,,,,,,,,,,,,,,,,,,,,,,,,,,,
,,614ca7f8fc7cba1b74101bfe,2022-09-08_14h02.38.097,CGTgamblingSpanTasks,2022.2.1,Win32,60.0240096,,,,,,,,3.134,,,,,,,,,,,,,,1,n,0.866,10.27,0,4.134,1,0,4,4,35,1,15.47,0,10.27,0,,,,,,,,,,,,,,,,,,,,,,,,,,,,,,,,,,,,,,,,,,,,,,,,,,,,,,,,,,,,,,,,,,,,,,,,,,,,,,,,,,,,,,,,,,,,,,,,,,
,,614ca7f8fc7cba1b74101bfe,2022-09-08_14h02.38.097,CGTgamblingSpanTasks,2022.2.1,Win32,60.0240096,,,,,,,,3.118,,,,,,,,,,,,,,2,v,0.882,5.27,0,4.618,1.5,0,5,5,10,1,13.45,0,5.27,0,,,,,,,,,,,,,,,,,,,,,,,,,,,,,,,,,,,,,,,,,,,,,,,,,,,,,,,,,,,,,,,,,,,,,,,,,,,,,,,,,,,,,,,,,,,,,,,,,,
,,614ca7f8fc7cba1b74101bfe,2022-09-08_14h02.38.097,CGTgamblingSpanTasks,2022.2.1,Win32,60.0240096,,,,,,,,3.05,,,,,,,,,,,,,,2,v,0.95,8.07,0,4.55,1.5,0,6,6,11,1,19.86,0,8.07,0,,,,,,,,,,,,,,,,,,,,,,,,,,,,,,,,,,,,,,,,,,,,,,,,,,,,,,,,,,,,,,,,,,,,,,,,,,,,,,,,,,,,,,,,,,,,,,,,,,
,,614ca7f8fc7cba1b74101bfe,2022-09-08_14h02.38.097,CGTgamblingSpanTasks,2022.2.1,Win32,60.0240096,,,,,,,,2.902,,,,,,,,,,,,,,1,v,1.098,28.21,1,3.902,1,0,7,7,1,1,28.21,0,3.89,0,,,,,,,,,,,,,,,,,,,,,,,,,,,,,,,,,,,,,,,,,,,,,,,,,,,,,,,,,,,,,,,,,,,,,,,,,,,,,,,,,,,,,,,,,,,,,,,,,,
,,614ca7f8fc7cba1b74101bfe,2022-09-08_14h02.38.097,CGTgamblingSpanTasks,2022.2.1,Win32,60.0240096,,,,,,,,3.148,,,,,,,,,,,,,,2,v,0.852,9.5,0,4.648,1.5,0,8,8,25,1,17,0,9.5,0,,,,,,,,,,,,,,,,,,,,,,,,,,,,,,,,,,,,,,,,,,,,,,,,,,,,,,,,,,,,,,,,,,,,,,,,,,,,,,,,,,,,,,,,,,,,,,,,,,
,,614ca7f8fc7cba1b74101bfe,2022-09-08_14h02.38.097,CGTgamblingSpanTasks,2022.2.1,Win32,60.0240096,,,,,,,,2.995,,,,,,,,,,,,,,2,n,1.005,0,1,4.495,1.5,0,9,9,6,1,14.72,0,4.64,0,,,,,,,,,,,,,,,,,,,,,,,,,,,,,,,,,,,,,,,,,,,,,,,,,,,,,,,,,,,,,,,,,,,,,,,,,,,,,,,,,,,,,,,,,,,,,,,,,,
,,614ca7f8fc7cba1b74101bfe,2022-09-08_14h02.38.097,CGTgamblingSpanTasks,2022.2.1,Win32,60.0240096,,,,,,,,2.951,,,,,,,,,,,,,,2,v,1.049,5.48,0,3.951,1,0,10,10,12,1,13.04,0,5.48,0,,,,,,,,,,,,,,,,,,,,,,,,,,,,,,,,,,,,,,,,,,,,,,,,,,,,,,,,,,,,,,,,,,,,,,,,,,,,,,,,,,,,,,,,,,,,,,,,,,
,,614ca7f8fc7cba1b74101bfe,2022-09-08_14h02.38.097,CGTgamblingSpanTasks,2022.2.1,Win32,60.0240096,,,,,,,,2.9,,,,,,,,,,,,,,1,v,1.1,21.32,1,3.9,1,0,11,11,7,1,21.32,0,7.34,0,,,,,,,,,,,,,,,,,,,,,,,,,,,,,,,,,,,,,,,,,,,,,,,,,,,,,,,,,,,,,,,,,,,,,,,,,,,,,,,,,,,,,,,,,,,,,,,,,,
,,614ca7f8fc7cba1b74101bfe,2022-09-08_14h02.38.097,CGTgamblingSpanTasks,2022.2.1,Win32,60.0240096,,,,,,,,3.183,,,,,,,,,,,,,,2,v,0.817,10.68,0,4.683,1.5,0,12,12,48,1,10.68,0,10.68,1,,,,,,,,,,,,,,,,,,,,,,,,,,,,,,,,,,,,,,,,,,,,,,,,,,,,,,,,,,,,,,,,,,,,,,,,,,,,,,,,,,,,,,,,,,,,,,,,,,
,,614ca7f8fc7cba1b74101bfe,2022-09-08_14h02.38.097,CGTgamblingSpanTasks,2022.2.1,Win32,60.0240096,,,,,,,,2.935,,,,,,,,,,,,,,1,v,1.065,0,1,3.935,1,0,13,13,5,1,22.97,0,6.51,0,,,,,,,,,,,,,,,,,,,,,,,,,,,,,,,,,,,,,,,,,,,,,,,,,,,,,,,,,,,,,,,,,,,,,,,,,,,,,,,,,,,,,,,,,,,,,,,,,,
,,614ca7f8fc7cba1b74101bfe,2022-09-08_14h02.38.097,CGTgamblingSpanTasks,2022.2.1,Win32,60.0240096,,,,,,,,3.066,,,,,,,,,,,,,,1,n,0.934,9.03,0,4.566,1.5,0,14,14,19,1,17.94,0,9.03,0,,,,,,,,,,,,,,,,,,,,,,,,,,,,,,,,,,,,,,,,,,,,,,,,,,,,,,,,,,,,,,,,,,,,,,,,,,,,,,,,,,,,,,,,,,,,,,,,,,
,,614ca7f8fc7cba1b74101bfe,2022-09-08_14h02.38.097,CGTgamblingSpanTasks,2022.2.1,Win32,60.0240096,,,,,,,,3.047,,,,,,,,,,,,,,1,n,0.953,9.7,0,4.547,1.5,0,15,15,27,1,16.6,0,9.7,0,,,,,,,,,,,,,,,,,,,,,,,,,,,,,,,,,,,,,,,,,,,,,,,,,,,,,,,,,,,,,,,,,,,,,,,,,,,,,,,,,,,,,,,,,,,,,,,,,,
,,614ca7f8fc7cba1b74101bfe,2022-09-08_14h02.38.097,CGTgamblingSpanTasks,2022.2.1,Win32,60.0240096,,,,,,,,3.188,,,,,,,,,,,,,,2,v,0.812,9.2,0,4.188,1,0,16,16,21,1,17.59,0,9.2,0,,,,,,,,,,,,,,,,,,,,,,,,,,,,,,,,,,,,,,,,,,,,,,,,,,,,,,,,,,,,,,,,,,,,,,,,,,,,,,,,,,,,,,,,,,,,,,,,,,
,,614ca7f8fc7cba1b74101bfe,2022-09-08_14h02.38.097,CGTgamblingSpanTasks,2022.2.1,Win32,60.0240096,,,,,,,,3.025,,,,,,,,,,,,,,2,v,0.975,8.36,0,4.525,1.5,0,17,17,13,1,19.28,0,8.36,0,,,,,,,,,,,,,,,,,,,,,,,,,,,,,,,,,,,,,,,,,,,,,,,,,,,,,,,,,,,,,,,,,,,,,,,,,,,,,,,,,,,,,,,,,,,,,,,,,,
,,614ca7f8fc7cba1b74101bfe,2022-09-08_14h02.38.097,CGTgamblingSpanTasks,2022.2.1,Win32,60.0240096,,,,,,,,3.102,,,,,,,,,,,,,,2,v,0.898,9.36,0,4.102,1,0,18,18,23,1,17.28,0,9.36,0,,,,,,,,,,,,,,,,,,,,,,,,,,,,,,,,,,,,,,,,,,,,,,,,,,,,,,,,,,,,,,,,,,,,,,,,,,,,,,,,,,,,,,,,,,,,,,,,,,
,,614ca7f8fc7cba1b74101bfe,2022-09-08_14h02.38.097,CGTgamblingSpanTasks,2022.2.1,Win32,60.0240096,,,,,,,,3.048,,,,,,,,,,,,,,1,n,0.952,8.84,0,4.048,1,0,19,19,17,1,18.33,0,8.84,0,,,,,,,,,,,,,,,,,,,,,,,,,,,,,,,,,,,,,,,,,,,,,,,,,,,,,,,,,,,,,,,,,,,,,,,,,,,,,,,,,,,,,,,,,,,,,,,,,,
,,614ca7f8fc7cba1b74101bfe,2022-09-08_14h02.38.097,CGTgamblingSpanTasks,2022.2.1,Win32,60.0240096,,,,,,,,3.016,,,,,,,,,,,,,,2,n,0.984,16,1,4.016,1,0,20,20,4,1,16,0,4,0,,,,,,,,,,,,,,,,,,,,,,,,,,,,,,,,,,,,,,,,,,,,,,,,,,,,,,,,,,,,,,,,,,,,,,,,,,,,,,,,,,,,,,,,,,,,,,,,,,
,,614ca7f8fc7cba1b74101bfe,2022-09-08_14h02.38.097,CGTgamblingSpanTasks,2022.2.1,Win32,60.0240096,,,,,,,,2.851,,,,,,,,,,,,,,1,v,1.149,19.86,1,4.351,1.5,0,21,21,42,1,19.86,0,0,1,,,,,,,,,,,,,,,,,,,,,,,,,,,,,,,,,,,,,,,,,,,,,,,,,,,,,,,,,,,,,,,,,,,,,,,,,,,,,,,,,,,,,,,,,,,,,,,,,,
,,614ca7f8fc7cba1b74101bfe,2022-09-08_14h02.38.097,CGTgamblingSpanTasks,2022.2.1,Win32,60.0240096,,,,,,,,2.802,,,,,,,,,,,,,,1,v,1.198,25.2,1,3.802,1,0,22,22,3,1,25.2,0,5.4,0,,,,,,,,,,,,,,,,,,,,,,,,,,,,,,,,,,,,,,,,,,,,,,,,,,,,,,,,,,,,,,,,,,,,,,,,,,,,,,,,,,,,,,,,,,,,,,,,,,
,,614ca7f8fc7cba1b74101bfe,2022-09-08_14h02.38.097,CGTgamblingSpanTasks,2022.2.1,Win32,60.0240096,,,,,,,,2.752,,,,,,,,,,,,,,2,v,1.248,6.88,0,3.752,1,0,23,23,36,1,10.24,0,6.88,0,,,,,,,,,,,,,,,,,,,,,,,,,,,,,,,,,,,,,,,,,,,,,,,,,,,,,,,,,,,,,,,,,,,,,,,,,,,,,,,,,,,,,,,,,,,,,,,,,,
,,614ca7f8fc7cba1b74101bfe,2022-09-08_14h02.38.097,CGTgamblingSpanTasks,2022.2.1,Win32,60.0240096,,,,,,,,2.961,,,,,,,,,,,,,,2,v,1.039,6.99,0,4.461,1.5,0,24,24,43,1,16.11,6.99,6.99,1,,,,,,,,,,,,,,,,,,,,,,,,,,,,,,,,,,,,,,,,,,,,,,,,,,,,,,,,,,,,,,,,,,,,,,,,,,,,,,,,,,,,,,,,,,,,,,,,,,
,,614ca7f8fc7cba1b74101bfe,2022-09-08_14h02.38.097,CGTgamblingSpanTasks,2022.2.1,Win32,60.0240096,,,,,,,,2.938,,,,,,,,,,,,,,2,n,1.062,13.1,1,3.938,1,0,25,25,44,1,13.1,7.73,4.68,1,,,,,,,,,,,,,,,,,,,,,,,,,,,,,,,,,,,,,,,,,,,,,,,,,,,,,,,,,,,,,,,,,,,,,,,,,,,,,,,,,,,,,,,,,,,,,,,,,,
,,614ca7f8fc7cba1b74101bfe,2022-09-08_14h02.38.097,CGTgamblingSpanTasks,2022.2.1,Win32,60.0240096,,,,,,,,2.918,,,,,,,,,,,,,,1,v,1.082,0,1,3.918,1,0,26,26,41,1,14.26,0,0,1,,,,,,,,,,,,,,,,,,,,,,,,,,,,,,,,,,,,,,,,,,,,,,,,,,,,,,,,,,,,,,,,,,,,,,,,,,,,,,,,,,,,,,,,,,,,,,,,,,
,,614ca7f8fc7cba1b74101bfe,2022-09-08_14h02.38.097,CGTgamblingSpanTasks,2022.2.1,Win32,60.0240096,,,,,,,,3.309,,,,,,,,,,,,,,1,n,0.691,7.55,0,4.809,1.5,0,27,27,45,1,0,0,7.55,1,,,,,,,,,,,,,,,,,,,,,,,,,,,,,,,,,,,,,,,,,,,,,,,,,,,,,,,,,,,,,,,,,,,,,,,,,,,,,,,,,,,,,,,,,,,,,,,,,,
,,614ca7f8fc7cba1b74101bfe,2022-09-08_14h02.38.097,CGTgamblingSpanTasks,2022.2.1,Win32,60.0240096,,,,,,,,2.786,,,,,,,,,,,,,,1,n,1.214,6.73,0,4.286,1.5,0,28,28,32,1,10.55,0,6.73,0,,,,,,,,,,,,,,,,,,,,,,,,,,,,,,,,,,,,,,,,,,,,,,,,,,,,,,,,,,,,,,,,,,,,,,,,,,,,,,,,,,,,,,,,,,,,,,,,,,
,,614ca7f8fc7cba1b74101bfe,2022-09-08_14h02.38.097,CGTgamblingSpanTasks,2022.2.1,Win32,60.0240096,,,,,,,,3.051,,,,,,,,,,,,,,2,v,0.949,10.37,0,4.551,1.5,0,29,29,37,1,15.27,0,10.37,0,,,,,,,,,,,,,,,,,,,,,,,,,,,,,,,,,,,,,,,,,,,,,,,,,,,,,,,,,,,,,,,,,,,,,,,,,,,,,,,,,,,,,,,,,,,,,,,,,,
,,614ca7f8fc7cba1b74101bfe,2022-09-08_14h02.38.097,CGTgamblingSpanTasks,2022.2.1,Win32,60.0240096,,,,,,,,2.718,,,,,,,,,,,,,,1,v,1.282,0,1,4.218,1.5,0,30,30,8,1,13.94,0,5.03,0,,,,,,,,,,,,,,,,,,,,,,,,,,,,,,,,,,,,,,,,,,,,,,,,,,,,,,,,,,,,,,,,,,,,,,,,,,,,,,,,,,,,,,,,,,,,,,,,,,
,,614ca7f8fc7cba1b74101bfe,2022-09-08_14h02.38.097,CGTgamblingSpanTasks,2022.2.1,Win32,60.0240096,,,,,,,,3.148,,,,,,,,,,,,,,2,v,0.852,10.15,0,4.148,1,0,31,31,33,1,15.7,0,10.15,0,,,,,,,,,,,,,,,,,,,,,,,,,,,,,,,,,,,,,,,,,,,,,,,,,,,,,,,,,,,,,,,,,,,,,,,,,,,,,,,,,,,,,,,,,,,,,,,,,,
,,614ca7f8fc7cba1b74101bfe,2022-09-08_14h02.38.097,CGTgamblingSpanTasks,2022.2.1,Win32,60.0240096,,,,,,,,3.153,,,,,,,,,,,,,,2,v,0.847,6.63,0,4.653,1.5,0,32,32,30,1,10.73,0,6.63,0,,,,,,,,,,,,,,,,,,,,,,,,,,,,,,,,,,,,,,,,,,,,,,,,,,,,,,,,,,,,,,,,,,,,,,,,,,,,,,,,,,,,,,,,,,,,,,,,,,
,,614ca7f8fc7cba1b74101bfe,2022-09-08_14h02.38.097,CGTgamblingSpanTasks,2022.2.1,Win32,60.0240096,,,,,,,,3.201,,,,,,,,,,,,,,2,v,0.799,6.4,0,4.701,1.5,0,33,33,26,1,11.2,0,6.4,0,,,,,,,,,,,,,,,,,,,,,,,,,,,,,,,,,,,,,,,,,,,,,,,,,,,,,,,,,,,,,,,,,,,,,,,,,,,,,,,,,,,,,,,,,,,,,,,,,,
,,614ca7f8fc7cba1b74101bfe,2022-09-08_14h02.38.097,CGTgamblingSpanTasks,2022.2.1,Win32,60.0240096,,,,,,,,3.068,,,,,,,,,,,,,,2,v,0.932,8.61,0,4.568,1.5,0,34,34,15,1,18.77,0,8.61,0,,,,,,,,,,,,,,,,,,,,,,,,,,,,,,,,,,,,,,,,,,,,,,,,,,,,,,,,,,,,,,,,,,,,,,,,,,,,,,,,,,,,,,,,,,,,,,,,,,
,,614ca7f8fc7cba1b74101bfe,2022-09-08_14h02.38.097,CGTgamblingSpanTasks,2022.2.1,Win32,60.0240096,,,,,,,,3.016,,,,,,,,,,,,,,2,v,0.984,6.53,0,4.016,1,0,35,35,28,1,10.95,0,6.53,0,,,,,,,,,,,,,,,,,,,,,,,,,,,,,,,,,,,,,,,,,,,,,,,,,,,,,,,,,,,,,,,,,,,,,,,,,,,,,,,,,,,,,,,,,,,,,,,,,,
,,614ca7f8fc7cba1b74101bfe,2022-09-08_14h02.38.097,CGTgamblingSpanTasks,2022.2.1,Win32,60.0240096,,,,,,,,3.035,,,,,,,,,,,,,,1,n,0.965,6.29,0,4.035,1,0,36,36,24,1,11.43,0,6.29,0,,,,,,,,,,,,,,,,,,,,,,,,,,,,,,,,,,,,,,,,,,,,,,,,,,,,,,,,,,,,,,,,,,,,,,,,,,,,,,,,,,,,,,,,,,,,,,,,,,
,,614ca7f8fc7cba1b74101bfe,2022-09-08_14h02.38.097,CGTgamblingSpanTasks,2022.2.1,Win32,60.0240096,,,,,,,,3.158,,,,,,,,,,,,,,1,n,0.842,10.25,0,4.158,1,0,37,37,46,1,0,0,10.25,1,,,,,,,,,,,,,,,,,,,,,,,,,,,,,,,,,,,,,,,,,,,,,,,,,,,,,,,,,,,,,,,,,,,,,,,,,,,,,,,,,,,,,,,,,,,,,,,,,,
,,614ca7f8fc7cba1b74101bfe,2022-09-08_14h02.38.097,CGTgamblingSpanTasks,2022.2.1,Win32,60.0240096,,,,,,,,3.121,,,,,,,,,,,,,,2,v,0.879,6.81,0,4.621,1.5,0,38,38,34,1,10.39,0,6.81,0,,,,,,,,,,,,,,,,,,,,,,,,,,,,,,,,,,,,,,,,,,,,,,,,,,,,,,,,,,,,,,,,,,,,,,,,,,,,,,,,,,,,,,,,,,,,,,,,,,
,,614ca7f8fc7cba1b74101bfe,2022-09-08_14h02.38.097,CGTgamblingSpanTasks,2022.2.1,Win32,60.0240096,,,,,,,,2.985,,,,,,,,,,,,,,2,v,1.015,9.87,0,4.485,1.5,0,39,39,29,1,16.26,0,9.87,0,,,,,,,,,,,,,,,,,,,,,,,,,,,,,,,,,,,,,,,,,,,,,,,,,,,,,,,,,,,,,,,,,,,,,,,,,,,,,,,,,,,,,,,,,,,,,,,,,,
,,614ca7f8fc7cba1b74101bfe,2022-09-08_14h02.38.097,CGTgamblingSpanTasks,2022.2.1,Win32,60.0240096,,,,,,,,3.229,,,,,,,,,,,,,,1,n,0.771,6.94,0,4.229,1,0,40,40,38,1,10.12,0,6.94,0,,,,,,,,,,,,,,,,,,,,,,,,,,,,,,,,,,,,,,,,,,,,,,,,,,,,,,,,,,,,,,,,,,,,,,,,,,,,,,,,,,,,,,,,,,,,,,,,,,
,,614ca7f8fc7cba1b74101bfe,2022-09-08_14h02.38.097,CGTgamblingSpanTasks,2022.2.1,Win32,60.0240096,,,,,,,,2.942,,,,,,,,,,,,,,1,v,1.058,17.73,1,4.442,1.5,0,41,41,2,1,17.73,0,3.13,0,,,,,,,,,,,,,,,,,,,,,,,,,,,,,,,,,,,,,,,,,,,,,,,,,,,,,,,,,,,,,,,,,,,,,,,,,,,,,,,,,,,,,,,,,,,,,,,,,,
,,614ca7f8fc7cba1b74101bfe,2022-09-08_14h02.38.097,CGTgamblingSpanTasks,2022.2.1,Win32,60.0240096,,,,,,,,2.898,,,,,,,,,,,,,,2,n,1.102,0,1,4.398,1.5,0,42,42,0,1,20.03,0,1.99,0,,,,,,,,,,,,,,,,,,,,,,,,,,,,,,,,,,,,,,,,,,,,,,,,,,,,,,,,,,,,,,,,,,,,,,,,,,,,,,,,,,,,,,,,,,,,,,,,,,
,,614ca7f8fc7cba1b74101bfe,2022-09-08_14h02.38.097,CGTgamblingSpanTasks,2022.2.1,Win32,60.0240096,,,,,,,,3.05,,,,,,,,,,,,,,1,n,0.95,9.92,0,4.55,1.5,0,43,43,49,1,6.79,0,9.92,1,,,,,,,,,,,,,,,,,,,,,,,,,,,,,,,,,,,,,,,,,,,,,,,,,,,,,,,,,,,,,,,,,,,,,,,,,,,,,,,,,,,,,,,,,,,,,,,,,,
,,614ca7f8fc7cba1b74101bfe,2022-09-08_14h02.38.097,CGTgamblingSpanTasks,2022.2.1,Win32,60.0240096,,,,,,,,2.869,,,,,,,,,,,,,,1,n,1.131,5.66,0,4.369,1.5,0,44,44,14,1,12.68,0,5.66,0,,,,,,,,,,,,,,,,,,,,,,,,,,,,,,,,,,,,,,,,,,,,,,,,,,,,,,,,,,,,,,,,,,,,,,,,,,,,,,,,,,,,,,,,,,,,,,,,,,
,,614ca7f8fc7cba1b74101bfe,2022-09-08_14h02.38.097,CGTgamblingSpanTasks,2022.2.1,Win32,60.0240096,,,,,,,,2.934,,,,,,,,,,,,,,2,v,1.066,10.46,0,3.934,1,0,45,45,39,1,15.09,0,10.46,0,,,,,,,,,,,,,,,,,,,,,,,,,,,,,,,,,,,,,,,,,,,,,,,,,,,,,,,,,,,,,,,,,,,,,,,,,,,,,,,,,,,,,,,,,,,,,,,,,,
,,614ca7f8fc7cba1b74101bfe,2022-09-08_14h02.38.097,CGTgamblingSpanTasks,2022.2.1,Win32,60.0240096,,,,,,,,3.068,,,,,,,,,,,,,,1,v,0.932,10.35,1,4.068,1,0,46,46,40,1,10.35,0,0,1,,,,,,,,,,,,,,,,,,,,,,,,,,,,,,,,,,,,,,,,,,,,,,,,,,,,,,,,,,,,,,,,,,,,,,,,,,,,,,,,,,,,,,,,,,,,,,,,,,
,,614ca7f8fc7cba1b74101bfe,2022-09-08_14h02.38.097,CGTgamblingSpanTasks,2022.2.1,Win32,60.0240096,,,,,,,,2.885,,,,,,,,,,,,,,1,n,1.115,7.73,0,3.885,1,0,47,47,9,1,20.53,0,7.73,0,,,,,,,,,,,,,,,,,,,,,,,,,,,,,,,,,,,,,,,,,,,,,,,,,,,,,,,,,,,,,,,,,,,,,,,,,,,,,,,,,,,,,,,,,,,,,,,,,,
,,614ca7f8fc7cba1b74101bfe,2022-09-08_14h02.38.097,CGTgamblingSpanTasks,2022.2.1,Win32,60.0240096,,,,,,,,3.151,,,,,,,,,,,,,,1,n,0.849,6.19,0,4.651,1.5,0,48,48,22,1,11.62,0,6.19,0,,,,,,,,,,,,,,,,,,,,,,,,,,,,,,,,,,,,,,,,,,,,,,,,,,,,,,,,,,,,,,,,,,,,,,,,,,,,,,,,,,,,,,,,,,,,,,,,,,
,,614ca7f8fc7cba1b74101bfe,2022-09-08_14h02.38.097,CGTgamblingSpanTasks,2022.2.1,Win32,60.0240096,,,,,,,,3.246,,,,,,,,,,,,,,1,n,0.754,3.13,0,4.246,1,0,49,49,47,1,0,0,3.13,1,,,,,,,,,,,,,,,,,,,,,,,,,,,,,,,,,,,,,,,,,,,,,,,,,,,,,,,,,,,,,,,,,,,,,,,,,,,,,,,,,,,,,,,,,,,,,,,,,,
,,614ca7f8fc7cba1b74101bfe,2022-09-08_14h02.38.097,CGTgamblingSpanTasks,2022.2.1,Win32,60.0240096,,,,,,,,,,,,,,,,,,,,,,,,,,,,,,,,,,,,,,bespoke_choiceset_rhoInd036_muInd065.csv,bespoke_choicesets/bespoke_choiceset_rhoInd036_muInd065.csv,36,65,0,0,0,0,1,,,,,,,,,,,,,,,,,,,,,,,,,,,,,,,,,,,,,,,,,,,,,,,,,,,,,,,,,,,,,,,,,,,,,,,,,,,,,,,,,,,,,,,,,
,,614ca7f8fc7cba1b74101bfe,2022-09-08_14h02.38.097,CGTgamblingSpanTasks,2022.2.1,Win32,60.0240096,,,,,,,,,,,,,,,,,,,,,,,,,,,,,,,,,,,,,,,,,,,,,,,,,,,,,,,,,,,,,,,,,,,,,,,,,,,,,,,,,,,,,,,,,,,,,,,,,,,,,,,,,,,,,,,,,,,,,,,,,,,,,,,,,,,,,,,
,,614ca7f8fc7cba1b74101bfe,2022-09-08_14h02.38.097,CGTgamblingSpanTasks,2022.2.1,Win32,60.0240096,,,,,,,,,,,,,,,,,,,,,,,,,,,,,,,,,,,,,,,,,,,,,,,v,2.013,,,,,,,,,,,,,,,,,,,,,,,,,,,,,,,,,,,,,,,,,,,,,,,,,,,,,,,,,,,,,,,,,,,,,,,,,,,,,,,,,,,,,,,
,,614ca7f8fc7cba1b74101bfe,2022-09-08_14h02.38.097,CGTgamblingSpanTasks,2022.2.1,Win32,60.0240096,,,,,,,,3.05,,,,,,,,,,,,,,2,n,0.95,0,1,4.05,1,,,,,,19.5450126,0,2.123581464,,,,,,,,,,,,,0,0,0,65,1,0.475836144,1,,,,,,,,,,,,,,,,,,,,,,,,,,,,,,,,,,,,,,,,,,,,,,,,,,,,,,,,,,,,,,,,,,,,,,,,,,,,,,,,
,,614ca7f8fc7cba1b74101bfe,2022-09-08_14h02.38.097,CGTgamblingSpanTasks,2022.2.1,Win32,60.0240096,,,,,,,,3.185,,,,,,,,,,,,,,1,n,0.815,11.35147481,0,4.685,1.5,,,,,,17.67865084,0,11.35147481,,,,,,,,,,,,,0,1,1,91,1,0.067304606,0,,,,,,,,,,,,,,,,,,,,,,,,,,,,,,,,,,,,,,,,,,,,,,,,,,,,,,,,,,,,,,,,,,,,,,,,,,,,,,,,
,,614ca7f8fc7cba1b74101bfe,2022-09-08_14h02.38.097,CGTgamblingSpanTasks,2022.2.1,Win32,60.0240096,,,,,,,,3.132,,,,,,,,,,,,,,2,n,0.868,19.3050342,1,4.632,1.5,,,,,,19.3050342,0,2.030232342,,,,,,,,,,,,,0,2,2,73,1,0.484573227,1,,,,,,,,,,,,,,,,,,,,,,,,,,,,,,,,,,,,,,,,,,,,,,,,,,,,,,,,,,,,,,,,,,,,,,,,,,,,,,,,
,,614ca7f8fc7cba1b74101bfe,2022-09-08_14h02.38.097,CGTgamblingSpanTasks,2022.2.1,Win32,60.0240096,,,,,,,,3.036,,,,,,,,,,,,,,1,v,0.964,24.57684014,1,4.536,1.5,,,,,,24.57684014,0,0.061756244,,,,,,,,,,,,,0,3,3,68,1,0.911988903,0,,,,,,,,,,,,,,,,,,,,,,,,,,,,,,,,,,,,,,,,,,,,,,,,,,,,,,,,,,,,,,,,,,,,,,,,,,,,,,,,
,,614ca7f8fc7cba1b74101bfe,2022-09-08_14h02.38.097,CGTgamblingSpanTasks,2022.2.1,Win32,60.0240096,,,,,,,,3.151,,,,,,,,,,,,,,2,n,0.849,27.88092897,1,4.151,1,,,,,,27.88092897,0,2.771762788,,,,,,,,,,,,,0,4,4,117,1,0.499466648,1,,,,,,,,,,,,,,,,,,,,,,,,,,,,,,,,,,,,,,,,,,,,,,,,,,,,,,,,,,,,,,,,,,,,,,,,,,,,,,,,
,,614ca7f8fc7cba1b74101bfe,2022-09-08_14h02.38.097,CGTgamblingSpanTasks,2022.2.1,Win32,60.0240096,,,,,,,,3.184,,,,,,,,,,,,,,2,n,0.816,0,1,4.184,1,,,,,,28.9323758,0,2.893007023,,,,,,,,,,,,,0,5,5,11,1,0.497943321,1,,,,,,,,,,,,,,,,,,,,,,,,,,,,,,,,,,,,,,,,,,,,,,,,,,,,,,,,,,,,,,,,,,,,,,,,,,,,,,,,
,,614ca7f8fc7cba1b74101bfe,2022-09-08_14h02.38.097,CGTgamblingSpanTasks,2022.2.1,Win32,60.0240096,,,,,,,,3.013,,,,,,,,,,,,,,1,v,0.987,29.76099779,1,4.013,1,,,,,,29.76099779,0,0.095763086,,,,,,,,,,,,,0,6,6,35,1,0.904537896,0,,,,,,,,,,,,,,,,,,,,,,,,,,,,,,,,,,,,,,,,,,,,,,,,,,,,,,,,,,,,,,,,,,,,,,,,,,,,,,,,
,,614ca7f8fc7cba1b74101bfe,2022-09-08_14h02.38.097,CGTgamblingSpanTasks,2022.2.1,Win32,60.0240096,,,,,,,,3.258,,,,,,,,,,,,,,2,n,0.742,0,1,4.258,1,,,,,,21.17800335,0,0.059830985,,,,,,,,,,,,,0,7,7,67,1,0.908594974,0,,,,,,,,,,,,,,,,,,,,,,,,,,,,,,,,,,,,,,,,,,,,,,,,,,,,,,,,,,,,,,,,,,,,,,,,,,,,,,,,
,,614ca7f8fc7cba1b74101bfe,2022-09-08_14h02.38.097,CGTgamblingSpanTasks,2022.2.1,Win32,60.0240096,,,,,,,,2.934,,,,,,,,,,,,,,2,n,1.066,17.85020524,1,4.434,1.5,,,,,,17.85020524,0,2.058701084,,,,,,,,,,,,,0,8,8,25,1,0.459662216,1,,,,,,,,,,,,,,,,,,,,,,,,,,,,,,,,,,,,,,,,,,,,,,,,,,,,,,,,,,,,,,,,,,,,,,,,,,,,,,,,
,,614ca7f8fc7cba1b74101bfe,2022-09-08_14h02.38.097,CGTgamblingSpanTasks,2022.2.1,Win32,60.0240096,,,,,,,,3.035,,,,,,,,,,,,,,2,n,0.965,19.36415485,1,4.535,1.5,,,,,,19.36415485,0,1.966229494,,,,,,,,,,,,,0,9,9,96,1,0.493893111,1,,,,,,,,,,,,,,,,,,,,,,,,,,,,,,,,,,,,,,,,,,,,,,,,,,,,,,,,,,,,,,,,,,,,,,,,,,,,,,,,
,,614ca7f8fc7cba1b74101bfe,2022-09-08_14h02.38.097,CGTgamblingSpanTasks,2022.2.1,Win32,60.0240096,,,,,,,,3.018,,,,,,,,,,,,,,1,v,0.982,0,1,4.018,1,,,,,,27.12325385,0,0.080932047,,,,,,,,,,,,,0,10,10,14,1,0.906929184,0,,,,,,,,,,,,,,,,,,,,,,,,,,,,,,,,,,,,,,,,,,,,,,,,,,,,,,,,,,,,,,,,,,,,,,,,,,,,,,,,
,,614ca7f8fc7cba1b74101bfe,2022-09-08_14h02.38.097,CGTgamblingSpanTasks,2022.2.1,Win32,60.0240096,,,,,,,,2.736,,,,,,,,,,,,,,2,v,1.264,8.830252162,0,3.736,1,,,,,,15.73000491,0,8.830252162,,,,,,,,,,,,,0,11,11,95,1,0.084193143,0,,,,,,,,,,,,,,,,,,,,,,,,,,,,,,,,,,,,,,,,,,,,,,,,,,,,,,,,,,,,,,,,,,,,,,,,,,,,,,,,
,,614ca7f8fc7cba1b74101bfe,2022-09-08_14h02.38.097,CGTgamblingSpanTasks,2022.2.1,Win32,60.0240096,,,,,,,,2.946,,,,,,,,,,,,,,2,v,1.054,11.6744431,0,3.946,1,,,,,,10.43004651,0,11.6744431,,,,,,,,,,,,,0,12,12,15,1,0.026176489,0,,,,,,,,,,,,,,,,,,,,,,,,,,,,,,,,,,,,,,,,,,,,,,,,,,,,,,,,,,,,,,,,,,,,,,,,,,,,,,,,
,,614ca7f8fc7cba1b74101bfe,2022-09-08_14h02.38.097,CGTgamblingSpanTasks,2022.2.1,Win32,60.0240096,,,,,,,,3.19,,,,,,,,,,,,,,2,n,0.81,25.65316415,1,4.69,1.5,,,,,,25.65316415,0,0.079652925,,,,,,,,,,,,,0,13,13,109,1,0.90568168,0,,,,,,,,,,,,,,,,,,,,,,,,,,,,,,,,,,,,,,,,,,,,,,,,,,,,,,,,,,,,,,,,,,,,,,,,,,,,,,,,
,,614ca7f8fc7cba1b74101bfe,2022-09-08_14h02.38.097,CGTgamblingSpanTasks,2022.2.1,Win32,60.0240096,,,,,,,,3.151,,,,,,,,,,,,,,1,v,0.849,25.76582409,1,4.151,1,,,,,,25.76582409,0,2.393193076,,,,,,,,,,,,,0,14,14,46,1,0.517129855,1,,,,,,,,,,,,,,,,,,,,,,,,,,,,,,,,,,,,,,,,,,,,,,,,,,,,,,,,,,,,,,,,,,,,,,,,,,,,,,,,
,,614ca7f8fc7cba1b74101bfe,2022-09-08_14h02.38.097,CGTgamblingSpanTasks,2022.2.1,Win32,60.0240096,,,,,,,,3.259,,,,,,,,,,,,,,2,n,0.741,0,1,4.259,1,,,,,,26.16821818,0,0.093528069,,,,,,,,,,,,,0,15,15,42,1,0.901022427,0,,,,,,,,,,,,,,,,,,,,,,,,,,,,,,,,,,,,,,,,,,,,,,,,,,,,,,,,,,,,,,,,,,,,,,,,,,,,,,,,
,,614ca7f8fc7cba1b74101bfe,2022-09-08_14h02.38.097,CGTgamblingSpanTasks,2022.2.1,Win32,60.0240096,,,,,,,,3.069,,,,,,,,,,,,,,2,n,0.931,0,1,4.569,1.5,,,,,,23.59556381,0,2.464662219,,,,,,,,,,,,,0,16,16,22,1,0.486383205,1,,,,,,,,,,,,,,,,,,,,,,,,,,,,,,,,,,,,,,,,,,,,,,,,,,,,,,,,,,,,,,,,,,,,,,,,,,,,,,,,
,,614ca7f8fc7cba1b74101bfe,2022-09-08_14h02.38.097,CGTgamblingSpanTasks,2022.2.1,Win32,60.0240096,,,,,,,,3.289,,,,,,,,,,,,,,2,n,0.711,21.7711579,1,4.789,1.5,,,,,,21.7711579,0,2.502728921,,,,,,,,,,,,,0,17,17,101,1,0.460552621,1,,,,,,,,,,,,,,,,,,,,,,,,,,,,,,,,,,,,,,,,,,,,,,,,,,,,,,,,,,,,,,,,,,,,,,,,,,,,,,,,
,,614ca7f8fc7cba1b74101bfe,2022-09-08_14h02.38.097,CGTgamblingSpanTasks,2022.2.1,Win32,60.0240096,,,,,,,,3.363,,,,,,,,,,,,,,2,n,0.637,28.9381277,1,4.363,1,,,,,,28.9381277,0,2.663622024,,,,,,,,,,,,,0,18,18,103,1,0.519453367,1,,,,,,,,,,,,,,,,,,,,,,,,,,,,,,,,,,,,,,,,,,,,,,,,,,,,,,,,,,,,,,,,,,,,,,,,,,,,,,,,
,,614ca7f8fc7cba1b74101bfe,2022-09-08_14h02.38.097,CGTgamblingSpanTasks,2022.2.1,Win32,60.0240096,,,,,,,,3.301,,,,,,,,,,,,,,1,v,0.699,0,1,4.301,1,,,,,,22.62475578,0,2.397643354,,,,,,,,,,,,,0,19,19,93,1,0.482527609,1,,,,,,,,,,,,,,,,,,,,,,,,,,,,,,,,,,,,,,,,,,,,,,,,,,,,,,,,,,,,,,,,,,,,,,,,,,,,,,,,
,,614ca7f8fc7cba1b74101bfe,2022-09-08_14h02.38.097,CGTgamblingSpanTasks,2022.2.1,Win32,60.0240096,,,,,,,,3.1,,,,,,,,,,,,,,2,v,0.9,7.850775577,0,4.6,1.5,,,,,,4.622707531,0,7.850775577,,,,,,,,,,,,,0,20,20,6,1,0.017737407,0,,,,,,,,,,,,,,,,,,,,,,,,,,,,,,,,,,,,,,,,,,,,,,,,,,,,,,,,,,,,,,,,,,,,,,,,,,,,,,,,
,,614ca7f8fc7cba1b74101bfe,2022-09-08_14h02.38.097,CGTgamblingSpanTasks,2022.2.1,Win32,60.0240096,,,,,,,,3.175,,,,,,,,,,,,,,1,v,0.825,17.30137174,1,4.675,1.5,,,,,,17.30137174,0,1.716380842,,,,,,,,,,,,,0,21,21,20,1,0.500020285,1,,,,,,,,,,,,,,,,,,,,,,,,,,,,,,,,,,,,,,,,,,,,,,,,,,,,,,,,,,,,,,,,,,,,,,,,,,,,,,,,
,,614ca7f8fc7cba1b74101bfe,2022-09-08_14h02.38.097,CGTgamblingSpanTasks,2022.2.1,Win32,60.0240096,,,,,,,,3.236,,,,,,,,,,,,,,1,v,0.764,29.77342428,1,4.736,1.5,,,,,,29.77342428,0,2.838865588,,,,,,,,,,,,,0,22,22,57,1,0.510363415,1,,,,,,,,,,,,,,,,,,,,,,,,,,,,,,,,,,,,,,,,,,,,,,,,,,,,,,,,,,,,,,,,,,,,,,,,,,,,,,,,
,,614ca7f8fc7cba1b74101bfe,2022-09-08_14h02.38.097,CGTgamblingSpanTasks,2022.2.1,Win32,60.0240096,,,,,,,,3.178,,,,,,,,,,,,,,2,n,0.822,28.14876717,1,4.678,1.5,,,,,,28.14876717,0,3.117906378,,,,,,,,,,,,,0,23,23,76,1,0.470636736,1,,,,,,,,,,,,,,,,,,,,,,,,,,,,,,,,,,,,,,,,,,,,,,,,,,,,,,,,,,,,,,,,,,,,,,,,,,,,,,,,
,,614ca7f8fc7cba1b74101bfe,2022-09-08_14h02.38.097,CGTgamblingSpanTasks,2022.2.1,Win32,60.0240096,,,,,,,,3.193,,,,,,,,,,,,,,1,v,0.807,13.84410806,1,4.693,1.5,,,,,,13.84410806,0,1.535873964,,,,,,,,,,,,,0,24,24,88,1,0.470209002,1,,,,,,,,,,,,,,,,,,,,,,,,,,,,,,,,,,,,,,,,,,,,,,,,,,,,,,,,,,,,,,,,,,,,,,,,,,,,,,,,
,,614ca7f8fc7cba1b74101bfe,2022-09-08_14h02.38.097,CGTgamblingSpanTasks,2022.2.1,Win32,60.0240096,,,,,,,,2.931,,,,,,,,,,,,,,1,n,1.069,11.39288827,0,3.931,1,,,,,,20.97851654,0,11.39288827,,,,,,,,,,,,,0,25,25,2,1,0.088791079,0,,,,,,,,,,,,,,,,,,,,,,,,,,,,,,,,,,,,,,,,,,,,,,,,,,,,,,,,,,,,,,,,,,,,,,,,,,,,,,,,
,,614ca7f8fc7cba1b74101bfe,2022-09-08_14h02.38.097,CGTgamblingSpanTasks,2022.2.1,Win32,60.0240096,,,,,,,,3.063,,,,,,,,,,,,,,2,v,0.937,10.41201161,0,4.563,1.5,,,,,,6.307062696,0,10.41201161,,,,,,,,,,,,,0,26,26,23,1,0.018187109,0,,,,,,,,,,,,,,,,,,,,,,,,,,,,,,,,,,,,,,,,,,,,,,,,,,,,,,,,,,,,,,,,,,,,,,,,,,,,,,,,
,,614ca7f8fc7cba1b74101bfe,2022-09-08_14h02.38.097,CGTgamblingSpanTasks,2022.2.1,Win32,60.0240096,,,,,,,,3.137,,,,,,,,,,,,,,2,n,0.863,20.5726842,1,4.637,1.5,,,,,,20.5726842,0,0.073558523,,,,,,,,,,,,,0,27,27,26,1,0.901008565,0,,,,,,,,,,,,,,,,,,,,,,,,,,,,,,,,,,,,,,,,,,,,,,,,,,,,,,,,,,,,,,,,,,,,,,,,,,,,,,,,
,,614ca7f8fc7cba1b74101bfe,2022-09-08_14h02.38.097,CGTgamblingSpanTasks,2022.2.1,Win32,60.0240096,,,,,,,,3.345,,,,,,,,,,,,,,1,v,0.655,0,1,4.845,1.5,,,,,,25.54604005,0,0.088845411,,,,,,,,,,,,,0,28,28,79,1,0.901957831,0,,,,,,,,,,,,,,,,,,,,,,,,,,,,,,,,,,,,,,,,,,,,,,,,,,,,,,,,,,,,,,,,,,,,,,,,,,,,,,,,
,,614ca7f8fc7cba1b74101bfe,2022-09-08_14h02.38.097,CGTgamblingSpanTasks,2022.2.1,Win32,60.0240096,,,,,,,,3.322,,,,,,,,,,,,,,2,n,0.678,24.66627941,1,4.322,1,,,,,,24.66627941,0,2.765426402,,,,,,,,,,,,,0,29,29,24,1,0.467360588,1,,,,,,,,,,,,,,,,,,,,,,,,,,,,,,,,,,,,,,,,,,,,,,,,,,,,,,,,,,,,,,,,,,,,,,,,,,,,,,,,
,,614ca7f8fc7cba1b74101bfe,2022-09-08_14h02.38.097,CGTgamblingSpanTasks,2022.2.1,Win32,60.0240096,,,,,,,,3.352,,,,,,,,,,,,,,2,n,0.648,21.00799273,1,4.852,1.5,,,,,,21.00799273,0,0.067969053,,,,,,,,,,,,,0,30,30,92,1,0.904360262,0,,,,,,,,,,,,,,,,,,,,,,,,,,,,,,,,,,,,,,,,,,,,,,,,,,,,,,,,,,,,,,,,,,,,,,,,,,,,,,,,
,,614ca7f8fc7cba1b74101bfe,2022-09-08_14h02.38.097,CGTgamblingSpanTasks,2022.2.1,Win32,60.0240096,,,,,,,,3.112,,,,,,,,,,,,,,1,v,0.888,26.4985979,1,4.112,1,,,,,,26.4985979,0,0.051324376,,,,,,,,,,,,,0,31,31,106,1,0.918747215,0,,,,,,,,,,,,,,,,,,,,,,,,,,,,,,,,,,,,,,,,,,,,,,,,,,,,,,,,,,,,,,,,,,,,,,,,,,,,,,,,
,,614ca7f8fc7cba1b74101bfe,2022-09-08_14h02.38.097,CGTgamblingSpanTasks,2022.2.1,Win32,60.0240096,,,,,,,,3.217,,,,,,,,,,,,,,1,v,0.783,0,1,4.217,1,,,,,,27.94544945,0,2.32030209,,,,,,,,,,,,,0,32,32,115,1,0.545390564,1,,,,,,,,,,,,,,,,,,,,,,,,,,,,,,,,,,,,,,,,,,,,,,,,,,,,,,,,,,,,,,,,,,,,,,,,,,,,,,,,
,,614ca7f8fc7cba1b74101bfe,2022-09-08_14h02.38.097,CGTgamblingSpanTasks,2022.2.1,Win32,60.0240096,,,,,,,,3.268,,,,,,,,,,,,,,2,n,0.732,0,1,4.768,1.5,,,,,,27.4965044,0,2.461467004,,,,,,,,,,,,,0,33,33,36,1,0.526550878,1,,,,,,,,,,,,,,,,,,,,,,,,,,,,,,,,,,,,,,,,,,,,,,,,,,,,,,,,,,,,,,,,,,,,,,,,,,,,,,,,
,,614ca7f8fc7cba1b74101bfe,2022-09-08_14h02.38.097,CGTgamblingSpanTasks,2022.2.1,Win32,60.0240096,,,,,,,,3.398,,,,,,,,,,,,,,1,v,0.602,25.26994993,1,4.398,1,,,,,,25.26994993,0,2.78925142,,,,,,,,,,,,,0,34,34,108,1,0.471582922,1,,,,,,,,,,,,,,,,,,,,,,,,,,,,,,,,,,,,,,,,,,,,,,,,,,,,,,,,,,,,,,,,,,,,,,,,,,,,,,,,
,,614ca7f8fc7cba1b74101bfe,2022-09-08_14h02.38.097,CGTgamblingSpanTasks,2022.2.1,Win32,60.0240096,,,,,,,,3.15,,,,,,,,,,,,,,1,v,0.85,0,1,4.65,1.5,,,,,,8.670591867,0,1.025847652,,,,,,,,,,,,,0,35,35,18,1,0.452680459,1,,,,,,,,,,,,,,,,,,,,,,,,,,,,,,,,,,,,,,,,,,,,,,,,,,,,,,,,,,,,,,,,,,,,,,,,,,,,,,,,
,,614ca7f8fc7cba1b74101bfe,2022-09-08_14h02.38.097,CGTgamblingSpanTasks,2022.2.1,Win32,60.0240096,,,,,,,,3.155,,,,,,,,,,,,,,1,v,0.845,28.94627214,1,4.155,1,,,,,,28.94627214,0,2.701896413,,,,,,,,,,,,,0,36,36,111,1,0.515860759,1,,,,,,,,,,,,,,,,,,,,,,,,,,,,,,,,,,,,,,,,,,,,,,,,,,,,,,,,,,,,,,,,,,,,,,,,,,,,,,,,
,,614ca7f8fc7cba1b74101bfe,2022-09-08_14h02.38.097,CGTgamblingSpanTasks,2022.2.1,Win32,60.0240096,,,,,,,,2.763,,,,,,,,,,,,,,1,v,1.237,14.20587264,1,4.263,1.5,,,,,,14.20587264,0,11.93550497,,,,,,,,,,,,,0,37,37,21,1,0.041340301,0,,,,,,,,,,,,,,,,,,,,,,,,,,,,,,,,,,,,,,,,,,,,,,,,,,,,,,,,,,,,,,,,,,,,,,,,,,,,,,,,
,,614ca7f8fc7cba1b74101bfe,2022-09-08_14h02.38.097,CGTgamblingSpanTasks,2022.2.1,Win32,60.0240096,,,,,,,,3.059,,,,,,,,,,,,,,1,n,0.941,4.904872644,0,4.059,1,,,,,,4.698775357,0,4.904872644,,,,,,,,,,,,,0,38,38,75,1,0.028064484,0,,,,,,,,,,,,,,,,,,,,,,,,,,,,,,,,,,,,,,,,,,,,,,,,,,,,,,,,,,,,,,,,,,,,,,,,,,,,,,,,
,,614ca7f8fc7cba1b74101bfe,2022-09-08_14h02.38.097,CGTgamblingSpanTasks,2022.2.1,Win32,60.0240096,,,,,,,,2.877,,,,,,,,,,,,,,2,v,1.123,11.42134125,0,4.377,1.5,,,,,,12.9904115,0,11.42134125,,,,,,,,,,,,,0,39,39,118,1,0.037876033,0,,,,,,,,,,,,,,,,,,,,,,,,,,,,,,,,,,,,,,,,,,,,,,,,,,,,,,,,,,,,,,,,,,,,,,,,,,,,,,,,
,,614ca7f8fc7cba1b74101bfe,2022-09-08_14h02.38.097,CGTgamblingSpanTasks,2022.2.1,Win32,60.0240096,,,,,,,,3.229,,,,,,,,,,,,,,2,n,0.771,27.93093084,1,4.229,1,,,,,,27.93093084,0,0.050207531,,,,,,,,,,,,,0,40,40,83,1,0.920505936,0,,,,,,,,,,,,,,,,,,,,,,,,,,,,,,,,,,,,,,,,,,,,,,,,,,,,,,,,,,,,,,,,,,,,,,,,,,,,,,,,
,,614ca7f8fc7cba1b74101bfe,2022-09-08_14h02.38.097,CGTgamblingSpanTasks,2022.2.1,Win32,60.0240096,,,,,,,,3.31,,,,,,,,,,,,,,1,v,0.69,0,1,4.31,1,,,,,,25.0707644,0,0.067651625,,,,,,,,,,,,,0,41,41,70,1,0.909952349,0,,,,,,,,,,,,,,,,,,,,,,,,,,,,,,,,,,,,,,,,,,,,,,,,,,,,,,,,,,,,,,,,,,,,,,,,,,,,,,,,
,,614ca7f8fc7cba1b74101bfe,2022-09-08_14h02.38.097,CGTgamblingSpanTasks,2022.2.1,Win32,60.0240096,,,,,,,,3.232,,,,,,,,,,,,,,1,v,0.768,27.7711693,1,4.232,1,,,,,,27.7711693,0,2.320849632,,,,,,,,,,,,,0,42,42,94,1,0.543786368,1,,,,,,,,,,,,,,,,,,,,,,,,,,,,,,,,,,,,,,,,,,,,,,,,,,,,,,,,,,,,,,,,,,,,,,,,,,,,,,,,
,,614ca7f8fc7cba1b74101bfe,2022-09-08_14h02.38.097,CGTgamblingSpanTasks,2022.2.1,Win32,60.0240096,,,,,,,,3.273,,,,,,,,,,,,,,2,n,0.727,0,1,4.273,1,,,,,,18.16238569,0,1.540604093,,,,,,,,,,,,,0,43,43,34,1,0.540092491,1,,,,,,,,,,,,,,,,,,,,,,,,,,,,,,,,,,,,,,,,,,,,,,,,,,,,,,,,,,,,,,,,,,,,,,,,,,,,,,,,
,,614ca7f8fc7cba1b74101bfe,2022-09-08_14h02.38.097,CGTgamblingSpanTasks,2022.2.1,Win32,60.0240096,,,,,,,,3.286,,,,,,,,,,,,,,1,v,0.714,22.86604061,1,4.286,1,,,,,,22.86604061,0,2.293289792,,,,,,,,,,,,,0,44,44,51,1,0.49715382,1,,,,,,,,,,,,,,,,,,,,,,,,,,,,,,,,,,,,,,,,,,,,,,,,,,,,,,,,,,,,,,,,,,,,,,,,,,,,,,,,
,,614ca7f8fc7cba1b74101bfe,2022-09-08_14h02.38.097,CGTgamblingSpanTasks,2022.2.1,Win32,60.0240096,,,,,,,,3.281,,,,,,,,,,,,,,2,n,0.719,0,1,4.281,1,,,,,,17.92584289,0,1.878232496,,,,,,,,,,,,,0,45,45,5,1,0.485559263,1,,,,,,,,,,,,,,,,,,,,,,,,,,,,,,,,,,,,,,,,,,,,,,,,,,,,,,,,,,,,,,,,,,,,,,,,,,,,,,,,
,,614ca7f8fc7cba1b74101bfe,2022-09-08_14h02.38.097,CGTgamblingSpanTasks,2022.2.1,Win32,60.0240096,,,,,,,,3.072,,,,,,,,,,,,,,1,n,0.928,11.19311486,0,4.072,1,,,,,,8.17598802,0,11.19311486,,,,,,,,,,,,,0,46,46,110,1,0.021568003,0,,,,,,,,,,,,,,,,,,,,,,,,,,,,,,,,,,,,,,,,,,,,,,,,,,,,,,,,,,,,,,,,,,,,,,,,,,,,,,,,
,,614ca7f8fc7cba1b74101bfe,2022-09-08_14h02.38.097,CGTgamblingSpanTasks,2022.2.1,Win32,60.0240096,,,,,,,,3.16,,,,,,,,,,,,,,2,n,0.84,15.13999312,1,4.16,1,,,,,,15.13999312,0,8.653432553,,,,,,,,,,,,,0,47,47,54,1,0.081767484,0,,,,,,,,,,,,,,,,,,,,,,,,,,,,,,,,,,,,,,,,,,,,,,,,,,,,,,,,,,,,,,,,,,,,,,,,,,,,,,,,
,,614ca7f8fc7cba1b74101bfe,2022-09-08_14h02.38.097,CGTgamblingSpanTasks,2022.2.1,Win32,60.0240096,,,,,,,,2.596,,,,,,,,,,,,,,1,v,1.404,0,1,4.096,1.5,,,,,,19.30622782,0,10.31611309,,,,,,,,,,,,,0,48,48,1,1,0.091105656,0,,,,,,,,,,,,,,,,,,,,,,,,,,,,,,,,,,,,,,,,,,,,,,,,,,,,,,,,,,,,,,,,,,,,,,,,,,,,,,,,
,,614ca7f8fc7cba1b74101bfe,2022-09-08_14h02.38.097,CGTgamblingSpanTasks,2022.2.1,Win32,60.0240096,,,,,,,,2.782,,,,,,,,,,,,,,2,n,1.218,0,1,4.282,1.5,,,,,,15.87668502,0,8.42547829,,,,,,,,,,,,,0,49,49,56,1,0.092099462,0,,,,,,,,,,,,,,,,,,,,,,,,,,,,,,,,,,,,,,,,,,,,,,,,,,,,,,,,,,,,,,,,,,,,,,,,,,,,,,,,
,,614ca7f8fc7cba1b74101bfe,2022-09-08_14h02.38.097,CGTgamblingSpanTasks,2022.2.1,Win32,60.0240096,,,,,,,,3.078,,,,,,,,,,,,,,2,v,0.922,5.683635938,0,4.078,1,,,,,,4.941039335,0,5.683635938,,,,,,,,,,,,,0,50,50,9,1,0.025481984,0,,,,,,,,,,,,,,,,,,,,,,,,,,,,,,,,,,,,,,,,,,,,,,,,,,,,,,,,,,,,,,,,,,,,,,,,,,,,,,,,
,,614ca7f8fc7cba1b74101bfe,2022-09-08_14h02.38.097,CGTgamblingSpanTasks,2022.2.1,Win32,60.0240096,,,,,,,,3.138,,,,,,,,,,,,,,1,v,0.862,21.46599803,1,4.138,1,,,,,,21.46599803,0,0.059789256,,,,,,,,,,,,,0,51,51,8,1,0.909019081,0,,,,,,,,,,,,,,,,,,,,,,,,,,,,,,,,,,,,,,,,,,,,,,,,,,,,,,,,,,,,,,,,,,,,,,,,,,,,,,,,
,,614ca7f8fc7cba1b74101bfe,2022-09-08_14h02.38.097,CGTgamblingSpanTasks,2022.2.1,Win32,60.0240096,,,,,,,,2.9,,,,,,,,,,,,,,2,n,1.1,21.48443242,1,3.9,1,,,,,,21.48443242,0,2.229247341,,,,,,,,,,,,,0,52,52,63,1,0.488155912,1,,,,,,,,,,,,,,,,,,,,,,,,,,,,,,,,,,,,,,,,,,,,,,,,,,,,,,,,,,,,,,,,,,,,,,,,,,,,,,,,
,,614ca7f8fc7cba1b74101bfe,2022-09-08_14h02.38.097,CGTgamblingSpanTasks,2022.2.1,Win32,60.0240096,,,,,,,,3.185,,,,,,,,,,,,,,1,v,0.815,21.16780451,1,4.185,1,,,,,,21.16780451,0,2.469465385,,,,,,,,,,,,,0,53,53,32,1,0.456531699,1,,,,,,,,,,,,,,,,,,,,,,,,,,,,,,,,,,,,,,,,,,,,,,,,,,,,,,,,,,,,,,,,,,,,,,,,,,,,,,,,
,,614ca7f8fc7cba1b74101bfe,2022-09-08_14h02.38.097,CGTgamblingSpanTasks,2022.2.1,Win32,60.0240096,,,,,,,,3.215,,,,,,,,,,,,,,1,v,0.785,24.35708027,1,4.715,1.5,,,,,,24.35708027,0,2.738695417,,,,,,,,,,,,,0,54,54,114,1,0.466573634,1,,,,,,,,,,,,,,,,,,,,,,,,,,,,,,,,,,,,,,,,,,,,,,,,,,,,,,,,,,,,,,,,,,,,,,,,,,,,,,,,
,,614ca7f8fc7cba1b74101bfe,2022-09-08_14h02.38.097,CGTgamblingSpanTasks,2022.2.1,Win32,60.0240096,,,,,,,,3.183,,,,,,,,,,,,,,1,v,0.817,18.20422443,1,4.683,1.5,,,,,,18.20422443,0,1.635040165,,,,,,,,,,,,,0,55,55,82,1,0.525708991,1,,,,,,,,,,,,,,,,,,,,,,,,,,,,,,,,,,,,,,,,,,,,,,,,,,,,,,,,,,,,,,,,,,,,,,,,,,,,,,,,
,,614ca7f8fc7cba1b74101bfe,2022-09-08_14h02.38.097,CGTgamblingSpanTasks,2022.2.1,Win32,60.0240096,,,,,,,,3.372,,,,,,,,,,,,,,2,n,0.628,0,1,4.372,1,,,,,,27.76752685,0,0.083968035,,,,,,,,,,,,,0,56,56,13,1,0.906513967,0,,,,,,,,,,,,,,,,,,,,,,,,,,,,,,,,,,,,,,,,,,,,,,,,,,,,,,,,,,,,,,,,,,,,,,,,,,,,,,,,
,,614ca7f8fc7cba1b74101bfe,2022-09-08_14h02.38.097,CGTgamblingSpanTasks,2022.2.1,Win32,60.0240096,,,,,,,,3.274,,,,,,,,,,,,,,2,n,0.726,18.51345298,1,4.774,1.5,,,,,,18.51345298,0,1.932334278,,,,,,,,,,,,,0,57,57,31,1,0.48658696,1,,,,,,,,,,,,,,,,,,,,,,,,,,,,,,,,,,,,,,,,,,,,,,,,,,,,,,,,,,,,,,,,,,,,,,,,,,,,,,,,
,,614ca7f8fc7cba1b74101bfe,2022-09-08_14h02.38.097,CGTgamblingSpanTasks,2022.2.1,Win32,60.0240096,,,,,,,,3.287,,,,,,,,,,,,,,1,v,0.713,0,1,4.287,1,,,,,,14.3363647,0,1.396635362,,,,,,,,,,,,,0,58,58,78,1,0.504775474,1,,,,,,,,,,,,,,,,,,,,,,,,,,,,,,,,,,,,,,,,,,,,,,,,,,,,,,,,,,,,,,,,,,,,,,,,,,,,,,,,
,,614ca7f8fc7cba1b74101bfe,2022-09-08_14h02.38.097,CGTgamblingSpanTasks,2022.2.1,Win32,60.0240096,,,,,,,,3.38,,,,,,,,,,,,,,2,n,0.62,0,1,4.88,1.5,,,,,,28.33977875,0,2.768313633,,,,,,,,,,,,,0,59,59,116,1,0.50406901,1,,,,,,,,,,,,,,,,,,,,,,,,,,,,,,,,,,,,,,,,,,,,,,,,,,,,,,,,,,,,,,,,,,,,,,,,,,,,,,,,
,,614ca7f8fc7cba1b74101bfe,2022-09-08_14h02.38.097,CGTgamblingSpanTasks,2022.2.1,Win32,60.0240096,,,,,,,,3.149,,,,,,,,,,,,,,1,v,0.851,0,1,4.649,1.5,,,,,,15.43649625,0,1.65459324,,,,,,,,,,,,,0,60,60,33,1,0.479480163,1,,,,,,,,,,,,,,,,,,,,,,,,,,,,,,,,,,,,,,,,,,,,,,,,,,,,,,,,,,,,,,,,,,,,,,,,,,,,,,,,
,,614ca7f8fc7cba1b74101bfe,2022-09-08_14h02.38.097,CGTgamblingSpanTasks,2022.2.1,Win32,60.0240096,,,,,,,,3.353,,,,,,,,,,,,,,1,v,0.647,0,1,4.853,1.5,,,,,,27.37527992,0,2.860319095,,,,,,,,,,,,,0,61,61,39,1,0.486304156,1,,,,,,,,,,,,,,,,,,,,,,,,,,,,,,,,,,,,,,,,,,,,,,,,,,,,,,,,,,,,,,,,,,,,,,,,,,,,,,,,
,,614ca7f8fc7cba1b74101bfe,2022-09-08_14h02.38.097,CGTgamblingSpanTasks,2022.2.1,Win32,60.0240096,,,,,,,,2.916,,,,,,,,,,,,,,2,n,1.084,0,1,4.416,1.5,,,,,,18.11029021,0,11.41737518,,,,,,,,,,,,,0,62,62,48,1,0.069445859,0,,,,,,,,,,,,,,,,,,,,,,,,,,,,,,,,,,,,,,,,,,,,,,,,,,,,,,,,,,,,,,,,,,,,,,,,,,,,,,,,
,,614ca7f8fc7cba1b74101bfe,2022-09-08_14h02.38.097,CGTgamblingSpanTasks,2022.2.1,Win32,60.0240096,,,,,,,,3.163,,,,,,,,,,,,,,1,v,0.837,23.24777057,1,4.663,1.5,,,,,,23.24777057,0,2.003482335,,,,,,,,,,,,,0,63,63,59,1,0.536135174,1,,,,,,,,,,,,,,,,,,,,,,,,,,,,,,,,,,,,,,,,,,,,,,,,,,,,,,,,,,,,,,,,,,,,,,,,,,,,,,,,
,,614ca7f8fc7cba1b74101bfe,2022-09-08_14h02.38.097,CGTgamblingSpanTasks,2022.2.1,Win32,60.0240096,,,,,,,,3.202,,,,,,,,,,,,,,1,n,0.798,7.646213173,0,4.202,1,,,,,,2.042350179,0,7.646213173,,,,,,,,,,,,,0,64,64,53,1,0.009522273,0,,,,,,,,,,,,,,,,,,,,,,,,,,,,,,,,,,,,,,,,,,,,,,,,,,,,,,,,,,,,,,,,,,,,,,,,,,,,,,,,
,,614ca7f8fc7cba1b74101bfe,2022-09-08_14h02.38.097,CGTgamblingSpanTasks,2022.2.1,Win32,60.0240096,,,,,,,,3.11,,,,,,,,,,,,,,2,v,0.89,10.3417501,0,4.61,1.5,,,,,,15.21435748,0,10.3417501,,,,,,,,,,,,,0,65,65,72,1,0.060969226,0,,,,,,,,,,,,,,,,,,,,,,,,,,,,,,,,,,,,,,,,,,,,,,,,,,,,,,,,,,,,,,,,,,,,,,,,,,,,,,,,
,,614ca7f8fc7cba1b74101bfe,2022-09-08_14h02.38.097,CGTgamblingSpanTasks,2022.2.1,Win32,60.0240096,,,,,,,,3.003,,,,,,,,,,,,,,2,n,0.997,0,1,4.003,1,,,,,,22.87092517,0,0.059276504,,,,,,,,,,,,,0,66,66,27,1,0.911114935,0,,,,,,,,,,,,,,,,,,,,,,,,,,,,,,,,,,,,,,,,,,,,,,,,,,,,,,,,,,,,,,,,,,,,,,,,,,,,,,,,
,,614ca7f8fc7cba1b74101bfe,2022-09-08_14h02.38.097,CGTgamblingSpanTasks,2022.2.1,Win32,60.0240096,,,,,,,,2.982,,,,,,,,,,,,,,1,v,1.018,0,1,3.982,1,,,,,,8.217594828,0,0.951019374,,,,,,,,,,,,,0,67,67,87,1,0.458722936,1,,,,,,,,,,,,,,,,,,,,,,,,,,,,,,,,,,,,,,,,,,,,,,,,,,,,,,,,,,,,,,,,,,,,,,,,,,,,,,,,
,,614ca7f8fc7cba1b74101bfe,2022-09-08_14h02.38.097,CGTgamblingSpanTasks,2022.2.1,Win32,60.0240096,,,,,,,,3.102,,,,,,,,,,,,,,1,v,0.898,17.23907308,1,4.602,1.5,,,,,,17.23907308,0,2.055848574,,,,,,,,,,,,,0,68,68,66,1,0.450504458,1,,,,,,,,,,,,,,,,,,,,,,,,,,,,,,,,,,,,,,,,,,,,,,,,,,,,,,,,,,,,,,,,,,,,,,,,,,,,,,,,
,,614ca7f8fc7cba1b74101bfe,2022-09-08_14h02.38.097,CGTgamblingSpanTasks,2022.2.1,Win32,60.0240096,,,,,,,,3.279,,,,,,,,,,,,,,1,v,0.721,22.25959835,1,4.779,1.5,,,,,,22.25959835,0,0.065383587,,,,,,,,,,,,,0,69,69,97,1,0.907413875,0,,,,,,,,,,,,,,,,,,,,,,,,,,,,,,,,,,,,,,,,,,,,,,,,,,,,,,,,,,,,,,,,,,,,,,,,,,,,,,,,
,,614ca7f8fc7cba1b74101bfe,2022-09-08_14h02.38.097,CGTgamblingSpanTasks,2022.2.1,Win32,60.0240096,,,,,,,,3.281,,,,,,,,,,,,,,1,v,0.719,0,1,4.281,1,,,,,,25.56803059,0,2.543951743,,,,,,,,,,,,,0,70,70,41,1,0.499247217,1,,,,,,,,,,,,,,,,,,,,,,,,,,,,,,,,,,,,,,,,,,,,,,,,,,,,,,,,,,,,,,,,,,,,,,,,,,,,,,,,
,,614ca7f8fc7cba1b74101bfe,2022-09-08_14h02.38.097,CGTgamblingSpanTasks,2022.2.1,Win32,60.0240096,,,,,,,,3.052,,,,,,,,,,,,,,2,v,0.948,10.68505773,0,4.052,1,,,,,,17.64114152,0,10.68505773,,,,,,,,,,,,,0,71,71,98,1,0.074299362,0,,,,,,,,,,,,,,,,,,,,,,,,,,,,,,,,,,,,,,,,,,,,,,,,,,,,,,,,,,,,,,,,,,,,,,,,,,,,,,,,
,,614ca7f8fc7cba1b74101bfe,2022-09-08_14h02.38.097,CGTgamblingSpanTasks,2022.2.1,Win32,60.0240096,,,,,,,,3.145,,,,,,,,,,,,,,2,n,0.855,0,1,4.145,1,,,,,,13.4287264,0,1.317368801,,,,,,,,,,,,,0,72,72,100,1,0.502953125,1,,,,,,,,,,,,,,,,,,,,,,,,,,,,,,,,,,,,,,,,,,,,,,,,,,,,,,,,,,,,,,,,,,,,,,,,,,,,,,,,
,,614ca7f8fc7cba1b74101bfe,2022-09-08_14h02.38.097,CGTgamblingSpanTasks,2022.2.1,Win32,60.0240096,,,,,,,,2.952,,,,,,,,,,,,,,1,n,1.048,8.579385201,0,4.452,1.5,,,,,,14.11762686,0,8.579385201,,,,,,,,,,,,,0,73,73,60,1,0.073886959,0,,,,,,,,,,,,,,,,,,,,,,,,,,,,,,,,,,,,,,,,,,,,,,,,,,,,,,,,,,,,,,,,,,,,,,,,,,,,,,,,
,,614ca7f8fc7cba1b74101bfe,2022-09-08_14h02.38.097,CGTgamblingSpanTasks,2022.2.1,Win32,60.0240096,,,,,,,,3.201,,,,,,,,,,,,,,1,v,0.799,27.77179191,1,4.701,1.5,,,,,,27.77179191,0,0.074524436,,,,,,,,,,,,,0,74,74,99,1,0.910114387,0,,,,,,,,,,,,,,,,,,,,,,,,,,,,,,,,,,,,,,,,,,,,,,,,,,,,,,,,,,,,,,,,,,,,,,,,,,,,,,,,
,,614ca7f8fc7cba1b74101bfe,2022-09-08_14h02.38.097,CGTgamblingSpanTasks,2022.2.1,Win32,60.0240096,,,,,,,,3.282,,,,,,,,,,,,,,1,v,0.718,0,1,4.782,1.5,,,,,,21.39646914,0,0.072474078,,,,,,,,,,,,,0,75,75,3,1,0.902848133,0,,,,,,,,,,,,,,,,,,,,,,,,,,,,,,,,,,,,,,,,,,,,,,,,,,,,,,,,,,,,,,,,,,,,,,,,,,,,,,,,
,,614ca7f8fc7cba1b74101bfe,2022-09-08_14h02.38.097,CGTgamblingSpanTasks,2022.2.1,Win32,60.0240096,,,,,,,,3.267,,,,,,,,,,,,,,2,n,0.733,0,1,4.267,1,,,,,,27.53810185,0,0.097022401,,,,,,,,,,,,,0,76,76,50,1,0.901515865,0,,,,,,,,,,,,,,,,,,,,,,,,,,,,,,,,,,,,,,,,,,,,,,,,,,,,,,,,,,,,,,,,,,,,,,,,,,,,,,,,
,,614ca7f8fc7cba1b74101bfe,2022-09-08_14h02.38.097,CGTgamblingSpanTasks,2022.2.1,Win32,60.0240096,,,,,,,,2.633,,,,,,,,,,,,,,1,n,1.367,5.526483034,0,3.633,1,,,,,,9.725876653,0,5.526483034,,,,,,,,,,,,,0,77,77,44,1,0.082550696,0,,,,,,,,,,,,,,,,,,,,,,,,,,,,,,,,,,,,,,,,,,,,,,,,,,,,,,,,,,,,,,,,,,,,,,,,,,,,,,,,
,,614ca7f8fc7cba1b74101bfe,2022-09-08_14h02.38.097,CGTgamblingSpanTasks,2022.2.1,Win32,60.0240096,,,,,,,,2.91,,,,,,,,,,,,,,2,n,1.09,0,1,4.41,1.5,,,,,,28.13634754,0,2.532806323,,,,,,,,,,,,,0,78,78,28,1,0.525136524,1,,,,,,,,,,,,,,,,,,,,,,,,,,,,,,,,,,,,,,,,,,,,,,,,,,,,,,,,,,,,,,,,,,,,,,,,,,,,,,,,
,,614ca7f8fc7cba1b74101bfe,2022-09-08_14h02.38.097,CGTgamblingSpanTasks,2022.2.1,Win32,60.0240096,,,,,,,,3.267,,,,,,,,,,,,,,2,n,0.733,0,1,4.267,1,,,,,,18.50662664,0,0.052546026,,,,,,,,,,,,,0,79,79,112,1,0.908444837,0,,,,,,,,,,,,,,,,,,,,,,,,,,,,,,,,,,,,,,,,,,,,,,,,,,,,,,,,,,,,,,,,,,,,,,,,,,,,,,,,
,,614ca7f8fc7cba1b74101bfe,2022-09-08_14h02.38.097,CGTgamblingSpanTasks,2022.2.1,Win32,60.0240096,,,,,,,,3.216,,,,,,,,,,,,,,2,n,0.784,0,1,4.216,1,,,,,,19.68065872,0,1.843597162,,,,,,,,,,,,,0,80,80,80,1,0.514941058,1,,,,,,,,,,,,,,,,,,,,,,,,,,,,,,,,,,,,,,,,,,,,,,,,,,,,,,,,,,,,,,,,,,,,,,,,,,,,,,,,
,,614ca7f8fc7cba1b74101bfe,2022-09-08_14h02.38.097,CGTgamblingSpanTasks,2022.2.1,Win32,60.0240096,,,,,,,,3.308,,,,,,,,,,,,,,1,v,0.692,0,1,4.308,1,,,,,,26.11188619,0,0.081942421,,,,,,,,,,,,,0,81,81,105,1,0.905343856,0,,,,,,,,,,,,,,,,,,,,,,,,,,,,,,,,,,,,,,,,,,,,,,,,,,,,,,,,,,,,,,,,,,,,,,,,,,,,,,,,
,,614ca7f8fc7cba1b74101bfe,2022-09-08_14h02.38.097,CGTgamblingSpanTasks,2022.2.1,Win32,60.0240096,,,,,,,,3.203,,,,,,,,,,,,,,2,n,0.797,11.16819157,1,4.703,1.5,,,,,,11.16819157,0,0.941456753,,,,,,,,,,,,,0,82,82,45,1,0.54163803,1,,,,,,,,,,,,,,,,,,,,,,,,,,,,,,,,,,,,,,,,,,,,,,,,,,,,,,,,,,,,,,,,,,,,,,,,,,,,,,,,
,,614ca7f8fc7cba1b74101bfe,2022-09-08_14h02.38.097,CGTgamblingSpanTasks,2022.2.1,Win32,60.0240096,,,,,,,,3.268,,,,,,,,,,,,,,1,n,0.732,7.50753835,0,4.268,1,,,,,,2.231316635,0,7.50753835,,,,,,,,,,,,,0,83,83,29,1,0.010273427,0,,,,,,,,,,,,,,,,,,,,,,,,,,,,,,,,,,,,,,,,,,,,,,,,,,,,,,,,,,,,,,,,,,,,,,,,,,,,,,,,
,,614ca7f8fc7cba1b74101bfe,2022-09-08_14h02.38.097,CGTgamblingSpanTasks,2022.2.1,Win32,60.0240096,,,,,,,,3.248,,,,,,,,,,,,,,1,v,0.752,0,1,4.748,1.5,,,,,,20.31034258,0,1.870404296,,,,,,,,,,,,,0,84,84,85,1,0.519325853,1,,,,,,,,,,,,,,,,,,,,,,,,,,,,,,,,,,,,,,,,,,,,,,,,,,,,,,,,,,,,,,,,,,,,,,,,,,,,,,,,
,,614ca7f8fc7cba1b74101bfe,2022-09-08_14h02.38.097,CGTgamblingSpanTasks,2022.2.1,Win32,60.0240096,,,,,,,,3.167,,,,,,,,,,,,,,1,v,0.833,0,1,4.167,1,,,,,,7.534278541,0,0.747140182,,,,,,,,,,,,,0,85,85,37,1,0.50012466,1,,,,,,,,,,,,,,,,,,,,,,,,,,,,,,,,,,,,,,,,,,,,,,,,,,,,,,,,,,,,,,,,,,,,,,,,,,,,,,,,
,,614ca7f8fc7cba1b74101bfe,2022-09-08_14h02.38.097,CGTgamblingSpanTasks,2022.2.1,Win32,60.0240096,,,,,,,,3.187,,,,,,,,,,,,,,2,n,0.813,27.39221343,1,4.187,1,,,,,,27.39221343,0,2.743407746,,,,,,,,,,,,,0,86,86,47,1,0.49752044,1,,,,,,,,,,,,,,,,,,,,,,,,,,,,,,,,,,,,,,,,,,,,,,,,,,,,,,,,,,,,,,,,,,,,,,,,,,,,,,,,
,,614ca7f8fc7cba1b74101bfe,2022-09-08_14h02.38.097,CGTgamblingSpanTasks,2022.2.1,Win32,60.0240096,,,,,,,,3.262,,,,,,,,,,,,,,1,v,0.738,27.57491653,1,4.262,1,,,,,,27.57491653,0,2.99133314,,,,,,,,,,,,,0,87,87,10,1,0.47625893,1,,,,,,,,,,,,,,,,,,,,,,,,,,,,,,,,,,,,,,,,,,,,,,,,,,,,,,,,,,,,,,,,,,,,,,,,,,,,,,,,
,,614ca7f8fc7cba1b74101bfe,2022-09-08_14h02.38.097,CGTgamblingSpanTasks,2022.2.1,Win32,60.0240096,,,,,,,,3.325,,,,,,,,,,,,,,2,n,0.675,0,1,4.825,1.5,,,,,,29.75778644,0,2.810531415,,,,,,,,,,,,,0,88,88,113,1,0.512824233,1,,,,,,,,,,,,,,,,,,,,,,,,,,,,,,,,,,,,,,,,,,,,,,,,,,,,,,,,,,,,,,,,,,,,,,,,,,,,,,,,
,,614ca7f8fc7cba1b74101bfe,2022-09-08_14h02.38.097,CGTgamblingSpanTasks,2022.2.1,Win32,60.0240096,,,,,,,,3.286,,,,,,,,,,,,,,1,v,0.714,0,1,4.286,1,,,,,,17.4320197,0,1.448620949,,,,,,,,,,,,,0,89,89,30,1,0.545178213,1,,,,,,,,,,,,,,,,,,,,,,,,,,,,,,,,,,,,,,,,,,,,,,,,,,,,,,,,,,,,,,,,,,,,,,,,,,,,,,,,
,,614ca7f8fc7cba1b74101bfe,2022-09-08_14h02.38.097,CGTgamblingSpanTasks,2022.2.1,Win32,60.0240096,,,,,,,,3.249,,,,,,,,,,,,,,2,n,0.751,22.0050376,1,4.749,1.5,,,,,,22.0050376,0,2.257683666,,,,,,,,,,,,,0,90,90,4,1,0.491147312,1,,,,,,,,,,,,,,,,,,,,,,,,,,,,,,,,,,,,,,,,,,,,,,,,,,,,,,,,,,,,,,,,,,,,,,,,,,,,,,,,
,,614ca7f8fc7cba1b74101bfe,2022-09-08_14h02.38.097,CGTgamblingSpanTasks,2022.2.1,Win32,60.0240096,,,,,,,,2.795,,,,,,,,,,,,,,2,v,1.205,6.781500919,0,3.795,1,,,,,,8.363821911,0,6.781500919,,,,,,,,,,,,,0,91,91,61,1,0.044227959,0,,,,,,,,,,,,,,,,,,,,,,,,,,,,,,,,,,,,,,,,,,,,,,,,,,,,,,,,,,,,,,,,,,,,,,,,,,,,,,,,
,,614ca7f8fc7cba1b74101bfe,2022-09-08_14h02.38.097,CGTgamblingSpanTasks,2022.2.1,Win32,60.0240096,,,,,,,,3.253,,,,,,,,,,,,,,2,n,0.747,0,1,4.753,1.5,,,,,,28.18900855,0,0.05384276,,,,,,,,,,,,,0,92,92,55,1,0.919081308,0,,,,,,,,,,,,,,,,,,,,,,,,,,,,,,,,,,,,,,,,,,,,,,,,,,,,,,,,,,,,,,,,,,,,,,,,,,,,,,,,
,,614ca7f8fc7cba1b74101bfe,2022-09-08_14h02.38.097,CGTgamblingSpanTasks,2022.2.1,Win32,60.0240096,,,,,,,,3.378,,,,,,,,,,,,,,2,n,0.622,27.2532142,1,4.878,1.5,,,,,,27.2532142,0,0.08089327,,,,,,,,,,,,,0,93,93,119,1,0.907091845,0,,,,,,,,,,,,,,,,,,,,,,,,,,,,,,,,,,,,,,,,,,,,,,,,,,,,,,,,,,,,,,,,,,,,,,,,,,,,,,,,
,,614ca7f8fc7cba1b74101bfe,2022-09-08_14h02.38.097,CGTgamblingSpanTasks,2022.2.1,Win32,60.0240096,,,,,,,,3.302,,,,,,,,,,,,,,2,n,0.698,0,1,4.802,1.5,,,,,,11.08143071,0,1.207538756,,,,,,,,,,,,,0,94,94,84,1,0.475047453,1,,,,,,,,,,,,,,,,,,,,,,,,,,,,,,,,,,,,,,,,,,,,,,,,,,,,,,,,,,,,,,,,,,,,,,,,,,,,,,,,
,,614ca7f8fc7cba1b74101bfe,2022-09-08_14h02.38.097,CGTgamblingSpanTasks,2022.2.1,Win32,60.0240096,,,,,,,,3.319,,,,,,,,,,,,,,1,v,0.681,23.4214135,1,4.819,1.5,,,,,,23.4214135,0,2.485985001,,,,,,,,,,,,,0,95,95,81,1,0.482105905,1,,,,,,,,,,,,,,,,,,,,,,,,,,,,,,,,,,,,,,,,,,,,,,,,,,,,,,,,,,,,,,,,,,,,,,,,,,,,,,,,
,,614ca7f8fc7cba1b74101bfe,2022-09-08_14h02.38.097,CGTgamblingSpanTasks,2022.2.1,Win32,60.0240096,,,,,,,,3.397,,,,,,,,,,,,,,2,n,0.603,0,1,4.897,1.5,,,,,,22.72923833,0,0.067170781,,,,,,,,,,,,,0,96,96,86,1,0.907226703,0,,,,,,,,,,,,,,,,,,,,,,,,,,,,,,,,,,,,,,,,,,,,,,,,,,,,,,,,,,,,,,,,,,,,,,,,,,,,,,,,
,,614ca7f8fc7cba1b74101bfe,2022-09-08_14h02.38.097,CGTgamblingSpanTasks,2022.2.1,Win32,60.0240096,,,,,,,,3.026,,,,,,,,,,,,,,1,n,0.974,8.512335864,0,4.526,1.5,,,,,,10.05300841,0,8.512335864,,,,,,,,,,,,,0,97,97,74,1,0.040729225,0,,,,,,,,,,,,,,,,,,,,,,,,,,,,,,,,,,,,,,,,,,,,,,,,,,,,,,,,,,,,,,,,,,,,,,,,,,,,,,,,
,,614ca7f8fc7cba1b74101bfe,2022-09-08_14h02.38.097,CGTgamblingSpanTasks,2022.2.1,Win32,60.0240096,,,,,,,,3.311,,,,,,,,,,,,,,2,n,0.689,23.0613391,1,4.811,1.5,,,,,,23.0613391,0,2.387726776,,,,,,,,,,,,,0,98,98,69,1,0.488727763,1,,,,,,,,,,,,,,,,,,,,,,,,,,,,,,,,,,,,,,,,,,,,,,,,,,,,,,,,,,,,,,,,,,,,,,,,,,,,,,,,
,,614ca7f8fc7cba1b74101bfe,2022-09-08_14h02.38.097,CGTgamblingSpanTasks,2022.2.1,Win32,60.0240096,,,,,,,,3.301,,,,,,,,,,,,,,2,n,0.699,0,1,4.301,1,,,,,,26.36733703,0,2.201057101,,,,,,,,,,,,,0,99,99,90,1,0.544064207,1,,,,,,,,,,,,,,,,,,,,,,,,,,,,,,,,,,,,,,,,,,,,,,,,,,,,,,,,,,,,,,,,,,,,,,,,,,,,,,,,
,,614ca7f8fc7cba1b74101bfe,2022-09-08_14h02.38.097,CGTgamblingSpanTasks,2022.2.1,Win32,60.0240096,,,,,,,,3.059,,,,,,,,,,,,,,1,n,0.941,6.833409611,0,4.059,1,,,,,,6.325091157,0,6.833409611,,,,,,,,,,,,,0,100,100,58,1,0.027113638,0,,,,,,,,,,,,,,,,,,,,,,,,,,,,,,,,,,,,,,,,,,,,,,,,,,,,,,,,,,,,,,,,,,,,,,,,,,,,,,,,
,,614ca7f8fc7cba1b74101bfe,2022-09-08_14h02.38.097,CGTgamblingSpanTasks,2022.2.1,Win32,60.0240096,,,,,,,,3.033,,,,,,,,,,,,,,1,v,0.967,13.96521039,1,4.533,1.5,,,,,,13.96521039,0,1.591282699,,,,,,,,,,,,,0,101,101,49,1,0.462956344,1,,,,,,,,,,,,,,,,,,,,,,,,,,,,,,,,,,,,,,,,,,,,,,,,,,,,,,,,,,,,,,,,,,,,,,,,,,,,,,,,
,,614ca7f8fc7cba1b74101bfe,2022-09-08_14h02.38.097,CGTgamblingSpanTasks,2022.2.1,Win32,60.0240096,,,,,,,,3.053,,,,,,,,,,,,,,1,v,0.947,7.066129113,1,4.053,1,,,,,,7.066129113,0,0.585581699,,,,,,,,,,,,,0,102,102,19,1,0.545860632,1,,,,,,,,,,,,,,,,,,,,,,,,,,,,,,,,,,,,,,,,,,,,,,,,,,,,,,,,,,,,,,,,,,,,,,,,,,,,,,,,
,,614ca7f8fc7cba1b74101bfe,2022-09-08_14h02.38.097,CGTgamblingSpanTasks,2022.2.1,Win32,60.0240096,,,,,,,,2.901,,,,,,,,,,,,,,1,n,1.099,3.877530383,0,4.401,1.5,,,,,,3.471484939,0,3.877530383,,,,,,,,,,,,,0,103,103,40,1,0.02623078,0,,,,,,,,,,,,,,,,,,,,,,,,,,,,,,,,,,,,,,,,,,,,,,,,,,,,,,,,,,,,,,,,,,,,,,,,,,,,,,,,
,,614ca7f8fc7cba1b74101bfe,2022-09-08_14h02.38.097,CGTgamblingSpanTasks,2022.2.1,Win32,60.0240096,,,,,,,,3.137,,,,,,,,,,,,,,2,v,0.863,4.251676631,0,4.137,1,,,,,,3.395192929,0,4.251676631,,,,,,,,,,,,,0,104,104,7,1,0.023467153,0,,,,,,,,,,,,,,,,,,,,,,,,,,,,,,,,,,,,,,,,,,,,,,,,,,,,,,,,,,,,,,,,,,,,,,,,,,,,,,,,
,,614ca7f8fc7cba1b74101bfe,2022-09-08_14h02.38.097,CGTgamblingSpanTasks,2022.2.1,Win32,60.0240096,,,,,,,,3.177,,,,,,,,,,,,,,1,v,0.823,0,1,4.677,1.5,,,,,,21.03408097,0,2.208275162,,,,,,,,,,,,,0,105,105,0,1,0.485031246,1,,,,,,,,,,,,,,,,,,,,,,,,,,,,,,,,,,,,,,,,,,,,,,,,,,,,,,,,,,,,,,,,,,,,,,,,,,,,,,,,
,,614ca7f8fc7cba1b74101bfe,2022-09-08_14h02.38.097,CGTgamblingSpanTasks,2022.2.1,Win32,60.0240096,,,,,,,,3.225,,,,,,,,,,,,,,2,n,0.775,0,1,4.725,1.5,,,,,,24.479109,0,0.089582697,,,,,,,,,,,,,0,106,106,89,1,0.900200232,0,,,,,,,,,,,,,,,,,,,,,,,,,,,,,,,,,,,,,,,,,,,,,,,,,,,,,,,,,,,,,,,,,,,,,,,,,,,,,,,,
,,614ca7f8fc7cba1b74101bfe,2022-09-08_14h02.38.097,CGTgamblingSpanTasks,2022.2.1,Win32,60.0240096,,,,,,,,2.825,,,,,,,,,,,,,,2,v,1.175,9.936178001,0,4.325,1.5,,,,,,19.58698544,0,9.936178001,,,,,,,,,,,,,0,107,107,77,1,0.098812204,0,,,,,,,,,,,,,,,,,,,,,,,,,,,,,,,,,,,,,,,,,,,,,,,,,,,,,,,,,,,,,,,,,,,,,,,,,,,,,,,,
,,614ca7f8fc7cba1b74101bfe,2022-09-08_14h02.38.097,CGTgamblingSpanTasks,2022.2.1,Win32,60.0240096,,,,,,,,3.296,,,,,,,,,,,,,,1,v,0.704,0,1,4.296,1,,,,,,27.38828234,0,0.0639233,,,,,,,,,,,,,0,108,108,43,1,0.914010176,0,,,,,,,,,,,,,,,,,,,,,,,,,,,,,,,,,,,,,,,,,,,,,,,,,,,,,,,,,,,,,,,,,,,,,,,,,,,,,,,,
,,614ca7f8fc7cba1b74101bfe,2022-09-08_14h02.38.097,CGTgamblingSpanTasks,2022.2.1,Win32,60.0240096,,,,,,,,3.358,,,,,,,,,,,,,,1,v,0.642,28.68598705,1,4.358,1,,,,,,28.68598705,0,0.050674956,,,,,,,,,,,,,0,109,109,62,1,0.920905497,0,,,,,,,,,,,,,,,,,,,,,,,,,,,,,,,,,,,,,,,,,,,,,,,,,,,,,,,,,,,,,,,,,,,,,,,,,,,,,,,,
,,614ca7f8fc7cba1b74101bfe,2022-09-08_14h02.38.097,CGTgamblingSpanTasks,2022.2.1,Win32,60.0240096,,,,,,,,3.353,,,,,,,,,,,,,,2,n,0.647,0,1,4.853,1.5,,,,,,27.60724521,0,0.088432325,,,,,,,,,,,,,0,110,110,17,1,0.904684186,0,,,,,,,,,,,,,,,,,,,,,,,,,,,,,,,,,,,,,,,,,,,,,,,,,,,,,,,,,,,,,,,,,,,,,,,,,,,,,,,,
,,614ca7f8fc7cba1b74101bfe,2022-09-08_14h02.38.097,CGTgamblingSpanTasks,2022.2.1,Win32,60.0240096,,,,,,,,3.34,,,,,,,,,,,,,,1,v,0.66,9.012590634,1,4.84,1.5,,,,,,9.012590634,0,1.002188111,,,,,,,,,,,,,0,111,111,12,1,0.46958041,1,,,,,,,,,,,,,,,,,,,,,,,,,,,,,,,,,,,,,,,,,,,,,,,,,,,,,,,,,,,,,,,,,,,,,,,,,,,,,,,,
,,614ca7f8fc7cba1b74101bfe,2022-09-08_14h02.38.097,CGTgamblingSpanTasks,2022.2.1,Win32,60.0240096,,,,,,,,3.325,,,,,,,,,,,,,,2,n,0.675,25.21882231,1,4.325,1,,,,,,25.21882231,0,0.085746782,,,,,,,,,,,,,0,112,112,64,1,0.90272076,0,,,,,,,,,,,,,,,,,,,,,,,,,,,,,,,,,,,,,,,,,,,,,,,,,,,,,,,,,,,,,,,,,,,,,,,,,,,,,,,,
,,614ca7f8fc7cba1b74101bfe,2022-09-08_14h02.38.097,CGTgamblingSpanTasks,2022.2.1,Win32,60.0240096,,,,,,,,3.313,,,,,,,,,,,,,,2,n,0.687,0,1,4.313,1,,,,,,24.8002852,0,0.071848086,,,,,,,,,,,,,0,113,113,16,1,0.90783559,0,,,,,,,,,,,,,,,,,,,,,,,,,,,,,,,,,,,,,,,,,,,,,,,,,,,,,,,,,,,,,,,,,,,,,,,,,,,,,,,,
,,614ca7f8fc7cba1b74101bfe,2022-09-08_14h02.38.097,CGTgamblingSpanTasks,2022.2.1,Win32,60.0240096,,,,,,,,2.766,,,,,,,,,,,,,,1,n,1.234,6.091504705,0,3.766,1,,,,,,6.662965216,0,6.091504705,,,,,,,,,,,,,0,114,114,102,1,0.035087099,0,,,,,,,,,,,,,,,,,,,,,,,,,,,,,,,,,,,,,,,,,,,,,,,,,,,,,,,,,,,,,,,,,,,,,,,,,,,,,,,,
,,614ca7f8fc7cba1b74101bfe,2022-09-08_14h02.38.097,CGTgamblingSpanTasks,2022.2.1,Win32,60.0240096,,,,,,,,3.017,,,,,,,,,,,,,,1,v,0.983,0,1,4.517,1.5,,,,,,29.30724159,0,3.247012935,,,,,,,,,,,,,0,115,115,71,1,0.470571125,1,,,,,,,,,,,,,,,,,,,,,,,,,,,,,,,,,,,,,,,,,,,,,,,,,,,,,,,,,,,,,,,,,,,,,,,,,,,,,,,,
,,614ca7f8fc7cba1b74101bfe,2022-09-08_14h02.38.097,CGTgamblingSpanTasks,2022.2.1,Win32,60.0240096,,,,,,,,3.147,,,,,,,,,,,,,,1,v,0.853,0,1,4.647,1.5,,,,,,17.5608285,0,1.825111303,,,,,,,,,,,,,0,116,116,104,1,0.487721116,1,,,,,,,,,,,,,,,,,,,,,,,,,,,,,,,,,,,,,,,,,,,,,,,,,,,,,,,,,,,,,,,,,,,,,,,,,,,,,,,,
,,614ca7f8fc7cba1b74101bfe,2022-09-08_14h02.38.097,CGTgamblingSpanTasks,2022.2.1,Win32,60.0240096,,,,,,,,3.082,,,,,,,,,,,,,,2,v,0.918,11.61882862,0,4.582,1.5,,,,,,4.022743614,0,11.61882862,,,,,,,,,,,,,0,117,117,38,1,0.011499376,0,,,,,,,,,,,,,,,,,,,,,,,,,,,,,,,,,,,,,,,,,,,,,,,,,,,,,,,,,,,,,,,,,,,,,,,,,,,,,,,,
,,614ca7f8fc7cba1b74101bfe,2022-09-08_14h02.38.097,CGTgamblingSpanTasks,2022.2.1,Win32,60.0240096,,,,,,,,3.095,,,,,,,,,,,,,,2,v,0.905,4.462262453,0,4.095,1,,,,,,0.192759042,0,4.462262453,,,,,,,,,,,,,0,118,118,52,1,0.003553223,0,,,,,,,,,,,,,,,,,,,,,,,,,,,,,,,,,,,,,,,,,,,,,,,,,,,,,,,,,,,,,,,,,,,,,,,,,,,,,,,,
,,614ca7f8fc7cba1b74101bfe,2022-09-08_14h02.38.097,CGTgamblingSpanTasks,2022.2.1,Win32,60.0240096,,,,,,,,3.164,,,,,,,,,,,,,,2,n,0.836,0,1,4.664,1.5,,,,,,21.2188881,0,2.067660742,,,,,,,,,,,,,0,119,119,107,1,0.50470775,1,,,,,,,,,,,,,,,,,,,,,,,,,,,,,,,,,,,,,,,,,,,,,,,,,,,,,,,,,,,,,,,,,,,,,,,,,,,,,,,,
,,614ca7f8fc7cba1b74101bfe,2022-09-08_14h02.38.097,CGTgamblingSpanTasks,2022.2.1,Win32,60.0240096,,,,,,,,,,,,,,,,,,,,,,,,,,,,,,,,,,,,,,,,,,,,,,,,,,,,,,,,return,4.732,,,,,,,,,,,,,,,,,,,,,,,,,,,,,,,,,,,,,,,,,,,,,,,,,,,,,,,,,,,,,,,,,,,,,,,,,,,,,,
,,614ca7f8fc7cba1b74101bfe,2022-09-08_14h02.38.097,CGTgamblingSpanTasks,2022.2.1,Win32,60.0240096,,,,,,,,,,,,,,,,,,,,,,,,,,,,,,,,,,,,,,,,,,,,,,,,,,,,,,,,,,return,6.205,,,,,,,,,,,,,,,,,,,,,,,,,,,,,,,,,,,,,,,,,,,,,,,,,,,,,,,,,,,,,,,,,,,,,,,,,,,,
,,614ca7f8fc7cba1b74101bfe,2022-09-08_14h02.38.097,CGTgamblingSpanTasks,2022.2.1,Win32,60.0240096,,,,,,,,,,,,,,,,,,,,,,,,,,,,,,,,,,,,,,,,,,,,,,,,,,,,,,,,,,,,return,5.206,,,,,,,,,,,,,,,,,,,,,,,,,,,,,,,,,,,,,,,,,,,,,,,,,,,,,,,,,,,,,,,,,,,,,,,,,,
,,614ca7f8fc7cba1b74101bfe,2022-09-08_14h02.38.097,CGTgamblingSpanTasks,2022.2.1,Win32,60.0240096,,,,,,,,,,,,,,,,,,,,,,,,,,,,,,,,,,,,,,,,,,,,,,,,,,,,,,,,,,,,,,342,1,0.061111111,-0.418518519,1,0,0,cont_buttonPractice,0,0,0,0,1,3,342,24,2,42,,,,,,,,,,,,,,,,,,,,,,,,,,,,,,,,,,,,,,,,,,,,,,,,,,,,,,,,
,,614ca7f8fc7cba1b74101bfe,2022-09-08_14h02.38.097,CGTgamblingSpanTasks,2022.2.1,Win32,60.0240096,,,,,,,,,,,,,,,,,,,,,,,,,,,,,,,,,,,,,,,,,,,,,,,,,,,,,,,,,,,,,,937,1,0.061111111,-0.418518519,1,0,0,cont_buttonPractice,0,1,1,1,1,3,937,73,2,37,,,,,,,,,,,,,,,,,,,,,,,,,,,,,,,,,,,,,,,,,,,,,,,,,,,,,,,,
,,614ca7f8fc7cba1b74101bfe,2022-09-08_14h02.38.097,CGTgamblingSpanTasks,2022.2.1,Win32,60.0240096,,,,,,,,,,,,,,,,,,,,,,,,,,,,,,,,,,,,,,,,,,,,,,,,,,,,,,,,,,,,,,,,,,,,,,,,,,,,,,,,return,9.712,,,,,,,,,,,,,,,,,,,,,,,,,,,,,,,,,,,,,,,,,,,,,,,,,,,,,,
,,614ca7f8fc7cba1b74101bfe,2022-09-08_14h02.38.097,CGTgamblingSpanTasks,2022.2.1,Win32,60.0240096,,,,,,,,,,,,,,,,,,,,,,,,,,,,,,,,,,,,,,,,,,,,,,,,,,,,,,,,,,,,,,,,,,,,,,,,,,,,,,,,,,"[2,1,6]",0,0,0,0,1,,,,,,,,,,,,,,,,,,,,,,,,,,,,,,,,,,,,,,,,,,,,,,,,
,,614ca7f8fc7cba1b74101bfe,2022-09-08_14h02.38.097,CGTgamblingSpanTasks,2022.2.1,Win32,60.0240096,,,,,,,,,,,,,,,,,,,,,,,,,,,,,,,,,,,,,,,,,,,,,,,,,,,,,,,,,,,,,,,,,,,,,,,,,,,,,,,,,,"[2,1,6]",1,0,1,0,1,,,,,,,,,,,,,,,,,,,,,,,,,,,,,,,,,,,,,,,,,,,,,,,,
,,614ca7f8fc7cba1b74101bfe,2022-09-08_14h02.38.097,CGTgamblingSpanTasks,2022.2.1,Win32,60.0240096,,,,,,,,,,,,,,,,,,,,,,,,,,,,,,,,,,,,,,,,,,,,,,,,,,,,,,,,,,,,,,,,,,,,,,,,,,,,,,,,,,"[2,1,6]",2,0,2,0,1,,,,,,,,,,,,,,,,,,,,,,,,,,,,,,,,,,,,,,,,,,,,,,,,
,,614ca7f8fc7cba1b74101bfe,2022-09-08_14h02.38.097,CGTgamblingSpanTasks,2022.2.1,Win32,60.0240096,,,,,,,,,,,,,,,,,,,,,,,,,,,,,,,,,,,,,,,,,,,,,,,,,,,,,,,,,,,,,,,1,,,,,,,,,,,,,,,,,,,,,,,,,216,0.061111111,-0.418518519,1,0,0,cont_button,0,0,0,0,1,1,,,,,,,,,,,,,,,,,,,,,,,,,,,,,,,,,,,
,,614ca7f8fc7cba1b74101bfe,2022-09-08_14h02.38.097,CGTgamblingSpanTasks,2022.2.1,Win32,60.0240096,,,,,,,,,,,,,,,,,,,,,,,,,,,,,,,,,,,,,,,,,,,,,,,,,,,,,,,,,,,,,,,,,,,,,,,,,,,,,,,,,,"[5,4,6,1]",0,0,0,0,1,,,,,,,,,,,,,,,,,,,,,,,,,,,,,,,,,,,,,,,,,,,,,,,,
,,614ca7f8fc7cba1b74101bfe,2022-09-08_14h02.38.097,CGTgamblingSpanTasks,2022.2.1,Win32,60.0240096,,,,,,,,,,,,,,,,,,,,,,,,,,,,,,,,,,,,,,,,,,,,,,,,,,,,,,,,,,,,,,,,,,,,,,,,,,,,,,,,,,"[5,4,6,1]",1,0,1,0,1,,,,,,,,,,,,,,,,,,,,,,,,,,,,,,,,,,,,,,,,,,,,,,,,
,,614ca7f8fc7cba1b74101bfe,2022-09-08_14h02.38.097,CGTgamblingSpanTasks,2022.2.1,Win32,60.0240096,,,,,,,,,,,,,,,,,,,,,,,,,,,,,,,,,,,,,,,,,,,,,,,,,,,,,,,,,,,,,,,,,,,,,,,,,,,,,,,,,,"[5,4,6,1]",2,0,2,0,1,,,,,,,,,,,,,,,,,,,,,,,,,,,,,,,,,,,,,,,,,,,,,,,,
,,614ca7f8fc7cba1b74101bfe,2022-09-08_14h02.38.097,CGTgamblingSpanTasks,2022.2.1,Win32,60.0240096,,,,,,,,,,,,,,,,,,,,,,,,,,,,,,,,,,,,,,,,,,,,,,,,,,,,,,,,,,,,,,,,,,,,,,,,,,,,,,,,,,"[5,4,6,1]",3,0,3,0,1,,,,,,,,,,,,,,,,,,,,,,,,,,,,,,,,,,,,,,,,,,,,,,,,
,,614ca7f8fc7cba1b74101bfe,2022-09-08_14h02.38.097,CGTgamblingSpanTasks,2022.2.1,Win32,60.0240096,,,,,,,,,,,,,,,,,,,,,,,,,,,,,,,,,,,,,,,,,,,,,,,,,,,,,,,,,,,,,,,1,,,,,,,,,,,,,,,,,,,,,,,,,5461,0.061111111,-0.418518519,1,0,0,cont_button,0,1,1,1,1,2,,,,,,,,,,,,,,,,,,,,,,,,,,,,,,,,,,,
,,614ca7f8fc7cba1b74101bfe,2022-09-08_14h02.38.097,CGTgamblingSpanTasks,2022.2.1,Win32,60.0240096,,,,,,,,,,,,,,,,,,,,,,,,,,,,,,,,,,,,,,,,,,,,,,,,,,,,,,,,,,,,,,,,,,,,,,,,,,,,,,,,,,"[1,6,9,2,3]",0,0,0,0,1,,,,,,,,,,,,,,,,,,,,,,,,,,,,,,,,,,,,,,,,,,,,,,,,
,,614ca7f8fc7cba1b74101bfe,2022-09-08_14h02.38.097,CGTgamblingSpanTasks,2022.2.1,Win32,60.0240096,,,,,,,,,,,,,,,,,,,,,,,,,,,,,,,,,,,,,,,,,,,,,,,,,,,,,,,,,,,,,,,,,,,,,,,,,,,,,,,,,,"[1,6,9,2,3]",1,0,1,0,1,,,,,,,,,,,,,,,,,,,,,,,,,,,,,,,,,,,,,,,,,,,,,,,,
,,614ca7f8fc7cba1b74101bfe,2022-09-08_14h02.38.097,CGTgamblingSpanTasks,2022.2.1,Win32,60.0240096,,,,,,,,,,,,,,,,,,,,,,,,,,,,,,,,,,,,,,,,,,,,,,,,,,,,,,,,,,,,,,,,,,,,,,,,,,,,,,,,,,"[1,6,9,2,3]",2,0,2,0,1,,,,,,,,,,,,,,,,,,,,,,,,,,,,,,,,,,,,,,,,,,,,,,,,
,,614ca7f8fc7cba1b74101bfe,2022-09-08_14h02.38.097,CGTgamblingSpanTasks,2022.2.1,Win32,60.0240096,,,,,,,,,,,,,,,,,,,,,,,,,,,,,,,,,,,,,,,,,,,,,,,,,,,,,,,,,,,,,,,,,,,,,,,,,,,,,,,,,,"[1,6,9,2,3]",3,0,3,0,1,,,,,,,,,,,,,,,,,,,,,,,,,,,,,,,,,,,,,,,,,,,,,,,,
,,614ca7f8fc7cba1b74101bfe,2022-09-08_14h02.38.097,CGTgamblingSpanTasks,2022.2.1,Win32,60.0240096,,,,,,,,,,,,,,,,,,,,,,,,,,,,,,,,,,,,,,,,,,,,,,,,,,,,,,,,,,,,,,,,,,,,,,,,,,,,,,,,,,"[1,6,9,2,3]",4,0,4,0,1,,,,,,,,,,,,,,,,,,,,,,,,,,,,,,,,,,,,,,,,,,,,,,,,
,,614ca7f8fc7cba1b74101bfe,2022-09-08_14h02.38.097,CGTgamblingSpanTasks,2022.2.1,Win32,60.0240096,,,,,,,,,,,,,,,,,,,,,,,,,,,,,,,,,,,,,,,,,,,,,,,,,,,,,,,,,,,,,,,1,,,,,,,,,,,,,,,,,,,,,,,,,16923,0.061111111,-0.418518519,1,0,0,cont_button,0,2,2,2,1,3,,,,,,,,,,,,,,,,,,,,,,,,,,,,,,,,,,,
,,614ca7f8fc7cba1b74101bfe,2022-09-08_14h02.38.097,CGTgamblingSpanTasks,2022.2.1,Win32,60.0240096,,,,,,,,,,,,,,,,,,,,,,,,,,,,,,,,,,,,,,,,,,,,,,,,,,,,,,,,,,,,,,,,,,,,,,,,,,,,,,,,,,"[5,3,8,6,4,7]",0,0,0,0,1,,,,,,,,,,,,,,,,,,,,,,,,,,,,,,,,,,,,,,,,,,,,,,,,
,,614ca7f8fc7cba1b74101bfe,2022-09-08_14h02.38.097,CGTgamblingSpanTasks,2022.2.1,Win32,60.0240096,,,,,,,,,,,,,,,,,,,,,,,,,,,,,,,,,,,,,,,,,,,,,,,,,,,,,,,,,,,,,,,,,,,,,,,,,,,,,,,,,,"[5,3,8,6,4,7]",1,0,1,0,1,,,,,,,,,,,,,,,,,,,,,,,,,,,,,,,,,,,,,,,,,,,,,,,,
,,614ca7f8fc7cba1b74101bfe,2022-09-08_14h02.38.097,CGTgamblingSpanTasks,2022.2.1,Win32,60.0240096,,,,,,,,,,,,,,,,,,,,,,,,,,,,,,,,,,,,,,,,,,,,,,,,,,,,,,,,,,,,,,,,,,,,,,,,,,,,,,,,,,"[5,3,8,6,4,7]",2,0,2,0,1,,,,,,,,,,,,,,,,,,,,,,,,,,,,,,,,,,,,,,,,,,,,,,,,
,,614ca7f8fc7cba1b74101bfe,2022-09-08_14h02.38.097,CGTgamblingSpanTasks,2022.2.1,Win32,60.0240096,,,,,,,,,,,,,,,,,,,,,,,,,,,,,,,,,,,,,,,,,,,,,,,,,,,,,,,,,,,,,,,,,,,,,,,,,,,,,,,,,,"[5,3,8,6,4,7]",3,0,3,0,1,,,,,,,,,,,,,,,,,,,,,,,,,,,,,,,,,,,,,,,,,,,,,,,,
,,614ca7f8fc7cba1b74101bfe,2022-09-08_14h02.38.097,CGTgamblingSpanTasks,2022.2.1,Win32,60.0240096,,,,,,,,,,,,,,,,,,,,,,,,,,,,,,,,,,,,,,,,,,,,,,,,,,,,,,,,,,,,,,,,,,,,,,,,,,,,,,,,,,"[5,3,8,6,4,7]",4,0,4,0,1,,,,,,,,,,,,,,,,,,,,,,,,,,,,,,,,,,,,,,,,,,,,,,,,
,,614ca7f8fc7cba1b74101bfe,2022-09-08_14h02.38.097,CGTgamblingSpanTasks,2022.2.1,Win32,60.0240096,,,,,,,,,,,,,,,,,,,,,,,,,,,,,,,,,,,,,,,,,,,,,,,,,,,,,,,,,,,,,,,,,,,,,,,,,,,,,,,,,,"[5,3,8,6,4,7]",5,0,5,0,1,,,,,,,,,,,,,,,,,,,,,,,,,,,,,,,,,,,,,,,,,,,,,,,,
,,614ca7f8fc7cba1b74101bfe,2022-09-08_14h02.38.097,CGTgamblingSpanTasks,2022.2.1,Win32,60.0240096,,,,,,,,,,,,,,,,,,,,,,,,,,,,,,,,,,,,,,,,,,,,,,,,,,,,,,,,,,,,,,,1,,,,,,,,,,,,,,,,,,,,,,,,,538647,0.061111111,-0.418518519,1,0,0,cont_button,0,3,3,3,1,4,,,,,,,,,,,,,,,,,,,,,,,,,,,,,,,,,,,
,,614ca7f8fc7cba1b74101bfe,2022-09-08_14h02.38.097,CGTgamblingSpanTasks,2022.2.1,Win32,60.0240096,,,,,,,,,,,,,,,,,,,,,,,,,,,,,,,,,,,,,,,,,,,,,,,,,,,,,,,,,,,,,,,,,,,,,,,,,,,,,,,,,,"[5,6,3,4,8,1,9]",0,0,0,0,1,,,,,,,,,,,,,,,,,,,,,,,,,,,,,,,,,,,,,,,,,,,,,,,,
,,614ca7f8fc7cba1b74101bfe,2022-09-08_14h02.38.097,CGTgamblingSpanTasks,2022.2.1,Win32,60.0240096,,,,,,,,,,,,,,,,,,,,,,,,,,,,,,,,,,,,,,,,,,,,,,,,,,,,,,,,,,,,,,,,,,,,,,,,,,,,,,,,,,"[5,6,3,4,8,1,9]",1,0,1,0,1,,,,,,,,,,,,,,,,,,,,,,,,,,,,,,,,,,,,,,,,,,,,,,,,
,,614ca7f8fc7cba1b74101bfe,2022-09-08_14h02.38.097,CGTgamblingSpanTasks,2022.2.1,Win32,60.0240096,,,,,,,,,,,,,,,,,,,,,,,,,,,,,,,,,,,,,,,,,,,,,,,,,,,,,,,,,,,,,,,,,,,,,,,,,,,,,,,,,,"[5,6,3,4,8,1,9]",2,0,2,0,1,,,,,,,,,,,,,,,,,,,,,,,,,,,,,,,,,,,,,,,,,,,,,,,,
,,614ca7f8fc7cba1b74101bfe,2022-09-08_14h02.38.097,CGTgamblingSpanTasks,2022.2.1,Win32,60.0240096,,,,,,,,,,,,,,,,,,,,,,,,,,,,,,,,,,,,,,,,,,,,,,,,,,,,,,,,,,,,,,,,,,,,,,,,,,,,,,,,,,"[5,6,3,4,8,1,9]",3,0,3,0,1,,,,,,,,,,,,,,,,,,,,,,,,,,,,,,,,,,,,,,,,,,,,,,,,
,,614ca7f8fc7cba1b74101bfe,2022-09-08_14h02.38.097,CGTgamblingSpanTasks,2022.2.1,Win32,60.0240096,,,,,,,,,,,,,,,,,,,,,,,,,,,,,,,,,,,,,,,,,,,,,,,,,,,,,,,,,,,,,,,,,,,,,,,,,,,,,,,,,,"[5,6,3,4,8,1,9]",4,0,4,0,1,,,,,,,,,,,,,,,,,,,,,,,,,,,,,,,,,,,,,,,,,,,,,,,,
,,614ca7f8fc7cba1b74101bfe,2022-09-08_14h02.38.097,CGTgamblingSpanTasks,2022.2.1,Win32,60.0240096,,,,,,,,,,,,,,,,,,,,,,,,,,,,,,,,,,,,,,,,,,,,,,,,,,,,,,,,,,,,,,,,,,,,,,,,,,,,,,,,,,"[5,6,3,4,8,1,9]",5,0,5,0,1,,,,,,,,,,,,,,,,,,,,,,,,,,,,,,,,,,,,,,,,,,,,,,,,
,,614ca7f8fc7cba1b74101bfe,2022-09-08_14h02.38.097,CGTgamblingSpanTasks,2022.2.1,Win32,60.0240096,,,,,,,,,,,,,,,,,,,,,,,,,,,,,,,,,,,,,,,,,,,,,,,,,,,,,,,,,,,,,,,,,,,,,,,,,,,,,,,,,,"[5,6,3,4,8,1,9]",6,0,6,0,1,,,,,,,,,,,,,,,,,,,,,,,,,,,,,,,,,,,,,,,,,,,,,,,,
,,614ca7f8fc7cba1b74101bfe,2022-09-08_14h02.38.097,CGTgamblingSpanTasks,2022.2.1,Win32,60.0240096,,,,,,,,,,,,,,,,,,,,,,,,,,,,,,,,,,,,,,,,,,,,,,,,,,,,,,,,,,,,,,,1,,,,,,,,,,,,,,,,,,,,,,,,,5634819,0.061111111,-0.418518519,1,0,0,cont_button,0,4,4,4,1,5,,,,,,,,,,,,,,,,,,,,,,,,,,,,,,,,,,,
,,614ca7f8fc7cba1b74101bfe,2022-09-08_14h02.38.097,CGTgamblingSpanTasks,2022.2.1,Win32,60.0240096,,,,,,,,,,,,,,,,,,,,,,,,,,,,,,,,,,,,,,,,,,,,,,,,,,,,,,,,,,,,,,,,,,,,,,,,,,,,,,,,,,"[6,3,7,9,8,1,4,2]",0,0,0,0,1,,,,,,,,,,,,,,,,,,,,,,,,,,,,,,,,,,,,,,,,,,,,,,,,
,,614ca7f8fc7cba1b74101bfe,2022-09-08_14h02.38.097,CGTgamblingSpanTasks,2022.2.1,Win32,60.0240096,,,,,,,,,,,,,,,,,,,,,,,,,,,,,,,,,,,,,,,,,,,,,,,,,,,,,,,,,,,,,,,,,,,,,,,,,,,,,,,,,,"[6,3,7,9,8,1,4,2]",1,0,1,0,1,,,,,,,,,,,,,,,,,,,,,,,,,,,,,,,,,,,,,,,,,,,,,,,,
,,614ca7f8fc7cba1b74101bfe,2022-09-08_14h02.38.097,CGTgamblingSpanTasks,2022.2.1,Win32,60.0240096,,,,,,,,,,,,,,,,,,,,,,,,,,,,,,,,,,,,,,,,,,,,,,,,,,,,,,,,,,,,,,,,,,,,,,,,,,,,,,,,,,"[6,3,7,9,8,1,4,2]",2,0,2,0,1,,,,,,,,,,,,,,,,,,,,,,,,,,,,,,,,,,,,,,,,,,,,,,,,
,,614ca7f8fc7cba1b74101bfe,2022-09-08_14h02.38.097,CGTgamblingSpanTasks,2022.2.1,Win32,60.0240096,,,,,,,,,,,,,,,,,,,,,,,,,,,,,,,,,,,,,,,,,,,,,,,,,,,,,,,,,,,,,,,,,,,,,,,,,,,,,,,,,,"[6,3,7,9,8,1,4,2]",3,0,3,0,1,,,,,,,,,,,,,,,,,,,,,,,,,,,,,,,,,,,,,,,,,,,,,,,,
,,614ca7f8fc7cba1b74101bfe,2022-09-08_14h02.38.097,CGTgamblingSpanTasks,2022.2.1,Win32,60.0240096,,,,,,,,,,,,,,,,,,,,,,,,,,,,,,,,,,,,,,,,,,,,,,,,,,,,,,,,,,,,,,,,,,,,,,,,,,,,,,,,,,"[6,3,7,9,8,1,4,2]",4,0,4,0,1,,,,,,,,,,,,,,,,,,,,,,,,,,,,,,,,,,,,,,,,,,,,,,,,
,,614ca7f8fc7cba1b74101bfe,2022-09-08_14h02.38.097,CGTgamblingSpanTasks,2022.2.1,Win32,60.0240096,,,,,,,,,,,,,,,,,,,,,,,,,,,,,,,,,,,,,,,,,,,,,,,,,,,,,,,,,,,,,,,,,,,,,,,,,,,,,,,,,,"[6,3,7,9,8,1,4,2]",5,0,5,0,1,,,,,,,,,,,,,,,,,,,,,,,,,,,,,,,,,,,,,,,,,,,,,,,,
,,614ca7f8fc7cba1b74101bfe,2022-09-08_14h02.38.097,CGTgamblingSpanTasks,2022.2.1,Win32,60.0240096,,,,,,,,,,,,,,,,,,,,,,,,,,,,,,,,,,,,,,,,,,,,,,,,,,,,,,,,,,,,,,,,,,,,,,,,,,,,,,,,,,"[6,3,7,9,8,1,4,2]",6,0,6,0,1,,,,,,,,,,,,,,,,,,,,,,,,,,,,,,,,,,,,,,,,,,,,,,,,
,,614ca7f8fc7cba1b74101bfe,2022-09-08_14h02.38.097,CGTgamblingSpanTasks,2022.2.1,Win32,60.0240096,,,,,,,,,,,,,,,,,,,,,,,,,,,,,,,,,,,,,,,,,,,,,,,,,,,,,,,,,,,,,,,,,,,,,,,,,,,,,,,,,,"[6,3,7,9,8,1,4,2]",7,0,7,0,1,,,,,,,,,,,,,,,,,,,,,,,,,,,,,,,,,,,,,,,,,,,,,,,,
,,614ca7f8fc7cba1b74101bfe,2022-09-08_14h02.38.097,CGTgamblingSpanTasks,2022.2.1,Win32,60.0240096,,,,,,,,,,,,,,,,,,,,,,,,,,,,,,,,,,,,,,,,,,,,,,,,,,,,,,,,,,,,,,,0,,,,,,,,,,,,,,,,,,,,,,,,,63798412,0.061111111,-0.418518519,1,0,0,cont_button,0,5,5,5,1,6,,,,,,,,,,,,,,,,,,,,,,,,,,,,,,,,,,,
,,614ca7f8fc7cba1b74101bfe,2022-09-08_14h02.38.097,CGTgamblingSpanTasks,2022.2.1,Win32,60.0240096,,,,,,,,,,,,,,,,,,,,,,,,,,,,,,,,,,,,,,,,,,,,,,,,,,,,,,,,,,,,,,,,,,,,,,,,,,,,,,,,,,"[3,7,6,1,2,9,5,8]",0,0,0,0,1,,,,,,,,,,,,,,,,,,,,,,,,,,,,,,,,,,,,,,,,,,,,,,,,
,,614ca7f8fc7cba1b74101bfe,2022-09-08_14h02.38.097,CGTgamblingSpanTasks,2022.2.1,Win32,60.0240096,,,,,,,,,,,,,,,,,,,,,,,,,,,,,,,,,,,,,,,,,,,,,,,,,,,,,,,,,,,,,,,,,,,,,,,,,,,,,,,,,,"[3,7,6,1,2,9,5,8]",1,0,1,0,1,,,,,,,,,,,,,,,,,,,,,,,,,,,,,,,,,,,,,,,,,,,,,,,,
,,614ca7f8fc7cba1b74101bfe,2022-09-08_14h02.38.097,CGTgamblingSpanTasks,2022.2.1,Win32,60.0240096,,,,,,,,,,,,,,,,,,,,,,,,,,,,,,,,,,,,,,,,,,,,,,,,,,,,,,,,,,,,,,,,,,,,,,,,,,,,,,,,,,"[3,7,6,1,2,9,5,8]",2,0,2,0,1,,,,,,,,,,,,,,,,,,,,,,,,,,,,,,,,,,,,,,,,,,,,,,,,
,,614ca7f8fc7cba1b74101bfe,2022-09-08_14h02.38.097,CGTgamblingSpanTasks,2022.2.1,Win32,60.0240096,,,,,,,,,,,,,,,,,,,,,,,,,,,,,,,,,,,,,,,,,,,,,,,,,,,,,,,,,,,,,,,,,,,,,,,,,,,,,,,,,,"[3,7,6,1,2,9,5,8]",3,0,3,0,1,,,,,,,,,,,,,,,,,,,,,,,,,,,,,,,,,,,,,,,,,,,,,,,,
,,614ca7f8fc7cba1b74101bfe,2022-09-08_14h02.38.097,CGTgamblingSpanTasks,2022.2.1,Win32,60.0240096,,,,,,,,,,,,,,,,,,,,,,,,,,,,,,,,,,,,,,,,,,,,,,,,,,,,,,,,,,,,,,,,,,,,,,,,,,,,,,,,,,"[3,7,6,1,2,9,5,8]",4,0,4,0,1,,,,,,,,,,,,,,,,,,,,,,,,,,,,,,,,,,,,,,,,,,,,,,,,
,,614ca7f8fc7cba1b74101bfe,2022-09-08_14h02.38.097,CGTgamblingSpanTasks,2022.2.1,Win32,60.0240096,,,,,,,,,,,,,,,,,,,,,,,,,,,,,,,,,,,,,,,,,,,,,,,,,,,,,,,,,,,,,,,,,,,,,,,,,,,,,,,,,,"[3,7,6,1,2,9,5,8]",5,0,5,0,1,,,,,,,,,,,,,,,,,,,,,,,,,,,,,,,,,,,,,,,,,,,,,,,,
,,614ca7f8fc7cba1b74101bfe,2022-09-08_14h02.38.097,CGTgamblingSpanTasks,2022.2.1,Win32,60.0240096,,,,,,,,,,,,,,,,,,,,,,,,,,,,,,,,,,,,,,,,,,,,,,,,,,,,,,,,,,,,,,,,,,,,,,,,,,,,,,,,,,"[3,7,6,1,2,9,5,8]",6,0,6,0,1,,,,,,,,,,,,,,,,,,,,,,,,,,,,,,,,,,,,,,,,,,,,,,,,
,,614ca7f8fc7cba1b74101bfe,2022-09-08_14h02.38.097,CGTgamblingSpanTasks,2022.2.1,Win32,60.0240096,,,,,,,,,,,,,,,,,,,,,,,,,,,,,,,,,,,,,,,,,,,,,,,,,,,,,,,,,,,,,,,,,,,,,,,,,,,,,,,,,,"[3,7,6,1,2,9,5,8]",7,0,7,0,1,,,,,,,,,,,,,,,,,,,,,,,,,,,,,,,,,,,,,,,,,,,,,,,,
,,614ca7f8fc7cba1b74101bfe,2022-09-08_14h02.38.097,CGTgamblingSpanTasks,2022.2.1,Win32,60.0240096,,,,,,,,,,,,,,,,,,,,,,,,,,,,,,,,,,,,,,,,,,,,,,,,,,,,,,,,,,,,,,,1,,,,,,,,,,,,,,,,,,,,,,,,,37612958,0.061111111,-0.418518519,1,0,0,cont_button,0,6,6,6,1,7,,,,,,,,,,,,,,,,,,,,,,,,,,,,,,,,,,,
,,614ca7f8fc7cba1b74101bfe,2022-09-08_14h02.38.097,CGTgamblingSpanTasks,2022.2.1,Win32,60.0240096,,,,,,,,,,,,,,,,,,,,,,,,,,,,,,,,,,,,,,,,,,,,,,,,,,,,,,,,,,,,,,,,,,,,,,,,,,,,,,,,,,"[3,4,1,6,2,8,5,7,9]",0,0,0,0,1,,,,,,,,,,,,,,,,,,,,,,,,,,,,,,,,,,,,,,,,,,,,,,,,
,,614ca7f8fc7cba1b74101bfe,2022-09-08_14h02.38.097,CGTgamblingSpanTasks,2022.2.1,Win32,60.0240096,,,,,,,,,,,,,,,,,,,,,,,,,,,,,,,,,,,,,,,,,,,,,,,,,,,,,,,,,,,,,,,,,,,,,,,,,,,,,,,,,,"[3,4,1,6,2,8,5,7,9]",1,0,1,0,1,,,,,,,,,,,,,,,,,,,,,,,,,,,,,,,,,,,,,,,,,,,,,,,,
,,614ca7f8fc7cba1b74101bfe,2022-09-08_14h02.38.097,CGTgamblingSpanTasks,2022.2.1,Win32,60.0240096,,,,,,,,,,,,,,,,,,,,,,,,,,,,,,,,,,,,,,,,,,,,,,,,,,,,,,,,,,,,,,,,,,,,,,,,,,,,,,,,,,"[3,4,1,6,2,8,5,7,9]",2,0,2,0,1,,,,,,,,,,,,,,,,,,,,,,,,,,,,,,,,,,,,,,,,,,,,,,,,
,,614ca7f8fc7cba1b74101bfe,2022-09-08_14h02.38.097,CGTgamblingSpanTasks,2022.2.1,Win32,60.0240096,,,,,,,,,,,,,,,,,,,,,,,,,,,,,,,,,,,,,,,,,,,,,,,,,,,,,,,,,,,,,,,,,,,,,,,,,,,,,,,,,,"[3,4,1,6,2,8,5,7,9]",3,0,3,0,1,,,,,,,,,,,,,,,,,,,,,,,,,,,,,,,,,,,,,,,,,,,,,,,,
,,614ca7f8fc7cba1b74101bfe,2022-09-08_14h02.38.097,CGTgamblingSpanTasks,2022.2.1,Win32,60.0240096,,,,,,,,,,,,,,,,,,,,,,,,,,,,,,,,,,,,,,,,,,,,,,,,,,,,,,,,,,,,,,,,,,,,,,,,,,,,,,,,,,"[3,4,1,6,2,8,5,7,9]",4,0,4,0,1,,,,,,,,,,,,,,,,,,,,,,,,,,,,,,,,,,,,,,,,,,,,,,,,
,,614ca7f8fc7cba1b74101bfe,2022-09-08_14h02.38.097,CGTgamblingSpanTasks,2022.2.1,Win32,60.0240096,,,,,,,,,,,,,,,,,,,,,,,,,,,,,,,,,,,,,,,,,,,,,,,,,,,,,,,,,,,,,,,,,,,,,,,,,,,,,,,,,,"[3,4,1,6,2,8,5,7,9]",5,0,5,0,1,,,,,,,,,,,,,,,,,,,,,,,,,,,,,,,,,,,,,,,,,,,,,,,,
,,614ca7f8fc7cba1b74101bfe,2022-09-08_14h02.38.097,CGTgamblingSpanTasks,2022.2.1,Win32,60.0240096,,,,,,,,,,,,,,,,,,,,,,,,,,,,,,,,,,,,,,,,,,,,,,,,,,,,,,,,,,,,,,,,,,,,,,,,,,,,,,,,,,"[3,4,1,6,2,8,5,7,9]",6,0,6,0,1,,,,,,,,,,,,,,,,,,,,,,,,,,,,,,,,,,,,,,,,,,,,,,,,
,,614ca7f8fc7cba1b74101bfe,2022-09-08_14h02.38.097,CGTgamblingSpanTasks,2022.2.1,Win32,60.0240096,,,,,,,,,,,,,,,,,,,,,,,,,,,,,,,,,,,,,,,,,,,,,,,,,,,,,,,,,,,,,,,,,,,,,,,,,,,,,,,,,,"[3,4,1,6,2,8,5,7,9]",7,0,7,0,1,,,,,,,,,,,,,,,,,,,,,,,,,,,,,,,,,,,,,,,,,,,,,,,,
,,614ca7f8fc7cba1b74101bfe,2022-09-08_14h02.38.097,CGTgamblingSpanTasks,2022.2.1,Win32,60.0240096,,,,,,,,,,,,,,,,,,,,,,,,,,,,,,,,,,,,,,,,,,,,,,,,,,,,,,,,,,,,,,,,,,,,,,,,,,,,,,,,,,"[3,4,1,6,2,8,5,7,9]",8,0,8,0,1,,,,,,,,,,,,,,,,,,,,,,,,,,,,,,,,,,,,,,,,,,,,,,,,
,,614ca7f8fc7cba1b74101bfe,2022-09-08_14h02.38.097,CGTgamblingSpanTasks,2022.2.1,Win32,60.0240096,,,,,,,,,,,,,,,,,,,,,,,,,,,,,,,,,,,,,,,,,,,,,,,,,,,,,,,,,,,,,,,0,,,,,,,,,,,,,,,,,,,,,,,,,34162579,0.061111111,-0.418518519,1,0,0,cont_button,0,7,7,7,1,8,,,,,,,,,,,,,,,,,,,,,,,,,,,,,,,,,,,
,,614ca7f8fc7cba1b74101bfe,2022-09-08_14h02.38.097,CGTgamblingSpanTasks,2022.2.1,Win32,60.0240096,,,,,,,,,,,,,,,,,,,,,,,,,,,,,,,,,,,,,,,,,,,,,,,,,,,,,,,,,,,,,,,,,,,,,,,,,,,,,,,,,,"[7,6,8,9,5,2,3,1,4]",0,0,0,0,1,,,,,,,,,,,,,,,,,,,,,,,,,,,,,,,,,,,,,,,,,,,,,,,,
,,614ca7f8fc7cba1b74101bfe,2022-09-08_14h02.38.097,CGTgamblingSpanTasks,2022.2.1,Win32,60.0240096,,,,,,,,,,,,,,,,,,,,,,,,,,,,,,,,,,,,,,,,,,,,,,,,,,,,,,,,,,,,,,,,,,,,,,,,,,,,,,,,,,"[7,6,8,9,5,2,3,1,4]",1,0,1,0,1,,,,,,,,,,,,,,,,,,,,,,,,,,,,,,,,,,,,,,,,,,,,,,,,
,,614ca7f8fc7cba1b74101bfe,2022-09-08_14h02.38.097,CGTgamblingSpanTasks,2022.2.1,Win32,60.0240096,,,,,,,,,,,,,,,,,,,,,,,,,,,,,,,,,,,,,,,,,,,,,,,,,,,,,,,,,,,,,,,,,,,,,,,,,,,,,,,,,,"[7,6,8,9,5,2,3,1,4]",2,0,2,0,1,,,,,,,,,,,,,,,,,,,,,,,,,,,,,,,,,,,,,,,,,,,,,,,,
,,614ca7f8fc7cba1b74101bfe,2022-09-08_14h02.38.097,CGTgamblingSpanTasks,2022.2.1,Win32,60.0240096,,,,,,,,,,,,,,,,,,,,,,,,,,,,,,,,,,,,,,,,,,,,,,,,,,,,,,,,,,,,,,,,,,,,,,,,,,,,,,,,,,"[7,6,8,9,5,2,3,1,4]",3,0,3,0,1,,,,,,,,,,,,,,,,,,,,,,,,,,,,,,,,,,,,,,,,,,,,,,,,
,,614ca7f8fc7cba1b74101bfe,2022-09-08_14h02.38.097,CGTgamblingSpanTasks,2022.2.1,Win32,60.0240096,,,,,,,,,,,,,,,,,,,,,,,,,,,,,,,,,,,,,,,,,,,,,,,,,,,,,,,,,,,,,,,,,,,,,,,,,,,,,,,,,,"[7,6,8,9,5,2,3,1,4]",4,0,4,0,1,,,,,,,,,,,,,,,,,,,,,,,,,,,,,,,,,,,,,,,,,,,,,,,,
,,614ca7f8fc7cba1b74101bfe,2022-09-08_14h02.38.097,CGTgamblingSpanTasks,2022.2.1,Win32,60.0240096,,,,,,,,,,,,,,,,,,,,,,,,,,,,,,,,,,,,,,,,,,,,,,,,,,,,,,,,,,,,,,,,,,,,,,,,,,,,,,,,,,"[7,6,8,9,5,2,3,1,4]",5,0,5,0,1,,,,,,,,,,,,,,,,,,,,,,,,,,,,,,,,,,,,,,,,,,,,,,,,
,,614ca7f8fc7cba1b74101bfe,2022-09-08_14h02.38.097,CGTgamblingSpanTasks,2022.2.1,Win32,60.0240096,,,,,,,,,,,,,,,,,,,,,,,,,,,,,,,,,,,,,,,,,,,,,,,,,,,,,,,,,,,,,,,,,,,,,,,,,,,,,,,,,,"[7,6,8,9,5,2,3,1,4]",6,0,6,0,1,,,,,,,,,,,,,,,,,,,,,,,,,,,,,,,,,,,,,,,,,,,,,,,,
,,614ca7f8fc7cba1b74101bfe,2022-09-08_14h02.38.097,CGTgamblingSpanTasks,2022.2.1,Win32,60.0240096,,,,,,,,,,,,,,,,,,,,,,,,,,,,,,,,,,,,,,,,,,,,,,,,,,,,,,,,,,,,,,,,,,,,,,,,,,,,,,,,,,"[7,6,8,9,5,2,3,1,4]",7,0,7,0,1,,,,,,,,,,,,,,,,,,,,,,,,,,,,,,,,,,,,,,,,,,,,,,,,
,,614ca7f8fc7cba1b74101bfe,2022-09-08_14h02.38.097,CGTgamblingSpanTasks,2022.2.1,Win32,60.0240096,,,,,,,,,,,,,,,,,,,,,,,,,,,,,,,,,,,,,,,,,,,,,,,,,,,,,,,,,,,,,,,,,,,,,,,,,,,,,,,,,,"[7,6,8,9,5,2,3,1,4]",8,0,8,0,1,,,,,,,,,,,,,,,,,,,,,,,,,,,,,,,,,,,,,,,,,,,,,,,,
,,614ca7f8fc7cba1b74101bfe,2022-09-08_14h02.38.097,CGTgamblingSpanTasks,2022.2.1,Win32,60.0240096,,,,,,,,,,,,,,,,,,,,,,,,,,,,,,,,,,,,,,,,,,,,,,,,,,,,,,,,,,,,,,,1,,,,,,,,,,,,,,,,,,,,,,,,,768952314,0.041666667,-0.417592593,1,0,0,cont_button,0,8,8,8,1,9,,,,,,,,,,,,,,,,,,,,,,,,,,,,,,,,,,,
,,614ca7f8fc7cba1b74101bfe,2022-09-08_14h02.38.097,CGTgamblingSpanTasks,2022.2.1,Win32,60.0240096,,,,,,,,,,,,,,,,,,,,,,,,,,,,,,,,,,,,,,,,,,,,,,,,,,,,,,,,,,,,,,,,,,,,,,,,,,,,,,,,,,"[2,6,3,5,1,8,7,4,9,9]",0,0,0,0,1,,,,,,,,,,,,,,,,,,,,,,,,,,,,,,,,,,,,,,,,,,,,,,,,
,,614ca7f8fc7cba1b74101bfe,2022-09-08_14h02.38.097,CGTgamblingSpanTasks,2022.2.1,Win32,60.0240096,,,,,,,,,,,,,,,,,,,,,,,,,,,,,,,,,,,,,,,,,,,,,,,,,,,,,,,,,,,,,,,,,,,,,,,,,,,,,,,,,,"[2,6,3,5,1,8,7,4,9,9]",1,0,1,0,1,,,,,,,,,,,,,,,,,,,,,,,,,,,,,,,,,,,,,,,,,,,,,,,,
,,614ca7f8fc7cba1b74101bfe,2022-09-08_14h02.38.097,CGTgamblingSpanTasks,2022.2.1,Win32,60.0240096,,,,,,,,,,,,,,,,,,,,,,,,,,,,,,,,,,,,,,,,,,,,,,,,,,,,,,,,,,,,,,,,,,,,,,,,,,,,,,,,,,"[2,6,3,5,1,8,7,4,9,9]",2,0,2,0,1,,,,,,,,,,,,,,,,,,,,,,,,,,,,,,,,,,,,,,,,,,,,,,,,
,,614ca7f8fc7cba1b74101bfe,2022-09-08_14h02.38.097,CGTgamblingSpanTasks,2022.2.1,Win32,60.0240096,,,,,,,,,,,,,,,,,,,,,,,,,,,,,,,,,,,,,,,,,,,,,,,,,,,,,,,,,,,,,,,,,,,,,,,,,,,,,,,,,,"[2,6,3,5,1,8,7,4,9,9]",3,0,3,0,1,,,,,,,,,,,,,,,,,,,,,,,,,,,,,,,,,,,,,,,,,,,,,,,,
,,614ca7f8fc7cba1b74101bfe,2022-09-08_14h02.38.097,CGTgamblingSpanTasks,2022.2.1,Win32,60.0240096,,,,,,,,,,,,,,,,,,,,,,,,,,,,,,,,,,,,,,,,,,,,,,,,,,,,,,,,,,,,,,,,,,,,,,,,,,,,,,,,,,"[2,6,3,5,1,8,7,4,9,9]",4,0,4,0,1,,,,,,,,,,,,,,,,,,,,,,,,,,,,,,,,,,,,,,,,,,,,,,,,
,,614ca7f8fc7cba1b74101bfe,2022-09-08_14h02.38.097,CGTgamblingSpanTasks,2022.2.1,Win32,60.0240096,,,,,,,,,,,,,,,,,,,,,,,,,,,,,,,,,,,,,,,,,,,,,,,,,,,,,,,,,,,,,,,,,,,,,,,,,,,,,,,,,,"[2,6,3,5,1,8,7,4,9,9]",5,0,5,0,1,,,,,,,,,,,,,,,,,,,,,,,,,,,,,,,,,,,,,,,,,,,,,,,,
,,614ca7f8fc7cba1b74101bfe,2022-09-08_14h02.38.097,CGTgamblingSpanTasks,2022.2.1,Win32,60.0240096,,,,,,,,,,,,,,,,,,,,,,,,,,,,,,,,,,,,,,,,,,,,,,,,,,,,,,,,,,,,,,,,,,,,,,,,,,,,,,,,,,"[2,6,3,5,1,8,7,4,9,9]",6,0,6,0,1,,,,,,,,,,,,,,,,,,,,,,,,,,,,,,,,,,,,,,,,,,,,,,,,
,,614ca7f8fc7cba1b74101bfe,2022-09-08_14h02.38.097,CGTgamblingSpanTasks,2022.2.1,Win32,60.0240096,,,,,,,,,,,,,,,,,,,,,,,,,,,,,,,,,,,,,,,,,,,,,,,,,,,,,,,,,,,,,,,,,,,,,,,,,,,,,,,,,,"[2,6,3,5,1,8,7,4,9,9]",7,0,7,0,1,,,,,,,,,,,,,,,,,,,,,,,,,,,,,,,,,,,,,,,,,,,,,,,,
,,614ca7f8fc7cba1b74101bfe,2022-09-08_14h02.38.097,CGTgamblingSpanTasks,2022.2.1,Win32,60.0240096,,,,,,,,,,,,,,,,,,,,,,,,,,,,,,,,,,,,,,,,,,,,,,,,,,,,,,,,,,,,,,,,,,,,,,,,,,,,,,,,,,"[2,6,3,5,1,8,7,4,9,9]",8,0,8,0,1,,,,,,,,,,,,,,,,,,,,,,,,,,,,,,,,,,,,,,,,,,,,,,,,
,,614ca7f8fc7cba1b74101bfe,2022-09-08_14h02.38.097,CGTgamblingSpanTasks,2022.2.1,Win32,60.0240096,,,,,,,,,,,,,,,,,,,,,,,,,,,,,,,,,,,,,,,,,,,,,,,,,,,,,,,,,,,,,,,,,,,,,,,,,,,,,,,,,,"[2,6,3,5,1,8,7,4,9,9]",9,0,9,0,1,,,,,,,,,,,,,,,,,,,,,,,,,,,,,,,,,,,,,,,,,,,,,,,,
,,614ca7f8fc7cba1b74101bfe,2022-09-08_14h02.38.097,CGTgamblingSpanTasks,2022.2.1,Win32,60.0240096,,,,,,,,,,,,,,,,,,,,,,,,,,,,,,,,,,,,,,,,,,,,,,,,,,,,,,,,,,,,,,,1,,,,,,,,,,,,,,,,,,,,,,,,,2635187499,0.025925926,-0.365740741,1,0,0,cont_button,0,9,9,9,1,10,,,,,,,,,,,,,,,,,,,,,,,,,,,,,,,,,,,
,,614ca7f8fc7cba1b74101bfe,2022-09-08_14h02.38.097,CGTgamblingSpanTasks,2022.2.1,Win32,60.0240096,,,,,,,,,,,,,,,,,,,,,,,,,,,,,,,,,,,,,,,,,,,,,,,,,,,,,,,,,,,,,,,,,,,,,,,,,,,,,,,,,,"[8,1,7,3,6,5,2,9,4,4,6]",0,0,0,0,1,,,,,,,,,,,,,,,,,,,,,,,,,,,,,,,,,,,,,,,,,,,,,,,,
,,614ca7f8fc7cba1b74101bfe,2022-09-08_14h02.38.097,CGTgamblingSpanTasks,2022.2.1,Win32,60.0240096,,,,,,,,,,,,,,,,,,,,,,,,,,,,,,,,,,,,,,,,,,,,,,,,,,,,,,,,,,,,,,,,,,,,,,,,,,,,,,,,,,"[8,1,7,3,6,5,2,9,4,4,6]",1,0,1,0,1,,,,,,,,,,,,,,,,,,,,,,,,,,,,,,,,,,,,,,,,,,,,,,,,
,,614ca7f8fc7cba1b74101bfe,2022-09-08_14h02.38.097,CGTgamblingSpanTasks,2022.2.1,Win32,60.0240096,,,,,,,,,,,,,,,,,,,,,,,,,,,,,,,,,,,,,,,,,,,,,,,,,,,,,,,,,,,,,,,,,,,,,,,,,,,,,,,,,,"[8,1,7,3,6,5,2,9,4,4,6]",2,0,2,0,1,,,,,,,,,,,,,,,,,,,,,,,,,,,,,,,,,,,,,,,,,,,,,,,,
,,614ca7f8fc7cba1b74101bfe,2022-09-08_14h02.38.097,CGTgamblingSpanTasks,2022.2.1,Win32,60.0240096,,,,,,,,,,,,,,,,,,,,,,,,,,,,,,,,,,,,,,,,,,,,,,,,,,,,,,,,,,,,,,,,,,,,,,,,,,,,,,,,,,"[8,1,7,3,6,5,2,9,4,4,6]",3,0,3,0,1,,,,,,,,,,,,,,,,,,,,,,,,,,,,,,,,,,,,,,,,,,,,,,,,
,,614ca7f8fc7cba1b74101bfe,2022-09-08_14h02.38.097,CGTgamblingSpanTasks,2022.2.1,Win32,60.0240096,,,,,,,,,,,,,,,,,,,,,,,,,,,,,,,,,,,,,,,,,,,,,,,,,,,,,,,,,,,,,,,,,,,,,,,,,,,,,,,,,,"[8,1,7,3,6,5,2,9,4,4,6]",4,0,4,0,1,,,,,,,,,,,,,,,,,,,,,,,,,,,,,,,,,,,,,,,,,,,,,,,,
,,614ca7f8fc7cba1b74101bfe,2022-09-08_14h02.38.097,CGTgamblingSpanTasks,2022.2.1,Win32,60.0240096,,,,,,,,,,,,,,,,,,,,,,,,,,,,,,,,,,,,,,,,,,,,,,,,,,,,,,,,,,,,,,,,,,,,,,,,,,,,,,,,,,"[8,1,7,3,6,5,2,9,4,4,6]",5,0,5,0,1,,,,,,,,,,,,,,,,,,,,,,,,,,,,,,,,,,,,,,,,,,,,,,,,
,,614ca7f8fc7cba1b74101bfe,2022-09-08_14h02.38.097,CGTgamblingSpanTasks,2022.2.1,Win32,60.0240096,,,,,,,,,,,,,,,,,,,,,,,,,,,,,,,,,,,,,,,,,,,,,,,,,,,,,,,,,,,,,,,,,,,,,,,,,,,,,,,,,,"[8,1,7,3,6,5,2,9,4,4,6]",6,0,6,0,1,,,,,,,,,,,,,,,,,,,,,,,,,,,,,,,,,,,,,,,,,,,,,,,,
,,614ca7f8fc7cba1b74101bfe,2022-09-08_14h02.38.097,CGTgamblingSpanTasks,2022.2.1,Win32,60.0240096,,,,,,,,,,,,,,,,,,,,,,,,,,,,,,,,,,,,,,,,,,,,,,,,,,,,,,,,,,,,,,,,,,,,,,,,,,,,,,,,,,"[8,1,7,3,6,5,2,9,4,4,6]",7,0,7,0,1,,,,,,,,,,,,,,,,,,,,,,,,,,,,,,,,,,,,,,,,,,,,,,,,
,,614ca7f8fc7cba1b74101bfe,2022-09-08_14h02.38.097,CGTgamblingSpanTasks,2022.2.1,Win32,60.0240096,,,,,,,,,,,,,,,,,,,,,,,,,,,,,,,,,,,,,,,,,,,,,,,,,,,,,,,,,,,,,,,,,,,,,,,,,,,,,,,,,,"[8,1,7,3,6,5,2,9,4,4,6]",8,0,8,0,1,,,,,,,,,,,,,,,,,,,,,,,,,,,,,,,,,,,,,,,,,,,,,,,,
,,614ca7f8fc7cba1b74101bfe,2022-09-08_14h02.38.097,CGTgamblingSpanTasks,2022.2.1,Win32,60.0240096,,,,,,,,,,,,,,,,,,,,,,,,,,,,,,,,,,,,,,,,,,,,,,,,,,,,,,,,,,,,,,,,,,,,,,,,,,,,,,,,,,"[8,1,7,3,6,5,2,9,4,4,6]",9,0,9,0,1,,,,,,,,,,,,,,,,,,,,,,,,,,,,,,,,,,,,,,,,,,,,,,,,
,,614ca7f8fc7cba1b74101bfe,2022-09-08_14h02.38.097,CGTgamblingSpanTasks,2022.2.1,Win32,60.0240096,,,,,,,,,,,,,,,,,,,,,,,,,,,,,,,,,,,,,,,,,,,,,,,,,,,,,,,,,,,,,,,,,,,,,,,,,,,,,,,,,,"[8,1,7,3,6,5,2,9,4,4,6]",10,0,10,0,1,,,,,,,,,,,,,,,,,,,,,,,,,,,,,,,,,,,,,,,,,,,,,,,,
,,614ca7f8fc7cba1b74101bfe,2022-09-08_14h02.38.097,CGTgamblingSpanTasks,2022.2.1,Win32,60.0240096,,,,,,,,,,,,,,,,,,,,,,,,,,,,,,,,,,,,,,,,,,,,,,,,,,,,,,,,,,,,,,,0,,,,,,,,,,,,,,,,,,,,,,,,,817365494,0.025925926,-0.365740741,1,0,0,cont_button,0,10,10,10,1,11,,,,,,,,,,,,,,,,,,,,,,,,,,,,,,,,,,,
,,614ca7f8fc7cba1b74101bfe,2022-09-08_14h02.38.097,CGTgamblingSpanTasks,2022.2.1,Win32,60.0240096,,,,,,,,,,,,,,,,,,,,,,,,,,,,,,,,,,,,,,,,,,,,,,,,,,,,,,,,,,,,,,,,,,,,,,,,,,,,,,,,,,"[1,5,8,6,3,2,4,7,9,9,4]",0,0,0,0,1,,,,,,,,,,,,,,,,,,,,,,,,,,,,,,,,,,,,,,,,,,,,,,,,
,,614ca7f8fc7cba1b74101bfe,2022-09-08_14h02.38.097,CGTgamblingSpanTasks,2022.2.1,Win32,60.0240096,,,,,,,,,,,,,,,,,,,,,,,,,,,,,,,,,,,,,,,,,,,,,,,,,,,,,,,,,,,,,,,,,,,,,,,,,,,,,,,,,,"[1,5,8,6,3,2,4,7,9,9,4]",1,0,1,0,1,,,,,,,,,,,,,,,,,,,,,,,,,,,,,,,,,,,,,,,,,,,,,,,,
,,614ca7f8fc7cba1b74101bfe,2022-09-08_14h02.38.097,CGTgamblingSpanTasks,2022.2.1,Win32,60.0240096,,,,,,,,,,,,,,,,,,,,,,,,,,,,,,,,,,,,,,,,,,,,,,,,,,,,,,,,,,,,,,,,,,,,,,,,,,,,,,,,,,"[1,5,8,6,3,2,4,7,9,9,4]",2,0,2,0,1,,,,,,,,,,,,,,,,,,,,,,,,,,,,,,,,,,,,,,,,,,,,,,,,
,,614ca7f8fc7cba1b74101bfe,2022-09-08_14h02.38.097,CGTgamblingSpanTasks,2022.2.1,Win32,60.0240096,,,,,,,,,,,,,,,,,,,,,,,,,,,,,,,,,,,,,,,,,,,,,,,,,,,,,,,,,,,,,,,,,,,,,,,,,,,,,,,,,,"[1,5,8,6,3,2,4,7,9,9,4]",3,0,3,0,1,,,,,,,,,,,,,,,,,,,,,,,,,,,,,,,,,,,,,,,,,,,,,,,,
,,614ca7f8fc7cba1b74101bfe,2022-09-08_14h02.38.097,CGTgamblingSpanTasks,2022.2.1,Win32,60.0240096,,,,,,,,,,,,,,,,,,,,,,,,,,,,,,,,,,,,,,,,,,,,,,,,,,,,,,,,,,,,,,,,,,,,,,,,,,,,,,,,,,"[1,5,8,6,3,2,4,7,9,9,4]",4,0,4,0,1,,,,,,,,,,,,,,,,,,,,,,,,,,,,,,,,,,,,,,,,,,,,,,,,
,,614ca7f8fc7cba1b74101bfe,2022-09-08_14h02.38.097,CGTgamblingSpanTasks,2022.2.1,Win32,60.0240096,,,,,,,,,,,,,,,,,,,,,,,,,,,,,,,,,,,,,,,,,,,,,,,,,,,,,,,,,,,,,,,,,,,,,,,,,,,,,,,,,,"[1,5,8,6,3,2,4,7,9,9,4]",5,0,5,0,1,,,,,,,,,,,,,,,,,,,,,,,,,,,,,,,,,,,,,,,,,,,,,,,,
,,614ca7f8fc7cba1b74101bfe,2022-09-08_14h02.38.097,CGTgamblingSpanTasks,2022.2.1,Win32,60.0240096,,,,,,,,,,,,,,,,,,,,,,,,,,,,,,,,,,,,,,,,,,,,,,,,,,,,,,,,,,,,,,,,,,,,,,,,,,,,,,,,,,"[1,5,8,6,3,2,4,7,9,9,4]",6,0,6,0,1,,,,,,,,,,,,,,,,,,,,,,,,,,,,,,,,,,,,,,,,,,,,,,,,
,,614ca7f8fc7cba1b74101bfe,2022-09-08_14h02.38.097,CGTgamblingSpanTasks,2022.2.1,Win32,60.0240096,,,,,,,,,,,,,,,,,,,,,,,,,,,,,,,,,,,,,,,,,,,,,,,,,,,,,,,,,,,,,,,,,,,,,,,,,,,,,,,,,,"[1,5,8,6,3,2,4,7,9,9,4]",7,0,7,0,1,,,,,,,,,,,,,,,,,,,,,,,,,,,,,,,,,,,,,,,,,,,,,,,,
,,614ca7f8fc7cba1b74101bfe,2022-09-08_14h02.38.097,CGTgamblingSpanTasks,2022.2.1,Win32,60.0240096,,,,,,,,,,,,,,,,,,,,,,,,,,,,,,,,,,,,,,,,,,,,,,,,,,,,,,,,,,,,,,,,,,,,,,,,,,,,,,,,,,"[1,5,8,6,3,2,4,7,9,9,4]",8,0,8,0,1,,,,,,,,,,,,,,,,,,,,,,,,,,,,,,,,,,,,,,,,,,,,,,,,
,,614ca7f8fc7cba1b74101bfe,2022-09-08_14h02.38.097,CGTgamblingSpanTasks,2022.2.1,Win32,60.0240096,,,,,,,,,,,,,,,,,,,,,,,,,,,,,,,,,,,,,,,,,,,,,,,,,,,,,,,,,,,,,,,,,,,,,,,,,,,,,,,,,,"[1,5,8,6,3,2,4,7,9,9,4]",9,0,9,0,1,,,,,,,,,,,,,,,,,,,,,,,,,,,,,,,,,,,,,,,,,,,,,,,,
,,614ca7f8fc7cba1b74101bfe,2022-09-08_14h02.38.097,CGTgamblingSpanTasks,2022.2.1,Win32,60.0240096,,,,,,,,,,,,,,,,,,,,,,,,,,,,,,,,,,,,,,,,,,,,,,,,,,,,,,,,,,,,,,,,,,,,,,,,,,,,,,,,,,"[1,5,8,6,3,2,4,7,9,9,4]",10,0,10,0,1,,,,,,,,,,,,,,,,,,,,,,,,,,,,,,,,,,,,,,,,,,,,,,,,
,,614ca7f8fc7cba1b74101bfe,2022-09-08_14h02.38.097,CGTgamblingSpanTasks,2022.2.1,Win32,60.0240096,,,,,,,,,,,,,,,,,,,,,,,,,,,,,,,,,,,,,,,,,,,,,,,,,,,,,,,,,,,,,,,0,,,,,,,,,,,,,,,,,,,,,,,,,15847936249,0.025925926,-0.365740741,1,0,0,cont_button,0,11,11,11,1,12,,,,,,,,,,,,,,,,,,,,,,,,,,,,,,,,,,,
,,614ca7f8fc7cba1b74101bfe,2022-09-08_14h02.38.097,CGTgamblingSpanTasks,2022.2.1,Win32,60.0240096,,,,,,,,,,,,,,,,,,,,,,,,,,,,,,,,,,,,,,,,,,,,,,,,,,,,,,,,,,,,,,,,,,,,,,,,,,,,,,,,,,"[3,5,7,2,8,4,1,9,6,6]",0,0,0,0,1,,,,,,,,,,,,,,,,,,,,,,,,,,,,,,,,,,,,,,,,,,,,,,,,
,,614ca7f8fc7cba1b74101bfe,2022-09-08_14h02.38.097,CGTgamblingSpanTasks,2022.2.1,Win32,60.0240096,,,,,,,,,,,,,,,,,,,,,,,,,,,,,,,,,,,,,,,,,,,,,,,,,,,,,,,,,,,,,,,,,,,,,,,,,,,,,,,,,,"[3,5,7,2,8,4,1,9,6,6]",1,0,1,0,1,,,,,,,,,,,,,,,,,,,,,,,,,,,,,,,,,,,,,,,,,,,,,,,,
,,614ca7f8fc7cba1b74101bfe,2022-09-08_14h02.38.097,CGTgamblingSpanTasks,2022.2.1,Win32,60.0240096,,,,,,,,,,,,,,,,,,,,,,,,,,,,,,,,,,,,,,,,,,,,,,,,,,,,,,,,,,,,,,,,,,,,,,,,,,,,,,,,,,"[3,5,7,2,8,4,1,9,6,6]",2,0,2,0,1,,,,,,,,,,,,,,,,,,,,,,,,,,,,,,,,,,,,,,,,,,,,,,,,
,,614ca7f8fc7cba1b74101bfe,2022-09-08_14h02.38.097,CGTgamblingSpanTasks,2022.2.1,Win32,60.0240096,,,,,,,,,,,,,,,,,,,,,,,,,,,,,,,,,,,,,,,,,,,,,,,,,,,,,,,,,,,,,,,,,,,,,,,,,,,,,,,,,,"[3,5,7,2,8,4,1,9,6,6]",3,0,3,0,1,,,,,,,,,,,,,,,,,,,,,,,,,,,,,,,,,,,,,,,,,,,,,,,,
,,614ca7f8fc7cba1b74101bfe,2022-09-08_14h02.38.097,CGTgamblingSpanTasks,2022.2.1,Win32,60.0240096,,,,,,,,,,,,,,,,,,,,,,,,,,,,,,,,,,,,,,,,,,,,,,,,,,,,,,,,,,,,,,,,,,,,,,,,,,,,,,,,,,"[3,5,7,2,8,4,1,9,6,6]",4,0,4,0,1,,,,,,,,,,,,,,,,,,,,,,,,,,,,,,,,,,,,,,,,,,,,,,,,
,,614ca7f8fc7cba1b74101bfe,2022-09-08_14h02.38.097,CGTgamblingSpanTasks,2022.2.1,Win32,60.0240096,,,,,,,,,,,,,,,,,,,,,,,,,,,,,,,,,,,,,,,,,,,,,,,,,,,,,,,,,,,,,,,,,,,,,,,,,,,,,,,,,,"[3,5,7,2,8,4,1,9,6,6]",5,0,5,0,1,,,,,,,,,,,,,,,,,,,,,,,,,,,,,,,,,,,,,,,,,,,,,,,,
,,614ca7f8fc7cba1b74101bfe,2022-09-08_14h02.38.097,CGTgamblingSpanTasks,2022.2.1,Win32,60.0240096,,,,,,,,,,,,,,,,,,,,,,,,,,,,,,,,,,,,,,,,,,,,,,,,,,,,,,,,,,,,,,,,,,,,,,,,,,,,,,,,,,"[3,5,7,2,8,4,1,9,6,6]",6,0,6,0,1,,,,,,,,,,,,,,,,,,,,,,,,,,,,,,,,,,,,,,,,,,,,,,,,
,,614ca7f8fc7cba1b74101bfe,2022-09-08_14h02.38.097,CGTgamblingSpanTasks,2022.2.1,Win32,60.0240096,,,,,,,,,,,,,,,,,,,,,,,,,,,,,,,,,,,,,,,,,,,,,,,,,,,,,,,,,,,,,,,,,,,,,,,,,,,,,,,,,,"[3,5,7,2,8,4,1,9,6,6]",7,0,7,0,1,,,,,,,,,,,,,,,,,,,,,,,,,,,,,,,,,,,,,,,,,,,,,,,,
,,614ca7f8fc7cba1b74101bfe,2022-09-08_14h02.38.097,CGTgamblingSpanTasks,2022.2.1,Win32,60.0240096,,,,,,,,,,,,,,,,,,,,,,,,,,,,,,,,,,,,,,,,,,,,,,,,,,,,,,,,,,,,,,,,,,,,,,,,,,,,,,,,,,"[3,5,7,2,8,4,1,9,6,6]",8,0,8,0,1,,,,,,,,,,,,,,,,,,,,,,,,,,,,,,,,,,,,,,,,,,,,,,,,
,,614ca7f8fc7cba1b74101bfe,2022-09-08_14h02.38.097,CGTgamblingSpanTasks,2022.2.1,Win32,60.0240096,,,,,,,,,,,,,,,,,,,,,,,,,,,,,,,,,,,,,,,,,,,,,,,,,,,,,,,,,,,,,,,,,,,,,,,,,,,,,,,,,,"[3,5,7,2,8,4,1,9,6,6]",9,0,9,0,1,,,,,,,,,,,,,,,,,,,,,,,,,,,,,,,,,,,,,,,,,,,,,,,,
,,614ca7f8fc7cba1b74101bfe,2022-09-08_14h02.38.097,CGTgamblingSpanTasks,2022.2.1,Win32,60.0240096,,,,,,,,,,,,,,,,,,,,,,,,,,,,,,,,,,,,,,,,,,,,,,,,,,,,,,,,,,,,,,,0,,,,,,,,,,,,,,,,,,,,,,,,,3571942566,0.025925926,-0.365740741,1,0,0,cont_button,0,12,12,12,1,13,,,,,,,,,,,,,,,,,,,,,,,,,,,,,,,,,,,
,,614ca7f8fc7cba1b74101bfe,2022-09-08_14h02.38.097,CGTgamblingSpanTasks,2022.2.1,Win32,60.0240096,,,,,,,,,,,,,,,,,,,,,,,,,,,,,,,,,,,,,,,,,,,,,,,,,,,,,,,,,,,,,,,,,,,,,,,,,,,,,,,,,,"[7,4,2,3,1,9,6,5,8,8]",0,0,0,0,1,,,,,,,,,,,,,,,,,,,,,,,,,,,,,,,,,,,,,,,,,,,,,,,,
,,614ca7f8fc7cba1b74101bfe,2022-09-08_14h02.38.097,CGTgamblingSpanTasks,2022.2.1,Win32,60.0240096,,,,,,,,,,,,,,,,,,,,,,,,,,,,,,,,,,,,,,,,,,,,,,,,,,,,,,,,,,,,,,,,,,,,,,,,,,,,,,,,,,"[7,4,2,3,1,9,6,5,8,8]",1,0,1,0,1,,,,,,,,,,,,,,,,,,,,,,,,,,,,,,,,,,,,,,,,,,,,,,,,
,,614ca7f8fc7cba1b74101bfe,2022-09-08_14h02.38.097,CGTgamblingSpanTasks,2022.2.1,Win32,60.0240096,,,,,,,,,,,,,,,,,,,,,,,,,,,,,,,,,,,,,,,,,,,,,,,,,,,,,,,,,,,,,,,,,,,,,,,,,,,,,,,,,,"[7,4,2,3,1,9,6,5,8,8]",2,0,2,0,1,,,,,,,,,,,,,,,,,,,,,,,,,,,,,,,,,,,,,,,,,,,,,,,,
,,614ca7f8fc7cba1b74101bfe,2022-09-08_14h02.38.097,CGTgamblingSpanTasks,2022.2.1,Win32,60.0240096,,,,,,,,,,,,,,,,,,,,,,,,,,,,,,,,,,,,,,,,,,,,,,,,,,,,,,,,,,,,,,,,,,,,,,,,,,,,,,,,,,"[7,4,2,3,1,9,6,5,8,8]",3,0,3,0,1,,,,,,,,,,,,,,,,,,,,,,,,,,,,,,,,,,,,,,,,,,,,,,,,
,,614ca7f8fc7cba1b74101bfe,2022-09-08_14h02.38.097,CGTgamblingSpanTasks,2022.2.1,Win32,60.0240096,,,,,,,,,,,,,,,,,,,,,,,,,,,,,,,,,,,,,,,,,,,,,,,,,,,,,,,,,,,,,,,,,,,,,,,,,,,,,,,,,,"[7,4,2,3,1,9,6,5,8,8]",4,0,4,0,1,,,,,,,,,,,,,,,,,,,,,,,,,,,,,,,,,,,,,,,,,,,,,,,,
,,614ca7f8fc7cba1b74101bfe,2022-09-08_14h02.38.097,CGTgamblingSpanTasks,2022.2.1,Win32,60.0240096,,,,,,,,,,,,,,,,,,,,,,,,,,,,,,,,,,,,,,,,,,,,,,,,,,,,,,,,,,,,,,,,,,,,,,,,,,,,,,,,,,"[7,4,2,3,1,9,6,5,8,8]",5,0,5,0,1,,,,,,,,,,,,,,,,,,,,,,,,,,,,,,,,,,,,,,,,,,,,,,,,
,,614ca7f8fc7cba1b74101bfe,2022-09-08_14h02.38.097,CGTgamblingSpanTasks,2022.2.1,Win32,60.0240096,,,,,,,,,,,,,,,,,,,,,,,,,,,,,,,,,,,,,,,,,,,,,,,,,,,,,,,,,,,,,,,,,,,,,,,,,,,,,,,,,,"[7,4,2,3,1,9,6,5,8,8]",6,0,6,0,1,,,,,,,,,,,,,,,,,,,,,,,,,,,,,,,,,,,,,,,,,,,,,,,,
,,614ca7f8fc7cba1b74101bfe,2022-09-08_14h02.38.097,CGTgamblingSpanTasks,2022.2.1,Win32,60.0240096,,,,,,,,,,,,,,,,,,,,,,,,,,,,,,,,,,,,,,,,,,,,,,,,,,,,,,,,,,,,,,,,,,,,,,,,,,,,,,,,,,"[7,4,2,3,1,9,6,5,8,8]",7,0,7,0,1,,,,,,,,,,,,,,,,,,,,,,,,,,,,,,,,,,,,,,,,,,,,,,,,
,,614ca7f8fc7cba1b74101bfe,2022-09-08_14h02.38.097,CGTgamblingSpanTasks,2022.2.1,Win32,60.0240096,,,,,,,,,,,,,,,,,,,,,,,,,,,,,,,,,,,,,,,,,,,,,,,,,,,,,,,,,,,,,,,,,,,,,,,,,,,,,,,,,,"[7,4,2,3,1,9,6,5,8,8]",8,0,8,0,1,,,,,,,,,,,,,,,,,,,,,,,,,,,,,,,,,,,,,,,,,,,,,,,,
,,614ca7f8fc7cba1b74101bfe,2022-09-08_14h02.38.097,CGTgamblingSpanTasks,2022.2.1,Win32,60.0240096,,,,,,,,,,,,,,,,,,,,,,,,,,,,,,,,,,,,,,,,,,,,,,,,,,,,,,,,,,,,,,,,,,,,,,,,,,,,,,,,,,"[7,4,2,3,1,9,6,5,8,8]",9,0,9,0,1,,,,,,,,,,,,,,,,,,,,,,,,,,,,,,,,,,,,,,,,,,,,,,,,
,,614ca7f8fc7cba1b74101bfe,2022-09-08_14h02.38.097,CGTgamblingSpanTasks,2022.2.1,Win32,60.0240096,,,,,,,,,,,,,,,,,,,,,,,,,,,,,,,,,,,,,,,,,,,,,,,,,,,,,,,,,,,,,,,1,,,,,,,,,,,,,,,,,,,,,,,,,7423196588,0.025925926,-0.365740741,1,0,0,cont_button,0,13,13,13,1,14,,,,,,,,,,,,,,,,,,,,,,,,,,,,,,,,,,,
,,614ca7f8fc7cba1b74101bfe,2022-09-08_14h02.38.097,CGTgamblingSpanTasks,2022.2.1,Win32,60.0240096,,,,,,,,,,,,,,,,,,,,,,,,,,,,,,,,,,,,,,,,,,,,,,,,,,,,,,,,,,,,,,,,,,,,,,,,,,,,,,,,,,,,,,,,,,,,,,,,,,,,,return,2.483,,,,,,,,,,,,,,,,,,,,,,,,,,,,,,,,,
,,614ca7f8fc7cba1b74101bfe,2022-09-08_14h02.38.097,CGTgamblingSpanTasks,2022.2.1,Win32,60.0240096,,,,,,,,,,,,,,,,,,,,,,,,,,,,,,,,,,,,,,,,,,,,,,,,,,,,,,,,,,,,,,,,,,,,,,,,,,,,,,,,,,,,,,,,,,,,,,,,,,,,,,,return,2.567,,,,,,,,,,,,,,,,,,,,,,,,,,,,,,,
,,614ca7f8fc7cba1b74101bfe,2022-09-08_14h02.38.097,CGTgamblingSpanTasks,2022.2.1,Win32,60.0240096,,,,,,,,,,,,,,,,,,,,,,,,,,,,,,,,,,,,,,,,,,,,,,,,,,,,,,,,,,,,,,,1,,,,,,,,,,,,3,342,24,2,42,,,,,,,,,,,,,,,,,,,,,,,,,,42,0.025925926,-0.365740741,1,0,0,cont_buttonPractice_2,0,0,0,0,1,,,,,,,,,,,,,,,,,,,
,,614ca7f8fc7cba1b74101bfe,2022-09-08_14h02.38.097,CGTgamblingSpanTasks,2022.2.1,Win32,60.0240096,,,,,,,,,,,,,,,,,,,,,,,,,,,,,,,,,,,,,,,,,,,,,,,,,,,,,,,,,,,,,,,1,,,,,,,,,,,,3,937,73,2,37,,,,,,,,,,,,,,,,,,,,,,,,,,37,0.025925926,-0.365740741,1,0,0,cont_buttonPractice_2,0,1,1,1,1,,,,,,,,,,,,,,,,,,,
,,614ca7f8fc7cba1b74101bfe,2022-09-08_14h02.38.097,CGTgamblingSpanTasks,2022.2.1,Win32,60.0240096,,,,,,,,,,,,,,,,,,,,,,,,,,,,,,,,,,,,,,,,,,,,,,,,,,,,,,,,,,,,,,,,,,,,,,,,,,,,,,,,,,,,,,,,,,,,,,,,,,,,,,,,,,,,,,,,,,,,,return,3.041,,,,,,,,,,,,,,,,,
,,614ca7f8fc7cba1b74101bfe,2022-09-08_14h02.38.097,CGTgamblingSpanTasks,2022.2.1,Win32,60.0240096,,,,,,,,,,,,,,,,,,,,,,,,,,,,,,,,,,,,,,,,,,,,,,,,,,,,,,,,,,,,,,,,,,,,,,,,,,,,,,,,,,"[5,9]",,,,,,,,,,,,,,,,,,,,,,,,,,,,,,,,,,,,,0,0,0,0,1,,,,,,,,,,,,
,,614ca7f8fc7cba1b74101bfe,2022-09-08_14h02.38.097,CGTgamblingSpanTasks,2022.2.1,Win32,60.0240096,,,,,,,,,,,,,,,,,,,,,,,,,,,,,,,,,,,,,,,,,,,,,,,,,,,,,,,,,,,,,,,,,,,,,,,,,,,,,,,,,,"[5,9]",,,,,,,,,,,,,,,,,,,,,,,,,,,,,,,,,,,,,1,0,1,0,1,,,,,,,,,,,,
,,614ca7f8fc7cba1b74101bfe,2022-09-08_14h02.38.097,CGTgamblingSpanTasks,2022.2.1,Win32,60.0240096,,,,,,,,,,,,,,,,,,,,,,,,,,,,,,,,,,,,,,,,,,,,,,,,,,,,,,,,,,,,,,,1,,,,,,,,,,,,,,,,,,,,,,,,,,,,,,,,,,,,,1,,,,,,,,,,,,,,,,,,,,,,,,95,0.025925926,-0.365740741,1,0,0,cont_buttonBS,0,0,0,0,1
,,614ca7f8fc7cba1b74101bfe,2022-09-08_14h02.38.097,CGTgamblingSpanTasks,2022.2.1,Win32,60.0240096,,,,,,,,,,,,,,,,,,,,,,,,,,,,,,,,,,,,,,,,,,,,,,,,,,,,,,,,,,,,,,,,,,,,,,,,,,,,,,,,,,"[4,3,6]",,,,,,,,,,,,,,,,,,,,,,,,,,,,,,,,,,,,,0,0,0,0,1,,,,,,,,,,,,
,,614ca7f8fc7cba1b74101bfe,2022-09-08_14h02.38.097,CGTgamblingSpanTasks,2022.2.1,Win32,60.0240096,,,,,,,,,,,,,,,,,,,,,,,,,,,,,,,,,,,,,,,,,,,,,,,,,,,,,,,,,,,,,,,,,,,,,,,,,,,,,,,,,,"[4,3,6]",,,,,,,,,,,,,,,,,,,,,,,,,,,,,,,,,,,,,1,0,1,0,1,,,,,,,,,,,,
,,614ca7f8fc7cba1b74101bfe,2022-09-08_14h02.38.097,CGTgamblingSpanTasks,2022.2.1,Win32,60.0240096,,,,,,,,,,,,,,,,,,,,,,,,,,,,,,,,,,,,,,,,,,,,,,,,,,,,,,,,,,,,,,,,,,,,,,,,,,,,,,,,,,"[4,3,6]",,,,,,,,,,,,,,,,,,,,,,,,,,,,,,,,,,,,,2,0,2,0,1,,,,,,,,,,,,
,,614ca7f8fc7cba1b74101bfe,2022-09-08_14h02.38.097,CGTgamblingSpanTasks,2022.2.1,Win32,60.0240096,,,,,,,,,,,,,,,,,,,,,,,,,,,,,,,,,,,,,,,,,,,,,,,,,,,,,,,,,,,,,,,1,,,,,,,,,,,,,,,,,,,,,,,,,,,,,,,,,,,,,2,,,,,,,,,,,,,,,,,,,,,,,,634,0.025925926,-0.365740741,1,0,0,cont_buttonBS,0,1,1,1,1
,,614ca7f8fc7cba1b74101bfe,2022-09-08_14h02.38.097,CGTgamblingSpanTasks,2022.2.1,Win32,60.0240096,,,,,,,,,,,,,,,,,,,,,,,,,,,,,,,,,,,,,,,,,,,,,,,,,,,,,,,,,,,,,,,,,,,,,,,,,,,,,,,,,,"[2,8,6,1]",,,,,,,,,,,,,,,,,,,,,,,,,,,,,,,,,,,,,0,0,0,0,1,,,,,,,,,,,,
,,614ca7f8fc7cba1b74101bfe,2022-09-08_14h02.38.097,CGTgamblingSpanTasks,2022.2.1,Win32,60.0240096,,,,,,,,,,,,,,,,,,,,,,,,,,,,,,,,,,,,,,,,,,,,,,,,,,,,,,,,,,,,,,,,,,,,,,,,,,,,,,,,,,"[2,8,6,1]",,,,,,,,,,,,,,,,,,,,,,,,,,,,,,,,,,,,,1,0,1,0,1,,,,,,,,,,,,
,,614ca7f8fc7cba1b74101bfe,2022-09-08_14h02.38.097,CGTgamblingSpanTasks,2022.2.1,Win32,60.0240096,,,,,,,,,,,,,,,,,,,,,,,,,,,,,,,,,,,,,,,,,,,,,,,,,,,,,,,,,,,,,,,,,,,,,,,,,,,,,,,,,,"[2,8,6,1]",,,,,,,,,,,,,,,,,,,,,,,,,,,,,,,,,,,,,2,0,2,0,1,,,,,,,,,,,,
,,614ca7f8fc7cba1b74101bfe,2022-09-08_14h02.38.097,CGTgamblingSpanTasks,2022.2.1,Win32,60.0240096,,,,,,,,,,,,,,,,,,,,,,,,,,,,,,,,,,,,,,,,,,,,,,,,,,,,,,,,,,,,,,,,,,,,,,,,,,,,,,,,,,"[2,8,6,1]",,,,,,,,,,,,,,,,,,,,,,,,,,,,,,,,,,,,,3,0,3,0,1,,,,,,,,,,,,
,,614ca7f8fc7cba1b74101bfe,2022-09-08_14h02.38.097,CGTgamblingSpanTasks,2022.2.1,Win32,60.0240096,,,,,,,,,,,,,,,,,,,,,,,,,,,,,,,,,,,,,,,,,,,,,,,,,,,,,,,,,,,,,,,1,,,,,,,,,,,,,,,,,,,,,,,,,,,,,,,,,,,,,3,,,,,,,,,,,,,,,,,,,,,,,,1682,0.025925926,-0.365740741,1,0,0,cont_buttonBS,0,2,2,2,1
,,614ca7f8fc7cba1b74101bfe,2022-09-08_14h02.38.097,CGTgamblingSpanTasks,2022.2.1,Win32,60.0240096,,,,,,,,,,,,,,,,,,,,,,,,,,,,,,,,,,,,,,,,,,,,,,,,,,,,,,,,,,,,,,,,,,,,,,,,,,,,,,,,,,"[8,5,4,2,9]",,,,,,,,,,,,,,,,,,,,,,,,,,,,,,,,,,,,,0,0,0,0,1,,,,,,,,,,,,
,,614ca7f8fc7cba1b74101bfe,2022-09-08_14h02.38.097,CGTgamblingSpanTasks,2022.2.1,Win32,60.0240096,,,,,,,,,,,,,,,,,,,,,,,,,,,,,,,,,,,,,,,,,,,,,,,,,,,,,,,,,,,,,,,,,,,,,,,,,,,,,,,,,,"[8,5,4,2,9]",,,,,,,,,,,,,,,,,,,,,,,,,,,,,,,,,,,,,1,0,1,0,1,,,,,,,,,,,,
,,614ca7f8fc7cba1b74101bfe,2022-09-08_14h02.38.097,CGTgamblingSpanTasks,2022.2.1,Win32,60.0240096,,,,,,,,,,,,,,,,,,,,,,,,,,,,,,,,,,,,,,,,,,,,,,,,,,,,,,,,,,,,,,,,,,,,,,,,,,,,,,,,,,"[8,5,4,2,9]",,,,,,,,,,,,,,,,,,,,,,,,,,,,,,,,,,,,,2,0,2,0,1,,,,,,,,,,,,
,,614ca7f8fc7cba1b74101bfe,2022-09-08_14h02.38.097,CGTgamblingSpanTasks,2022.2.1,Win32,60.0240096,,,,,,,,,,,,,,,,,,,,,,,,,,,,,,,,,,,,,,,,,,,,,,,,,,,,,,,,,,,,,,,,,,,,,,,,,,,,,,,,,,"[8,5,4,2,9]",,,,,,,,,,,,,,,,,,,,,,,,,,,,,,,,,,,,,3,0,3,0,1,,,,,,,,,,,,
,,614ca7f8fc7cba1b74101bfe,2022-09-08_14h02.38.097,CGTgamblingSpanTasks,2022.2.1,Win32,60.0240096,,,,,,,,,,,,,,,,,,,,,,,,,,,,,,,,,,,,,,,,,,,,,,,,,,,,,,,,,,,,,,,,,,,,,,,,,,,,,,,,,,"[8,5,4,2,9]",,,,,,,,,,,,,,,,,,,,,,,,,,,,,,,,,,,,,4,0,4,0,1,,,,,,,,,,,,
,,614ca7f8fc7cba1b74101bfe,2022-09-08_14h02.38.097,CGTgamblingSpanTasks,2022.2.1,Win32,60.0240096,,,,,,,,,,,,,,,,,,,,,,,,,,,,,,,,,,,,,,,,,,,,,,,,,,,,,,,,,,,,,,,1,,,,,,,,,,,,,,,,,,,,,,,,,,,,,,,,,,,,,4,,,,,,,,,,,,,,,,,,,,,,,,92458,0.025925926,-0.365740741,1,0,0,cont_buttonBS,0,3,3,3,1
,,614ca7f8fc7cba1b74101bfe,2022-09-08_14h02.38.097,CGTgamblingSpanTasks,2022.2.1,Win32,60.0240096,,,,,,,,,,,,,,,,,,,,,,,,,,,,,,,,,,,,,,,,,,,,,,,,,,,,,,,,,,,,,,,,,,,,,,,,,,,,,,,,,,"[9,6,1,8,4,3]",,,,,,,,,,,,,,,,,,,,,,,,,,,,,,,,,,,,,0,0,0,0,1,,,,,,,,,,,,
,,614ca7f8fc7cba1b74101bfe,2022-09-08_14h02.38.097,CGTgamblingSpanTasks,2022.2.1,Win32,60.0240096,,,,,,,,,,,,,,,,,,,,,,,,,,,,,,,,,,,,,,,,,,,,,,,,,,,,,,,,,,,,,,,,,,,,,,,,,,,,,,,,,,"[9,6,1,8,4,3]",,,,,,,,,,,,,,,,,,,,,,,,,,,,,,,,,,,,,1,0,1,0,1,,,,,,,,,,,,
,,614ca7f8fc7cba1b74101bfe,2022-09-08_14h02.38.097,CGTgamblingSpanTasks,2022.2.1,Win32,60.0240096,,,,,,,,,,,,,,,,,,,,,,,,,,,,,,,,,,,,,,,,,,,,,,,,,,,,,,,,,,,,,,,,,,,,,,,,,,,,,,,,,,"[9,6,1,8,4,3]",,,,,,,,,,,,,,,,,,,,,,,,,,,,,,,,,,,,,2,0,2,0,1,,,,,,,,,,,,
,,614ca7f8fc7cba1b74101bfe,2022-09-08_14h02.38.097,CGTgamblingSpanTasks,2022.2.1,Win32,60.0240096,,,,,,,,,,,,,,,,,,,,,,,,,,,,,,,,,,,,,,,,,,,,,,,,,,,,,,,,,,,,,,,,,,,,,,,,,,,,,,,,,,"[9,6,1,8,4,3]",,,,,,,,,,,,,,,,,,,,,,,,,,,,,,,,,,,,,3,0,3,0,1,,,,,,,,,,,,
,,614ca7f8fc7cba1b74101bfe,2022-09-08_14h02.38.097,CGTgamblingSpanTasks,2022.2.1,Win32,60.0240096,,,,,,,,,,,,,,,,,,,,,,,,,,,,,,,,,,,,,,,,,,,,,,,,,,,,,,,,,,,,,,,,,,,,,,,,,,,,,,,,,,"[9,6,1,8,4,3]",,,,,,,,,,,,,,,,,,,,,,,,,,,,,,,,,,,,,4,0,4,0,1,,,,,,,,,,,,
,,614ca7f8fc7cba1b74101bfe,2022-09-08_14h02.38.097,CGTgamblingSpanTasks,2022.2.1,Win32,60.0240096,,,,,,,,,,,,,,,,,,,,,,,,,,,,,,,,,,,,,,,,,,,,,,,,,,,,,,,,,,,,,,,,,,,,,,,,,,,,,,,,,,"[9,6,1,8,4,3]",,,,,,,,,,,,,,,,,,,,,,,,,,,,,,,,,,,,,5,0,5,0,1,,,,,,,,,,,,
,,614ca7f8fc7cba1b74101bfe,2022-09-08_14h02.38.097,CGTgamblingSpanTasks,2022.2.1,Win32,60.0240096,,,,,,,,,,,,,,,,,,,,,,,,,,,,,,,,,,,,,,,,,,,,,,,,,,,,,,,,,,,,,,,1,,,,,,,,,,,,,,,,,,,,,,,,,,,,,,,,,,,,,5,,,,,,,,,,,,,,,,,,,,,,,,348169,-0.036111111,-0.385185185,1,0,0,cont_buttonBS,0,4,4,4,1
,,614ca7f8fc7cba1b74101bfe,2022-09-08_14h02.38.097,CGTgamblingSpanTasks,2022.2.1,Win32,60.0240096,,,,,,,,,,,,,,,,,,,,,,,,,,,,,,,,,,,,,,,,,,,,,,,,,,,,,,,,,,,,,,,,,,,,,,,,,,,,,,,,,,"[7,2,5,6,9,4,1]",,,,,,,,,,,,,,,,,,,,,,,,,,,,,,,,,,,,,0,0,0,0,1,,,,,,,,,,,,
,,614ca7f8fc7cba1b74101bfe,2022-09-08_14h02.38.097,CGTgamblingSpanTasks,2022.2.1,Win32,60.0240096,,,,,,,,,,,,,,,,,,,,,,,,,,,,,,,,,,,,,,,,,,,,,,,,,,,,,,,,,,,,,,,,,,,,,,,,,,,,,,,,,,"[7,2,5,6,9,4,1]",,,,,,,,,,,,,,,,,,,,,,,,,,,,,,,,,,,,,1,0,1,0,1,,,,,,,,,,,,
,,614ca7f8fc7cba1b74101bfe,2022-09-08_14h02.38.097,CGTgamblingSpanTasks,2022.2.1,Win32,60.0240096,,,,,,,,,,,,,,,,,,,,,,,,,,,,,,,,,,,,,,,,,,,,,,,,,,,,,,,,,,,,,,,,,,,,,,,,,,,,,,,,,,"[7,2,5,6,9,4,1]",,,,,,,,,,,,,,,,,,,,,,,,,,,,,,,,,,,,,2,0,2,0,1,,,,,,,,,,,,
,,614ca7f8fc7cba1b74101bfe,2022-09-08_14h02.38.097,CGTgamblingSpanTasks,2022.2.1,Win32,60.0240096,,,,,,,,,,,,,,,,,,,,,,,,,,,,,,,,,,,,,,,,,,,,,,,,,,,,,,,,,,,,,,,,,,,,,,,,,,,,,,,,,,"[7,2,5,6,9,4,1]",,,,,,,,,,,,,,,,,,,,,,,,,,,,,,,,,,,,,3,0,3,0,1,,,,,,,,,,,,
,,614ca7f8fc7cba1b74101bfe,2022-09-08_14h02.38.097,CGTgamblingSpanTasks,2022.2.1,Win32,60.0240096,,,,,,,,,,,,,,,,,,,,,,,,,,,,,,,,,,,,,,,,,,,,,,,,,,,,,,,,,,,,,,,,,,,,,,,,,,,,,,,,,,"[7,2,5,6,9,4,1]",,,,,,,,,,,,,,,,,,,,,,,,,,,,,,,,,,,,,4,0,4,0,1,,,,,,,,,,,,
,,614ca7f8fc7cba1b74101bfe,2022-09-08_14h02.38.097,CGTgamblingSpanTasks,2022.2.1,Win32,60.0240096,,,,,,,,,,,,,,,,,,,,,,,,,,,,,,,,,,,,,,,,,,,,,,,,,,,,,,,,,,,,,,,,,,,,,,,,,,,,,,,,,,"[7,2,5,6,9,4,1]",,,,,,,,,,,,,,,,,,,,,,,,,,,,,,,,,,,,,5,0,5,0,1,,,,,,,,,,,,
