initITIstatic,initITIdynamic,participant,date,expName,psychopyVersion,OS,frameRate,inst1.keys,inst1.rt,startPracResp.keys,startPracResp.rt,choice1.keys,choice1.rt,outcome,extraITI,trials.thisRepN,trials.thisTrialN,trials.thisN,trials.thisIndex,trials.ran,riskyGain,riskyLoss,alternative,isi,iti,loc,postPractResp.keys,postPractResp.rt,realloc,realChoice.keys,realChoice.rt,outcomes,choices,actualITI,init ITI,staticRDM.thisRepN,staticRDM.thisTrialN,staticRDM.thisN,staticRDM.thisIndex,staticRDM.ran,riskyoption1,riskyoption2,safeoption,ischecktrial,dynamicChoiceSetName,dynamicChoiceSetPath,bestRho,bestMu,trials_2.thisRepN,trials_2.thisTrialN,trials_2.thisN,trials_2.thisIndex,trials_2.ran,key_resp.keys,key_resp.rt,dynamicRDM.thisRepN,dynamicRDM.thisTrialN,dynamicRDM.thisN,dynamicRDM.thisIndex,dynamicRDM.ran,choiceP,easy0difficult1,stopBreak.keys,stopBreak.rt,movealong.keys,movealong.rt,startPractice.keys,startPractice.rt,textboxPractice.text,correct,mousePractice.x,mousePractice.y,mousePractice.leftButton,mousePractice.midButton,mousePractice.rightButton,mousePractice.clicked_name,trialFSPractice.thisRepN,trialFSPractice.thisTrialN,trialFSPractice.thisN,trialFSPractice.thisIndex,trialFSPractice.ran,digitSpanForward,digits,digitsReverse,digitSpanReverse,digitsReverseCorrAnswer,startFSreal.keys,startFSreal.rt,digitsForTrial,digitLoop.thisRepN,digitLoop.thisTrialN,digitLoop.thisN,digitLoop.thisIndex,digitLoop.ran,textbox.text,mouse_3.x,mouse_3.y,mouse_3.leftButton,mouse_3.midButton,mouse_3.rightButton,mouse_3.clicked_name,trialsFS.thisRepN,trialsFS.thisTrialN,trialsFS.thisN,trialsFS.thisIndex,trialsFS.ran,trialNumber,moveToBS.keys,moveToBS.rt,startBSprac.keys,startBSprac.rt,textboxPractice_2.text,mousePractice_2.x,mousePractice_2.y,mousePractice_2.leftButton,mousePractice_2.midButton,mousePractice_2.rightButton,mousePractice_2.clicked_name,trialsPracticeBS.thisRepN,trialsPracticeBS.thisTrialN,trialsPracticeBS.thisN,trialsPracticeBS.thisIndex,trialsPracticeBS.ran,startBSreal.keys,startBSreal.rt,digitLoopBS.thisRepN,digitLoopBS.thisTrialN,digitLoopBS.thisN,digitLoopBS.thisIndex,digitLoopBS.ran,textboxBS.text,mouseBS.x,mouseBS.y,mouseBS.leftButton,mouseBS.midButton,mouseBS.rightButton,mouseBS.clicked_name,trialsBS.thisRepN,trialsBS.thisTrialN,trialsBS.thisN,trialsBS.thisIndex,trialsBS.ran
"[1,1.5,1,1.5,1.5,1.5,1,1.5,1.5,1,1.5,1,1,1.5,1,1,1.5,1.5,1.5,1,1,1,1.5,1,1,1.5,1.5,1,1,1,1,1,1,1.5,1.5,1.5,1.5,1,1.5,1.5,1,1.5,1,1.5,1.5,1.5,1,1,1.5,1]","[1,1,1,1,1.5,1,1.5,1.5,1,1.5,1.5,1.5,1,1,1.5,1,1,1,1.5,1.5,1,1,1.5,1.5,1,1.5,1,1,1.5,1,1.5,1.5,1.5,1.5,1,1,1,1.5,1,1.5,1.5,1,1.5,1,1,1,1,1,1.5,1,1.5,1,1.5,1,1,1,1.5,1.5,1.5,1.5,1.5,1.5,1.5,1.5,1,1,1.5,1.5,1,1.5,1.5,1.5,1.5,1.5,1,1,1,1.5,1.5,1.5,1.5,1,1,1.5,1,1.5,1.5,1,1.5,1.5,1,1.5,1,1.5,1,1.5,1,1,1,1.5,1,1.5,1,1.5,1,1.5,1,1.5,1,1,1.5,1,1.5,1,1,1.5,1.5,1,1,1]",613fda883d650eff1765cd31,2022-09-08_18h21.27.782,CGTgamblingSpanTasks,2022.2.1,Win32,59.38594928,,,,,,,,,,,,,,,,,,,,,,,,,,,,,,,,,,,,,,,,,,,,,,,,,,,,,,,,,,,,,,,,,,,,,,,,,,,,,,,,,,,,,,,,,,,,,,,,,,,,,,,,,,,,,,,,,,,,,,,,,,,,,,,,,,,,,,,
,,613fda883d650eff1765cd31,2022-09-08_18h21.27.782,CGTgamblingSpanTasks,2022.2.1,Win32,59.38594928,return,25.74,,,,,,,,,,,,,,,,,,,,,,,,,,,,,,,,,,,,,,,,,,,,,,,,,,,,,,,,,,,,,,,,,,,,,,,,,,,,,,,,,,,,,,,,,,,,,,,,,,,,,,,,,,,,,,,,,,,,,,,,,,,,,,,,,,,,,
,,613fda883d650eff1765cd31,2022-09-08_18h21.27.782,CGTgamblingSpanTasks,2022.2.1,Win32,59.38594928,,,v,4.1841,,,,,,,,,,,,,,,,,,,,,,,,,,,,,,,,,,,,,,,,,,,,,,,,,,,,,,,,,,,,,,,,,,,,,,,,,,,,,,,,,,,,,,,,,,,,,,,,,,,,,,,,,,,,,,,,,,,,,,,,,,,,,,,,,,,
,,613fda883d650eff1765cd31,2022-09-08_18h21.27.782,CGTgamblingSpanTasks,2022.2.1,Win32,59.38594928,,,,,v,1.7739,0,2.2261,0,0,0,0,1,18.23,0,9.45,2,1,1,,,,,,,,,,,,,,,,,,,,,,,,,,,,,,,,,,,,,,,,,,,,,,,,,,,,,,,,,,,,,,,,,,,,,,,,,,,,,,,,,,,,,,,,,,,,,,,,,,,,,,,,,,,,,,,,,,,,
,,613fda883d650eff1765cd31,2022-09-08_18h21.27.782,CGTgamblingSpanTasks,2022.2.1,Win32,59.38594928,,,,,,, ,0,0,1,1,1,1,53.27,0,35.16,1,1.5,1,,,,,,,,,,,,,,,,,,,,,,,,,,,,,,,,,,,,,,,,,,,,,,,,,,,,,,,,,,,,,,,,,,,,,,,,,,,,,,,,,,,,,,,,,,,,,,,,,,,,,,,,,,,,,,,,,,,,
,,613fda883d650eff1765cd31,2022-09-08_18h21.27.782,CGTgamblingSpanTasks,2022.2.1,Win32,59.38594928,,,,,,, ,0,0,2,2,2,1,8.27,0,1.15,1,1.5,2,,,,,,,,,,,,,,,,,,,,,,,,,,,,,,,,,,,,,,,,,,,,,,,,,,,,,,,,,,,,,,,,,,,,,,,,,,,,,,,,,,,,,,,,,,,,,,,,,,,,,,,,,,,,,,,,,,,,
,,613fda883d650eff1765cd31,2022-09-08_18h21.27.782,CGTgamblingSpanTasks,2022.2.1,Win32,59.38594928,,,,,,, ,0,0,3,3,3,1,45.88,0,40.41,3,1,1,,,,,,,,,,,,,,,,,,,,,,,,,,,,,,,,,,,,,,,,,,,,,,,,,,,,,,,,,,,,,,,,,,,,,,,,,,,,,,,,,,,,,,,,,,,,,,,,,,,,,,,,,,,,,,,,,,,,
,,613fda883d650eff1765cd31,2022-09-08_18h21.27.782,CGTgamblingSpanTasks,2022.2.1,Win32,59.38594928,,,,,n,1.5155,21.56,2.4845,0,4,4,4,1,21.56,0,11.96,1,1.5,2,,,,,,,,,,,,,,,,,,,,,,,,,,,,,,,,,,,,,,,,,,,,,,,,,,,,,,,,,,,,,,,,,,,,,,,,,,,,,,,,,,,,,,,,,,,,,,,,,,,,,,,,,,,,,,,,,,,,
,,613fda883d650eff1765cd31,2022-09-08_18h21.27.782,CGTgamblingSpanTasks,2022.2.1,Win32,59.38594928,,,,,,,,,,,,,,,,,,,,v,8.1366,,,,,,,,,,,,,,,,,,,,,,,,,,,,,,,,,,,,,,,,,,,,,,,,,,,,,,,,,,,,,,,,,,,,,,,,,,,,,,,,,,,,,,,,,,,,,,,,,,,,,,,,,,,,,,,,,,
,,613fda883d650eff1765cd31,2022-09-08_18h21.27.782,CGTgamblingSpanTasks,2022.2.1,Win32,59.38594928,,,,,,,,2.8547,,,,,,,,,,,,,,2,n,1.1453,25.2,1,3.8547,1,0,0,0,3,1,25.2,0,5.4,0,,,,,,,,,,,,,,,,,,,,,,,,,,,,,,,,,,,,,,,,,,,,,,,,,,,,,,,,,,,,,,,,,,,,,,,,,,,,,,,,,,,,,,,,,,,,,,,,,,
,,613fda883d650eff1765cd31,2022-09-08_18h21.27.782,CGTgamblingSpanTasks,2022.2.1,Win32,59.38594928,,,,,,,,3.0111,,,,,,,,,,,,,,1,n,0.9889,6.53,0,4.5111,1.5,0,1,1,28,1,10.95,0,6.53,0,,,,,,,,,,,,,,,,,,,,,,,,,,,,,,,,,,,,,,,,,,,,,,,,,,,,,,,,,,,,,,,,,,,,,,,,,,,,,,,,,,,,,,,,,,,,,,,,,,
,,613fda883d650eff1765cd31,2022-09-08_18h21.27.782,CGTgamblingSpanTasks,2022.2.1,Win32,59.38594928,,,,,,,,2.8544,,,,,,,,,,,,,,2,n,1.1456,0,1,3.8544,1,0,2,2,42,1,19.86,0,0,1,,,,,,,,,,,,,,,,,,,,,,,,,,,,,,,,,,,,,,,,,,,,,,,,,,,,,,,,,,,,,,,,,,,,,,,,,,,,,,,,,,,,,,,,,,,,,,,,,,
,,613fda883d650eff1765cd31,2022-09-08_18h21.27.782,CGTgamblingSpanTasks,2022.2.1,Win32,59.38594928,,,,,,,,3.3407,,,,,,,,,,,,,,1,v,0.6593,0,1,4.8407,1.5,0,3,3,19,1,17.94,0,9.03,0,,,,,,,,,,,,,,,,,,,,,,,,,,,,,,,,,,,,,,,,,,,,,,,,,,,,,,,,,,,,,,,,,,,,,,,,,,,,,,,,,,,,,,,,,,,,,,,,,,
,,613fda883d650eff1765cd31,2022-09-08_18h21.27.782,CGTgamblingSpanTasks,2022.2.1,Win32,59.38594928,,,,,,,,2.8827,,,,,,,,,,,,,,2,v,1.1173,10.15,0,4.3827,1.5,0,4,4,33,1,15.7,0,10.15,0,,,,,,,,,,,,,,,,,,,,,,,,,,,,,,,,,,,,,,,,,,,,,,,,,,,,,,,,,,,,,,,,,,,,,,,,,,,,,,,,,,,,,,,,,,,,,,,,,,
,,613fda883d650eff1765cd31,2022-09-08_18h21.27.782,CGTgamblingSpanTasks,2022.2.1,Win32,59.38594928,,,,,,,,2.8829,,,,,,,,,,,,,,2,v,1.1171,10.68,0,4.3829,1.5,0,5,5,48,1,10.68,0,10.68,1,,,,,,,,,,,,,,,,,,,,,,,,,,,,,,,,,,,,,,,,,,,,,,,,,,,,,,,,,,,,,,,,,,,,,,,,,,,,,,,,,,,,,,,,,,,,,,,,,,
,,613fda883d650eff1765cd31,2022-09-08_18h21.27.782,CGTgamblingSpanTasks,2022.2.1,Win32,59.38594928,,,,,,,,3.1713,,,,,,,,,,,,,,2,v,0.8287,6.63,0,4.1713,1,0,6,6,30,1,10.73,0,6.63,0,,,,,,,,,,,,,,,,,,,,,,,,,,,,,,,,,,,,,,,,,,,,,,,,,,,,,,,,,,,,,,,,,,,,,,,,,,,,,,,,,,,,,,,,,,,,,,,,,,
,,613fda883d650eff1765cd31,2022-09-08_18h21.27.782,CGTgamblingSpanTasks,2022.2.1,Win32,59.38594928,,,,,,,,2.7399,,,,,,,,,,,,,,2,n,1.2601,0,1,4.2399,1.5,0,7,7,8,1,13.94,0,5.03,0,,,,,,,,,,,,,,,,,,,,,,,,,,,,,,,,,,,,,,,,,,,,,,,,,,,,,,,,,,,,,,,,,,,,,,,,,,,,,,,,,,,,,,,,,,,,,,,,,,
,,613fda883d650eff1765cd31,2022-09-08_18h21.27.782,CGTgamblingSpanTasks,2022.2.1,Win32,59.38594928,,,,,,,,2.8679,,,,,,,,,,,,,,2,n,1.1321,18.77,1,4.3679,1.5,0,8,8,15,1,18.77,0,8.61,0,,,,,,,,,,,,,,,,,,,,,,,,,,,,,,,,,,,,,,,,,,,,,,,,,,,,,,,,,,,,,,,,,,,,,,,,,,,,,,,,,,,,,,,,,,,,,,,,,,
,,613fda883d650eff1765cd31,2022-09-08_18h21.27.782,CGTgamblingSpanTasks,2022.2.1,Win32,59.38594928,,,,,,,,2.9994,,,,,,,,,,,,,,2,n,1.0006,17.73,1,3.9994,1,0,9,9,2,1,17.73,0,3.13,0,,,,,,,,,,,,,,,,,,,,,,,,,,,,,,,,,,,,,,,,,,,,,,,,,,,,,,,,,,,,,,,,,,,,,,,,,,,,,,,,,,,,,,,,,,,,,,,,,,
,,613fda883d650eff1765cd31,2022-09-08_18h21.27.782,CGTgamblingSpanTasks,2022.2.1,Win32,59.38594928,,,,,,,,3.015,,,,,,,,,,,,,,2,n,0.985,14.72,1,4.515,1.5,0,10,10,6,1,14.72,0,4.64,0,,,,,,,,,,,,,,,,,,,,,,,,,,,,,,,,,,,,,,,,,,,,,,,,,,,,,,,,,,,,,,,,,,,,,,,,,,,,,,,,,,,,,,,,,,,,,,,,,,
,,613fda883d650eff1765cd31,2022-09-08_18h21.27.782,CGTgamblingSpanTasks,2022.2.1,Win32,59.38594928,,,,,,,,2.7709,,,,,,,,,,,,,,1,n,1.2291,6.94,0,3.7709,1,0,11,11,38,1,10.12,0,6.94,0,,,,,,,,,,,,,,,,,,,,,,,,,,,,,,,,,,,,,,,,,,,,,,,,,,,,,,,,,,,,,,,,,,,,,,,,,,,,,,,,,,,,,,,,,,,,,,,,,,
,,613fda883d650eff1765cd31,2022-09-08_18h21.27.782,CGTgamblingSpanTasks,2022.2.1,Win32,59.38594928,,,,,,,,3.1035,,,,,,,,,,,,,,2,v,0.8965,7.55,0,4.1035,1,0,12,12,45,1,0,0,7.55,1,,,,,,,,,,,,,,,,,,,,,,,,,,,,,,,,,,,,,,,,,,,,,,,,,,,,,,,,,,,,,,,,,,,,,,,,,,,,,,,,,,,,,,,,,,,,,,,,,,
,,613fda883d650eff1765cd31,2022-09-08_18h21.27.782,CGTgamblingSpanTasks,2022.2.1,Win32,59.38594928,,,,,,,,2.7772,,,,,,,,,,,,,,1,n,1.2228,5.66,0,4.2772,1.5,0,13,13,14,1,12.68,0,5.66,0,,,,,,,,,,,,,,,,,,,,,,,,,,,,,,,,,,,,,,,,,,,,,,,,,,,,,,,,,,,,,,,,,,,,,,,,,,,,,,,,,,,,,,,,,,,,,,,,,,
,,613fda883d650eff1765cd31,2022-09-08_18h21.27.782,CGTgamblingSpanTasks,2022.2.1,Win32,59.38594928,,,,,,,,3.11,,,,,,,,,,,,,,1,v,0.89,28.21,1,4.11,1,0,14,14,1,1,28.21,0,3.89,0,,,,,,,,,,,,,,,,,,,,,,,,,,,,,,,,,,,,,,,,,,,,,,,,,,,,,,,,,,,,,,,,,,,,,,,,,,,,,,,,,,,,,,,,,,,,,,,,,,
,,613fda883d650eff1765cd31,2022-09-08_18h21.27.782,CGTgamblingSpanTasks,2022.2.1,Win32,59.38594928,,,,,,,,3.09,,,,,,,,,,,,,,2,v,0.91,10.46,0,4.09,1,0,15,15,39,1,15.09,0,10.46,0,,,,,,,,,,,,,,,,,,,,,,,,,,,,,,,,,,,,,,,,,,,,,,,,,,,,,,,,,,,,,,,,,,,,,,,,,,,,,,,,,,,,,,,,,,,,,,,,,,
,,613fda883d650eff1765cd31,2022-09-08_18h21.27.782,CGTgamblingSpanTasks,2022.2.1,Win32,59.38594928,,,,,,,,2.8612,,,,,,,,,,,,,,1,v,1.1388,0,1,4.3612,1.5,0,16,16,27,1,16.6,0,9.7,0,,,,,,,,,,,,,,,,,,,,,,,,,,,,,,,,,,,,,,,,,,,,,,,,,,,,,,,,,,,,,,,,,,,,,,,,,,,,,,,,,,,,,,,,,,,,,,,,,,
,,613fda883d650eff1765cd31,2022-09-08_18h21.27.782,CGTgamblingSpanTasks,2022.2.1,Win32,59.38594928,,,,,,,,2.3697,,,,,,,,,,,,,,1,v,1.6303,0,1,3.8697,1.5,0,17,17,10,1,13.45,0,5.27,0,,,,,,,,,,,,,,,,,,,,,,,,,,,,,,,,,,,,,,,,,,,,,,,,,,,,,,,,,,,,,,,,,,,,,,,,,,,,,,,,,,,,,,,,,,,,,,,,,,
,,613fda883d650eff1765cd31,2022-09-08_18h21.27.782,CGTgamblingSpanTasks,2022.2.1,Win32,59.38594928,,,,,,,,3.0536,,,,,,,,,,,,,,2,v,0.9464,6.4,0,4.5536,1.5,0,18,18,26,1,11.2,0,6.4,0,,,,,,,,,,,,,,,,,,,,,,,,,,,,,,,,,,,,,,,,,,,,,,,,,,,,,,,,,,,,,,,,,,,,,,,,,,,,,,,,,,,,,,,,,,,,,,,,,,
,,613fda883d650eff1765cd31,2022-09-08_18h21.27.782,CGTgamblingSpanTasks,2022.2.1,Win32,59.38594928,,,,,,,,3.0562,,,,,,,,,,,,,,2,v,0.9438,3.13,0,4.0562,1,0,19,19,47,1,0,0,3.13,1,,,,,,,,,,,,,,,,,,,,,,,,,,,,,,,,,,,,,,,,,,,,,,,,,,,,,,,,,,,,,,,,,,,,,,,,,,,,,,,,,,,,,,,,,,,,,,,,,,
,,613fda883d650eff1765cd31,2022-09-08_18h21.27.782,CGTgamblingSpanTasks,2022.2.1,Win32,59.38594928,,,,,,,,3.1754,,,,,,,,,,,,,,1,v,0.8246,14.26,1,4.1754,1,0,20,20,41,1,14.26,0,0,1,,,,,,,,,,,,,,,,,,,,,,,,,,,,,,,,,,,,,,,,,,,,,,,,,,,,,,,,,,,,,,,,,,,,,,,,,,,,,,,,,,,,,,,,,,,,,,,,,,
,,613fda883d650eff1765cd31,2022-09-08_18h21.27.782,CGTgamblingSpanTasks,2022.2.1,Win32,59.38594928,,,,,,,,3.0683,,,,,,,,,,,,,,1,v,0.9317,0,1,4.0683,1,0,21,21,17,1,18.33,0,8.84,0,,,,,,,,,,,,,,,,,,,,,,,,,,,,,,,,,,,,,,,,,,,,,,,,,,,,,,,,,,,,,,,,,,,,,,,,,,,,,,,,,,,,,,,,,,,,,,,,,,
,,613fda883d650eff1765cd31,2022-09-08_18h21.27.782,CGTgamblingSpanTasks,2022.2.1,Win32,59.38594928,,,,,,,,2.8063,,,,,,,,,,,,,,2,n,1.1937,17,1,4.3063,1.5,0,22,22,25,1,17,0,9.5,0,,,,,,,,,,,,,,,,,,,,,,,,,,,,,,,,,,,,,,,,,,,,,,,,,,,,,,,,,,,,,,,,,,,,,,,,,,,,,,,,,,,,,,,,,,,,,,,,,,
,,613fda883d650eff1765cd31,2022-09-08_18h21.27.782,CGTgamblingSpanTasks,2022.2.1,Win32,59.38594928,,,,,,,,2.7578,,,,,,,,,,,,,,2,n,1.2422,0,1,3.7578,1,0,23,23,0,1,20.03,0,1.99,0,,,,,,,,,,,,,,,,,,,,,,,,,,,,,,,,,,,,,,,,,,,,,,,,,,,,,,,,,,,,,,,,,,,,,,,,,,,,,,,,,,,,,,,,,,,,,,,,,,
,,613fda883d650eff1765cd31,2022-09-08_18h21.27.782,CGTgamblingSpanTasks,2022.2.1,Win32,59.38594928,,,,,,,,3.1236,,,,,,,,,,,,,,1,v,0.8764,0,1,4.1236,1,0,24,24,23,1,17.28,0,9.36,0,,,,,,,,,,,,,,,,,,,,,,,,,,,,,,,,,,,,,,,,,,,,,,,,,,,,,,,,,,,,,,,,,,,,,,,,,,,,,,,,,,,,,,,,,,,,,,,,,,
,,613fda883d650eff1765cd31,2022-09-08_18h21.27.782,CGTgamblingSpanTasks,2022.2.1,Win32,59.38594928,,,,,,,,0.7338,,,,,,,,,,,,,,1,v,3.2662,12.36,1,2.2338,1.5,0,25,25,16,1,12.36,0,5.82,0,,,,,,,,,,,,,,,,,,,,,,,,,,,,,,,,,,,,,,,,,,,,,,,,,,,,,,,,,,,,,,,,,,,,,,,,,,,,,,,,,,,,,,,,,,,,,,,,,,
,,613fda883d650eff1765cd31,2022-09-08_18h21.27.782,CGTgamblingSpanTasks,2022.2.1,Win32,59.38594928,,,,,,,,2.5171,,,,,,,,,,,,,,1,n,1.4829,9.92,0,4.0171,1.5,0,26,26,49,1,6.79,0,9.92,1,,,,,,,,,,,,,,,,,,,,,,,,,,,,,,,,,,,,,,,,,,,,,,,,,,,,,,,,,,,,,,,,,,,,,,,,,,,,,,,,,,,,,,,,,,,,,,,,,,
,,613fda883d650eff1765cd31,2022-09-08_18h21.27.782,CGTgamblingSpanTasks,2022.2.1,Win32,59.38594928,,,,,,,,2.9119,,,,,,,,,,,,,,1,v,1.0881,0,1,3.9119,1,0,27,27,22,1,11.62,0,6.19,0,,,,,,,,,,,,,,,,,,,,,,,,,,,,,,,,,,,,,,,,,,,,,,,,,,,,,,,,,,,,,,,,,,,,,,,,,,,,,,,,,,,,,,,,,,,,,,,,,,
,,613fda883d650eff1765cd31,2022-09-08_18h21.27.782,CGTgamblingSpanTasks,2022.2.1,Win32,59.38594928,,,,,,,,2.7077,,,,,,,,,,,,,,1,v,1.2923,0,1,3.7077,1,0,28,28,21,1,17.59,0,9.2,0,,,,,,,,,,,,,,,,,,,,,,,,,,,,,,,,,,,,,,,,,,,,,,,,,,,,,,,,,,,,,,,,,,,,,,,,,,,,,,,,,,,,,,,,,,,,,,,,,,
,,613fda883d650eff1765cd31,2022-09-08_18h21.27.782,CGTgamblingSpanTasks,2022.2.1,Win32,59.38594928,,,,,,,,3.3236,,,,,,,,,,,,,,2,n,0.6764,13.04,1,4.3236,1,0,29,29,12,1,13.04,0,5.48,0,,,,,,,,,,,,,,,,,,,,,,,,,,,,,,,,,,,,,,,,,,,,,,,,,,,,,,,,,,,,,,,,,,,,,,,,,,,,,,,,,,,,,,,,,,,,,,,,,,
,,613fda883d650eff1765cd31,2022-09-08_18h21.27.782,CGTgamblingSpanTasks,2022.2.1,Win32,59.38594928,,,,,,,,2.8523,,,,,,,,,,,,,,2,n,1.1477,0,1,3.8523,1,0,30,30,34,1,10.39,0,6.81,0,,,,,,,,,,,,,,,,,,,,,,,,,,,,,,,,,,,,,,,,,,,,,,,,,,,,,,,,,,,,,,,,,,,,,,,,,,,,,,,,,,,,,,,,,,,,,,,,,,
,,613fda883d650eff1765cd31,2022-09-08_18h21.27.782,CGTgamblingSpanTasks,2022.2.1,Win32,59.38594928,,,,,,,,3.0901,,,,,,,,,,,,,,1,v,0.9099,19.86,1,4.0901,1,0,31,31,11,1,19.86,0,8.07,0,,,,,,,,,,,,,,,,,,,,,,,,,,,,,,,,,,,,,,,,,,,,,,,,,,,,,,,,,,,,,,,,,,,,,,,,,,,,,,,,,,,,,,,,,,,,,,,,,,
,,613fda883d650eff1765cd31,2022-09-08_18h21.27.782,CGTgamblingSpanTasks,2022.2.1,Win32,59.38594928,,,,,,,,2.1503,,,,,,,,,,,,,,2,n,1.8497,11.84,1,3.1503,1,0,32,32,20,1,11.84,0,6.08,0,,,,,,,,,,,,,,,,,,,,,,,,,,,,,,,,,,,,,,,,,,,,,,,,,,,,,,,,,,,,,,,,,,,,,,,,,,,,,,,,,,,,,,,,,,,,,,,,,,
,,613fda883d650eff1765cd31,2022-09-08_18h21.27.782,CGTgamblingSpanTasks,2022.2.1,Win32,59.38594928,,,,,,,,3.3708,,,,,,,,,,,,,,1,v,0.6292,10.35,1,4.8708,1.5,0,33,33,40,1,10.35,0,0,1,,,,,,,,,,,,,,,,,,,,,,,,,,,,,,,,,,,,,,,,,,,,,,,,,,,,,,,,,,,,,,,,,,,,,,,,,,,,,,,,,,,,,,,,,,,,,,,,,,
,,613fda883d650eff1765cd31,2022-09-08_18h21.27.782,CGTgamblingSpanTasks,2022.2.1,Win32,59.38594928,,,,,,,,2.8351,,,,,,,,,,,,,,2,v,1.1649,6.73,0,4.3351,1.5,0,34,34,32,1,10.55,0,6.73,0,,,,,,,,,,,,,,,,,,,,,,,,,,,,,,,,,,,,,,,,,,,,,,,,,,,,,,,,,,,,,,,,,,,,,,,,,,,,,,,,,,,,,,,,,,,,,,,,,,
,,613fda883d650eff1765cd31,2022-09-08_18h21.27.782,CGTgamblingSpanTasks,2022.2.1,Win32,59.38594928,,,,,,,,2.8553,,,,,,,,,,,,,,2,n,1.1447,19.28,1,4.3553,1.5,0,35,35,13,1,19.28,0,8.36,0,,,,,,,,,,,,,,,,,,,,,,,,,,,,,,,,,,,,,,,,,,,,,,,,,,,,,,,,,,,,,,,,,,,,,,,,,,,,,,,,,,,,,,,,,,,,,,,,,,
,,613fda883d650eff1765cd31,2022-09-08_18h21.27.782,CGTgamblingSpanTasks,2022.2.1,Win32,59.38594928,,,,,,,,2.6707,,,,,,,,,,,,,,1,n,1.3293,6.29,0,4.1707,1.5,0,36,36,24,1,11.43,0,6.29,0,,,,,,,,,,,,,,,,,,,,,,,,,,,,,,,,,,,,,,,,,,,,,,,,,,,,,,,,,,,,,,,,,,,,,,,,,,,,,,,,,,,,,,,,,,,,,,,,,,
,,613fda883d650eff1765cd31,2022-09-08_18h21.27.782,CGTgamblingSpanTasks,2022.2.1,Win32,59.38594928,,,,,,,,2.8414,,,,,,,,,,,,,,2,v,1.1586,10.25,0,3.8414,1,0,37,37,46,1,0,0,10.25,1,,,,,,,,,,,,,,,,,,,,,,,,,,,,,,,,,,,,,,,,,,,,,,,,,,,,,,,,,,,,,,,,,,,,,,,,,,,,,,,,,,,,,,,,,,,,,,,,,,
,,613fda883d650eff1765cd31,2022-09-08_18h21.27.782,CGTgamblingSpanTasks,2022.2.1,Win32,59.38594928,,,,,,,,2.6675,,,,,,,,,,,,,,2,n,1.3325,13.1,1,4.1675,1.5,0,38,38,44,1,13.1,7.73,4.68,1,,,,,,,,,,,,,,,,,,,,,,,,,,,,,,,,,,,,,,,,,,,,,,,,,,,,,,,,,,,,,,,,,,,,,,,,,,,,,,,,,,,,,,,,,,,,,,,,,,
,,613fda883d650eff1765cd31,2022-09-08_18h21.27.782,CGTgamblingSpanTasks,2022.2.1,Win32,59.38594928,,,,,,,,2.245,,,,,,,,,,,,,,2,v,1.755,9.87,0,3.745,1.5,0,39,39,29,1,16.26,0,9.87,0,,,,,,,,,,,,,,,,,,,,,,,,,,,,,,,,,,,,,,,,,,,,,,,,,,,,,,,,,,,,,,,,,,,,,,,,,,,,,,,,,,,,,,,,,,,,,,,,,,
,,613fda883d650eff1765cd31,2022-09-08_18h21.27.782,CGTgamblingSpanTasks,2022.2.1,Win32,59.38594928,,,,,,,,3.0982,,,,,,,,,,,,,,1,v,0.9018,20.53,1,4.0982,1,0,40,40,9,1,20.53,0,7.73,0,,,,,,,,,,,,,,,,,,,,,,,,,,,,,,,,,,,,,,,,,,,,,,,,,,,,,,,,,,,,,,,,,,,,,,,,,,,,,,,,,,,,,,,,,,,,,,,,,,
,,613fda883d650eff1765cd31,2022-09-08_18h21.27.782,CGTgamblingSpanTasks,2022.2.1,Win32,59.38594928,,,,,,,,2.4932,,,,,,,,,,,,,,2,n,1.5068,6.99,1,3.9932,1.5,0,41,41,43,1,16.11,6.99,6.99,1,,,,,,,,,,,,,,,,,,,,,,,,,,,,,,,,,,,,,,,,,,,,,,,,,,,,,,,,,,,,,,,,,,,,,,,,,,,,,,,,,,,,,,,,,,,,,,,,,,
,,613fda883d650eff1765cd31,2022-09-08_18h21.27.782,CGTgamblingSpanTasks,2022.2.1,Win32,59.38594928,,,,,,,,2.8197,,,,,,,,,,,,,,2,n,1.1803,0,1,3.8197,1,0,42,42,5,1,22.97,0,6.51,0,,,,,,,,,,,,,,,,,,,,,,,,,,,,,,,,,,,,,,,,,,,,,,,,,,,,,,,,,,,,,,,,,,,,,,,,,,,,,,,,,,,,,,,,,,,,,,,,,,
,,613fda883d650eff1765cd31,2022-09-08_18h21.27.782,CGTgamblingSpanTasks,2022.2.1,Win32,59.38594928,,,,,,,,2.907,,,,,,,,,,,,,,2,v,1.093,10.27,0,4.407,1.5,0,43,43,35,1,15.47,0,10.27,0,,,,,,,,,,,,,,,,,,,,,,,,,,,,,,,,,,,,,,,,,,,,,,,,,,,,,,,,,,,,,,,,,,,,,,,,,,,,,,,,,,,,,,,,,,,,,,,,,,
,,613fda883d650eff1765cd31,2022-09-08_18h21.27.782,CGTgamblingSpanTasks,2022.2.1,Win32,59.38594928,,,,,,,,2.8616,,,,,,,,,,,,,,2,v,1.1384,10.02,0,4.3616,1.5,0,44,44,31,1,15.96,0,10.02,0,,,,,,,,,,,,,,,,,,,,,,,,,,,,,,,,,,,,,,,,,,,,,,,,,,,,,,,,,,,,,,,,,,,,,,,,,,,,,,,,,,,,,,,,,,,,,,,,,,
,,613fda883d650eff1765cd31,2022-09-08_18h21.27.782,CGTgamblingSpanTasks,2022.2.1,Win32,59.38594928,,,,,,,,3.1063,,,,,,,,,,,,,,1,v,0.8937,16,1,4.6063,1.5,0,45,45,4,1,16,0,4,0,,,,,,,,,,,,,,,,,,,,,,,,,,,,,,,,,,,,,,,,,,,,,,,,,,,,,,,,,,,,,,,,,,,,,,,,,,,,,,,,,,,,,,,,,,,,,,,,,,
,,613fda883d650eff1765cd31,2022-09-08_18h21.27.782,CGTgamblingSpanTasks,2022.2.1,Win32,59.38594928,,,,,,,,3.124,,,,,,,,,,,,,,1,n,0.876,10.37,0,4.124,1,0,46,46,37,1,15.27,0,10.37,0,,,,,,,,,,,,,,,,,,,,,,,,,,,,,,,,,,,,,,,,,,,,,,,,,,,,,,,,,,,,,,,,,,,,,,,,,,,,,,,,,,,,,,,,,,,,,,,,,,
,,613fda883d650eff1765cd31,2022-09-08_18h21.27.782,CGTgamblingSpanTasks,2022.2.1,Win32,59.38594928,,,,,,,,2.6703,,,,,,,,,,,,,,2,n,1.3297,0,1,3.6703,1,0,47,47,18,1,12.08,0,5.96,0,,,,,,,,,,,,,,,,,,,,,,,,,,,,,,,,,,,,,,,,,,,,,,,,,,,,,,,,,,,,,,,,,,,,,,,,,,,,,,,,,,,,,,,,,,,,,,,,,,
,,613fda883d650eff1765cd31,2022-09-08_18h21.27.782,CGTgamblingSpanTasks,2022.2.1,Win32,59.38594928,,,,,,,,3.07,,,,,,,,,,,,,,2,v,0.93,6.88,0,4.57,1.5,0,48,48,36,1,10.24,0,6.88,0,,,,,,,,,,,,,,,,,,,,,,,,,,,,,,,,,,,,,,,,,,,,,,,,,,,,,,,,,,,,,,,,,,,,,,,,,,,,,,,,,,,,,,,,,,,,,,,,,,
,,613fda883d650eff1765cd31,2022-09-08_18h21.27.782,CGTgamblingSpanTasks,2022.2.1,Win32,59.38594928,,,,,,,,2.853,,,,,,,,,,,,,,2,n,1.147,0,1,3.853,1,0,49,49,7,1,21.32,0,7.34,0,,,,,,,,,,,,,,,,,,,,,,,,,,,,,,,,,,,,,,,,,,,,,,,,,,,,,,,,,,,,,,,,,,,,,,,,,,,,,,,,,,,,,,,,,,,,,,,,,,
,,613fda883d650eff1765cd31,2022-09-08_18h21.27.782,CGTgamblingSpanTasks,2022.2.1,Win32,59.38594928,,,,,,,,,,,,,,,,,,,,,,,,,,,,,,,,,,,,,,bespoke_choiceset_rhoInd100_muInd146.csv,bespoke_choicesets/bespoke_choiceset_rhoInd100_muInd146.csv,100,146,0,0,0,0,1,,,,,,,,,,,,,,,,,,,,,,,,,,,,,,,,,,,,,,,,,,,,,,,,,,,,,,,,,,,,,,,,,,,,,,,,,,,,,,,,,,,,,,,,,
,,613fda883d650eff1765cd31,2022-09-08_18h21.27.782,CGTgamblingSpanTasks,2022.2.1,Win32,59.38594928,,,,,,,,,,,,,,,,,,,,,,,,,,,,,,,,,,,,,,,,,,,,,,,,,,,,,,,,,,,,,,,,,,,,,,,,,,,,,,,,,,,,,,,,,,,,,,,,,,,,,,,,,,,,,,,,,,,,,,,,,,,,,,,,,,,,,,,
,,613fda883d650eff1765cd31,2022-09-08_18h21.27.782,CGTgamblingSpanTasks,2022.2.1,Win32,59.38594928,,,,,,,,,,,,,,,,,,,,,,,,,,,,,,,,,,,,,,,,,,,,,,,v,21.9444,,,,,,,,,,,,,,,,,,,,,,,,,,,,,,,,,,,,,,,,,,,,,,,,,,,,,,,,,,,,,,,,,,,,,,,,,,,,,,,,,,,,,,,
,,613fda883d650eff1765cd31,2022-09-08_18h21.27.782,CGTgamblingSpanTasks,2022.2.1,Win32,59.38594928,,,,,,,,3.0028,,,,,,,,,,,,,,1,v,0.9972,0,1,4.0028,1,,,,,,29.76099779,0,0.095763086,,,,,,,,,,,,,0,0,0,35,1,0.904537896,0,,,,,,,,,,,,,,,,,,,,,,,,,,,,,,,,,,,,,,,,,,,,,,,,,,,,,,,,,,,,,,,,,,,,,,,,,,,,,,,,
,,613fda883d650eff1765cd31,2022-09-08_18h21.27.782,CGTgamblingSpanTasks,2022.2.1,Win32,59.38594928,,,,,,,,2.6564,,,,,,,,,,,,,,2,v,1.3436,3.877530383,0,3.6564,1,,,,,,3.471484939,0,3.877530383,,,,,,,,,,,,,0,1,1,40,1,0.02623078,0,,,,,,,,,,,,,,,,,,,,,,,,,,,,,,,,,,,,,,,,,,,,,,,,,,,,,,,,,,,,,,,,,,,,,,,,,,,,,,,,
,,613fda883d650eff1765cd31,2022-09-08_18h21.27.782,CGTgamblingSpanTasks,2022.2.1,Win32,59.38594928,,,,,,,,3.1508,,,,,,,,,,,,,,1,v,0.8492,0,1,4.1508,1,,,,,,17.5608285,0,1.825111303,,,,,,,,,,,,,0,2,2,104,1,0.487721116,1,,,,,,,,,,,,,,,,,,,,,,,,,,,,,,,,,,,,,,,,,,,,,,,,,,,,,,,,,,,,,,,,,,,,,,,,,,,,,,,,
,,613fda883d650eff1765cd31,2022-09-08_18h21.27.782,CGTgamblingSpanTasks,2022.2.1,Win32,59.38594928,,,,,,,,2.4988,,,,,,,,,,,,,,2,v,1.5012,4.251676631,0,3.4988,1,,,,,,3.395192929,0,4.251676631,,,,,,,,,,,,,0,3,3,7,1,0.023467153,0,,,,,,,,,,,,,,,,,,,,,,,,,,,,,,,,,,,,,,,,,,,,,,,,,,,,,,,,,,,,,,,,,,,,,,,,,,,,,,,,
,,613fda883d650eff1765cd31,2022-09-08_18h21.27.782,CGTgamblingSpanTasks,2022.2.1,Win32,59.38594928,,,,,,,,3.1264,,,,,,,,,,,,,,1,v,0.8736,0,1,4.6264,1.5,,,,,,21.46599803,0,0.059789256,,,,,,,,,,,,,0,4,4,8,1,0.909019081,0,,,,,,,,,,,,,,,,,,,,,,,,,,,,,,,,,,,,,,,,,,,,,,,,,,,,,,,,,,,,,,,,,,,,,,,,,,,,,,,,
,,613fda883d650eff1765cd31,2022-09-08_18h21.27.782,CGTgamblingSpanTasks,2022.2.1,Win32,59.38594928,,,,,,,,2.5621,,,,,,,,,,,,,,2,v,1.4379,11.35147481,0,3.5621,1,,,,,,17.67865084,0,11.35147481,,,,,,,,,,,,,0,5,5,91,1,0.067304606,0,,,,,,,,,,,,,,,,,,,,,,,,,,,,,,,,,,,,,,,,,,,,,,,,,,,,,,,,,,,,,,,,,,,,,,,,,,,,,,,,
,,613fda883d650eff1765cd31,2022-09-08_18h21.27.782,CGTgamblingSpanTasks,2022.2.1,Win32,59.38594928,,,,,,,,2.9935,,,,,,,,,,,,,,1,v,1.0065,0,1,4.4935,1.5,,,,,,28.9323758,0,2.893007023,,,,,,,,,,,,,0,6,6,11,1,0.497943321,1,,,,,,,,,,,,,,,,,,,,,,,,,,,,,,,,,,,,,,,,,,,,,,,,,,,,,,,,,,,,,,,,,,,,,,,,,,,,,,,,
,,613fda883d650eff1765cd31,2022-09-08_18h21.27.782,CGTgamblingSpanTasks,2022.2.1,Win32,59.38594928,,,,,,,,3.2181,,,,,,,,,,,,,,1,v,0.7819,0,1,4.7181,1.5,,,,,,23.0613391,0,2.387726776,,,,,,,,,,,,,0,7,7,69,1,0.488727763,1,,,,,,,,,,,,,,,,,,,,,,,,,,,,,,,,,,,,,,,,,,,,,,,,,,,,,,,,,,,,,,,,,,,,,,,,,,,,,,,,
,,613fda883d650eff1765cd31,2022-09-08_18h21.27.782,CGTgamblingSpanTasks,2022.2.1,Win32,59.38594928,,,,,,,,3.0069,,,,,,,,,,,,,,2,n,0.9931,11.16819157,1,4.0069,1,,,,,,11.16819157,0,0.941456753,,,,,,,,,,,,,0,8,8,45,1,0.54163803,1,,,,,,,,,,,,,,,,,,,,,,,,,,,,,,,,,,,,,,,,,,,,,,,,,,,,,,,,,,,,,,,,,,,,,,,,,,,,,,,,
,,613fda883d650eff1765cd31,2022-09-08_18h21.27.782,CGTgamblingSpanTasks,2022.2.1,Win32,59.38594928,,,,,,,,2.737,,,,,,,,,,,,,,2,n,1.263,25.56803059,1,4.237,1.5,,,,,,25.56803059,0,2.543951743,,,,,,,,,,,,,0,9,9,41,1,0.499247217,1,,,,,,,,,,,,,,,,,,,,,,,,,,,,,,,,,,,,,,,,,,,,,,,,,,,,,,,,,,,,,,,,,,,,,,,,,,,,,,,,
,,613fda883d650eff1765cd31,2022-09-08_18h21.27.782,CGTgamblingSpanTasks,2022.2.1,Win32,59.38594928,,,,,,,,2.8705,,,,,,,,,,,,,,2,n,1.1295,23.4214135,1,4.3705,1.5,,,,,,23.4214135,0,2.485985001,,,,,,,,,,,,,0,10,10,81,1,0.482105905,1,,,,,,,,,,,,,,,,,,,,,,,,,,,,,,,,,,,,,,,,,,,,,,,,,,,,,,,,,,,,,,,,,,,,,,,,,,,,,,,,
,,613fda883d650eff1765cd31,2022-09-08_18h21.27.782,CGTgamblingSpanTasks,2022.2.1,Win32,59.38594928,,,,,,,,2.4043,,,,,,,,,,,,,,2,n,1.5957,17.64114152,1,3.9043,1.5,,,,,,17.64114152,0,10.68505773,,,,,,,,,,,,,0,11,11,98,1,0.074299362,0,,,,,,,,,,,,,,,,,,,,,,,,,,,,,,,,,,,,,,,,,,,,,,,,,,,,,,,,,,,,,,,,,,,,,,,,,,,,,,,,
,,613fda883d650eff1765cd31,2022-09-08_18h21.27.782,CGTgamblingSpanTasks,2022.2.1,Win32,59.38594928,,,,,,,,2.9372,,,,,,,,,,,,,,2,n,1.0628,0,1,3.9372,1,,,,,,19.3050342,0,2.030232342,,,,,,,,,,,,,0,12,12,73,1,0.484573227,1,,,,,,,,,,,,,,,,,,,,,,,,,,,,,,,,,,,,,,,,,,,,,,,,,,,,,,,,,,,,,,,,,,,,,,,,,,,,,,,,
,,613fda883d650eff1765cd31,2022-09-08_18h21.27.782,CGTgamblingSpanTasks,2022.2.1,Win32,59.38594928,,,,,,,,3.055,,,,,,,,,,,,,,2,v,0.945,6.833409611,0,4.055,1,,,,,,6.325091157,0,6.833409611,,,,,,,,,,,,,0,13,13,58,1,0.027113638,0,,,,,,,,,,,,,,,,,,,,,,,,,,,,,,,,,,,,,,,,,,,,,,,,,,,,,,,,,,,,,,,,,,,,,,,,,,,,,,,,
,,613fda883d650eff1765cd31,2022-09-08_18h21.27.782,CGTgamblingSpanTasks,2022.2.1,Win32,59.38594928,,,,,,,,3.1006,,,,,,,,,,,,,,2,n,0.8994,0,1,4.6006,1.5,,,,,,26.11188619,0,0.081942421,,,,,,,,,,,,,0,14,14,105,1,0.905343856,0,,,,,,,,,,,,,,,,,,,,,,,,,,,,,,,,,,,,,,,,,,,,,,,,,,,,,,,,,,,,,,,,,,,,,,,,,,,,,,,,
,,613fda883d650eff1765cd31,2022-09-08_18h21.27.782,CGTgamblingSpanTasks,2022.2.1,Win32,59.38594928,,,,,,,,2.7559,,,,,,,,,,,,,,2,v,1.2441,8.653432553,0,3.7559,1,,,,,,15.13999312,0,8.653432553,,,,,,,,,,,,,0,15,15,54,1,0.081767484,0,,,,,,,,,,,,,,,,,,,,,,,,,,,,,,,,,,,,,,,,,,,,,,,,,,,,,,,,,,,,,,,,,,,,,,,,,,,,,,,,
,,613fda883d650eff1765cd31,2022-09-08_18h21.27.782,CGTgamblingSpanTasks,2022.2.1,Win32,59.38594928,,,,,,,,3.2522,,,,,,,,,,,,,,1,v,0.7478,0,1,4.2522,1,,,,,,28.68598705,0,0.050674956,,,,,,,,,,,,,0,16,16,62,1,0.920905497,0,,,,,,,,,,,,,,,,,,,,,,,,,,,,,,,,,,,,,,,,,,,,,,,,,,,,,,,,,,,,,,,,,,,,,,,,,,,,,,,,
,,613fda883d650eff1765cd31,2022-09-08_18h21.27.782,CGTgamblingSpanTasks,2022.2.1,Win32,59.38594928,,,,,,,,3.1224,,,,,,,,,,,,,,2,n,0.8776,0,1,4.1224,1,,,,,,24.66627941,0,2.765426402,,,,,,,,,,,,,0,17,17,24,1,0.467360588,1,,,,,,,,,,,,,,,,,,,,,,,,,,,,,,,,,,,,,,,,,,,,,,,,,,,,,,,,,,,,,,,,,,,,,,,,,,,,,,,,
,,613fda883d650eff1765cd31,2022-09-08_18h21.27.782,CGTgamblingSpanTasks,2022.2.1,Win32,59.38594928,,,,,,,,2.9813,,,,,,,,,,,,,,1,v,1.0187,0,1,4.4813,1.5,,,,,,27.7711693,0,2.320849632,,,,,,,,,,,,,0,18,18,94,1,0.543786368,1,,,,,,,,,,,,,,,,,,,,,,,,,,,,,,,,,,,,,,,,,,,,,,,,,,,,,,,,,,,,,,,,,,,,,,,,,,,,,,,,
,,613fda883d650eff1765cd31,2022-09-08_18h21.27.782,CGTgamblingSpanTasks,2022.2.1,Win32,59.38594928,,,,,,,,2.7735,,,,,,,,,,,,,,1,n,1.2265,4.904872644,0,4.2735,1.5,,,,,,4.698775357,0,4.904872644,,,,,,,,,,,,,0,19,19,75,1,0.028064484,0,,,,,,,,,,,,,,,,,,,,,,,,,,,,,,,,,,,,,,,,,,,,,,,,,,,,,,,,,,,,,,,,,,,,,,,,,,,,,,,,
,,613fda883d650eff1765cd31,2022-09-08_18h21.27.782,CGTgamblingSpanTasks,2022.2.1,Win32,59.38594928,,,,,,,,3.0905,,,,,,,,,,,,,,1,v,0.9095,0,1,4.0905,1,,,,,,21.2188881,0,2.067660742,,,,,,,,,,,,,0,20,20,107,1,0.50470775,1,,,,,,,,,,,,,,,,,,,,,,,,,,,,,,,,,,,,,,,,,,,,,,,,,,,,,,,,,,,,,,,,,,,,,,,,,,,,,,,,
,,613fda883d650eff1765cd31,2022-09-08_18h21.27.782,CGTgamblingSpanTasks,2022.2.1,Win32,59.38594928,,,,,,,,3.1382,,,,,,,,,,,,,,1,v,0.8618,0,1,4.1382,1,,,,,,22.0050376,0,2.257683666,,,,,,,,,,,,,0,21,21,4,1,0.491147312,1,,,,,,,,,,,,,,,,,,,,,,,,,,,,,,,,,,,,,,,,,,,,,,,,,,,,,,,,,,,,,,,,,,,,,,,,,,,,,,,,
,,613fda883d650eff1765cd31,2022-09-08_18h21.27.782,CGTgamblingSpanTasks,2022.2.1,Win32,59.38594928,,,,,,,,2.9766,,,,,,,,,,,,,,2,n,1.0234,0,1,4.4766,1.5,,,,,,17.92584289,0,1.878232496,,,,,,,,,,,,,0,22,22,5,1,0.485559263,1,,,,,,,,,,,,,,,,,,,,,,,,,,,,,,,,,,,,,,,,,,,,,,,,,,,,,,,,,,,,,,,,,,,,,,,,,,,,,,,,
,,613fda883d650eff1765cd31,2022-09-08_18h21.27.782,CGTgamblingSpanTasks,2022.2.1,Win32,59.38594928,,,,,,,,2.5989,,,,,,,,,,,,,,1,v,1.4011,8.670591867,1,4.0989,1.5,,,,,,8.670591867,0,1.025847652,,,,,,,,,,,,,0,23,23,18,1,0.452680459,1,,,,,,,,,,,,,,,,,,,,,,,,,,,,,,,,,,,,,,,,,,,,,,,,,,,,,,,,,,,,,,,,,,,,,,,,,,,,,,,,
,,613fda883d650eff1765cd31,2022-09-08_18h21.27.782,CGTgamblingSpanTasks,2022.2.1,Win32,59.38594928,,,,,,,,3.0616,,,,,,,,,,,,,,2,n,0.9384,13.4287264,1,4.0616,1,,,,,,13.4287264,0,1.317368801,,,,,,,,,,,,,0,24,24,100,1,0.502953125,1,,,,,,,,,,,,,,,,,,,,,,,,,,,,,,,,,,,,,,,,,,,,,,,,,,,,,,,,,,,,,,,,,,,,,,,,,,,,,,,,
,,613fda883d650eff1765cd31,2022-09-08_18h21.27.782,CGTgamblingSpanTasks,2022.2.1,Win32,59.38594928,,,,,,,,2.7641,,,,,,,,,,,,,,1,v,1.2359,28.94627214,1,4.2641,1.5,,,,,,28.94627214,0,2.701896413,,,,,,,,,,,,,0,25,25,111,1,0.515860759,1,,,,,,,,,,,,,,,,,,,,,,,,,,,,,,,,,,,,,,,,,,,,,,,,,,,,,,,,,,,,,,,,,,,,,,,,,,,,,,,,
,,613fda883d650eff1765cd31,2022-09-08_18h21.27.782,CGTgamblingSpanTasks,2022.2.1,Win32,59.38594928,,,,,,,,3.104,,,,,,,,,,,,,,2,n,0.896,0,1,4.104,1,,,,,,13.96521039,0,1.591282699,,,,,,,,,,,,,0,26,26,49,1,0.462956344,1,,,,,,,,,,,,,,,,,,,,,,,,,,,,,,,,,,,,,,,,,,,,,,,,,,,,,,,,,,,,,,,,,,,,,,,,,,,,,,,,
,,613fda883d650eff1765cd31,2022-09-08_18h21.27.782,CGTgamblingSpanTasks,2022.2.1,Win32,59.38594928,,,,,,,,3.0677,,,,,,,,,,,,,,1,v,0.9323,0,1,4.0677,1,,,,,,27.37527992,0,2.860319095,,,,,,,,,,,,,0,27,27,39,1,0.486304156,1,,,,,,,,,,,,,,,,,,,,,,,,,,,,,,,,,,,,,,,,,,,,,,,,,,,,,,,,,,,,,,,,,,,,,,,,,,,,,,,,
,,613fda883d650eff1765cd31,2022-09-08_18h21.27.782,CGTgamblingSpanTasks,2022.2.1,Win32,59.38594928,,,,,,,,3.0894,,,,,,,,,,,,,,1,v,0.9106,17.4320197,1,4.5894,1.5,,,,,,17.4320197,0,1.448620949,,,,,,,,,,,,,0,28,28,30,1,0.545178213,1,,,,,,,,,,,,,,,,,,,,,,,,,,,,,,,,,,,,,,,,,,,,,,,,,,,,,,,,,,,,,,,,,,,,,,,,,,,,,,,,
,,613fda883d650eff1765cd31,2022-09-08_18h21.27.782,CGTgamblingSpanTasks,2022.2.1,Win32,59.38594928,,,,,,,,2.4824,,,,,,,,,,,,,,2,v,1.5176,10.41201161,0,3.4824,1,,,,,,6.307062696,0,10.41201161,,,,,,,,,,,,,0,29,29,23,1,0.018187109,0,,,,,,,,,,,,,,,,,,,,,,,,,,,,,,,,,,,,,,,,,,,,,,,,,,,,,,,,,,,,,,,,,,,,,,,,,,,,,,,,
,,613fda883d650eff1765cd31,2022-09-08_18h21.27.782,CGTgamblingSpanTasks,2022.2.1,Win32,59.38594928,,,,,,,,2.8362,,,,,,,,,,,,,,1,v,1.1638,20.31034258,1,4.3362,1.5,,,,,,20.31034258,0,1.870404296,,,,,,,,,,,,,0,30,30,85,1,0.519325853,1,,,,,,,,,,,,,,,,,,,,,,,,,,,,,,,,,,,,,,,,,,,,,,,,,,,,,,,,,,,,,,,,,,,,,,,,,,,,,,,,
,,613fda883d650eff1765cd31,2022-09-08_18h21.27.782,CGTgamblingSpanTasks,2022.2.1,Win32,59.38594928,,,,,,,,2.474,,,,,,,,,,,,,,2,n,1.526,17.85020524,1,3.974,1.5,,,,,,17.85020524,0,2.058701084,,,,,,,,,,,,,0,31,31,25,1,0.459662216,1,,,,,,,,,,,,,,,,,,,,,,,,,,,,,,,,,,,,,,,,,,,,,,,,,,,,,,,,,,,,,,,,,,,,,,,,,,,,,,,,
,,613fda883d650eff1765cd31,2022-09-08_18h21.27.782,CGTgamblingSpanTasks,2022.2.1,Win32,59.38594928,,,,,,,,2.3362,,,,,,,,,,,,,,2,v,1.6638,8.830252162,0,3.8362,1.5,,,,,,15.73000491,0,8.830252162,,,,,,,,,,,,,0,32,32,95,1,0.084193143,0,,,,,,,,,,,,,,,,,,,,,,,,,,,,,,,,,,,,,,,,,,,,,,,,,,,,,,,,,,,,,,,,,,,,,,,,,,,,,,,,
,,613fda883d650eff1765cd31,2022-09-08_18h21.27.782,CGTgamblingSpanTasks,2022.2.1,Win32,59.38594928,,,,,,,,2.407,,,,,,,,,,,,,,2,v,1.593,7.646213173,0,3.907,1.5,,,,,,2.042350179,0,7.646213173,,,,,,,,,,,,,0,33,33,53,1,0.009522273,0,,,,,,,,,,,,,,,,,,,,,,,,,,,,,,,,,,,,,,,,,,,,,,,,,,,,,,,,,,,,,,,,,,,,,,,,,,,,,,,,
,,613fda883d650eff1765cd31,2022-09-08_18h21.27.782,CGTgamblingSpanTasks,2022.2.1,Win32,59.38594928,,,,,,,,1.8361,,,,,,,,,,,,,,2,n,2.1639,27.88092897,1,2.8361,1,,,,,,27.88092897,0,2.771762788,,,,,,,,,,,,,0,34,34,117,1,0.499466648,1,,,,,,,,,,,,,,,,,,,,,,,,,,,,,,,,,,,,,,,,,,,,,,,,,,,,,,,,,,,,,,,,,,,,,,,,,,,,,,,,
,,613fda883d650eff1765cd31,2022-09-08_18h21.27.782,CGTgamblingSpanTasks,2022.2.1,Win32,59.38594928,,,,,,,,2.9236,,,,,,,,,,,,,,2,n,1.0764,0,1,3.9236,1,,,,,,28.14876717,0,3.117906378,,,,,,,,,,,,,0,35,35,76,1,0.470636736,1,,,,,,,,,,,,,,,,,,,,,,,,,,,,,,,,,,,,,,,,,,,,,,,,,,,,,,,,,,,,,,,,,,,,,,,,,,,,,,,,
,,613fda883d650eff1765cd31,2022-09-08_18h21.27.782,CGTgamblingSpanTasks,2022.2.1,Win32,59.38594928,,,,,,,,2.987,,,,,,,,,,,,,,2,n,1.013,0,1,3.987,1,,,,,,27.60724521,0,0.088432325,,,,,,,,,,,,,0,36,36,17,1,0.904684186,0,,,,,,,,,,,,,,,,,,,,,,,,,,,,,,,,,,,,,,,,,,,,,,,,,,,,,,,,,,,,,,,,,,,,,,,,,,,,,,,,
,,613fda883d650eff1765cd31,2022-09-08_18h21.27.782,CGTgamblingSpanTasks,2022.2.1,Win32,59.38594928,,,,,,,,2.9166,,,,,,,,,,,,,,2,n,1.0834,22.62475578,1,4.4166,1.5,,,,,,22.62475578,0,2.397643354,,,,,,,,,,,,,0,37,37,93,1,0.482527609,1,,,,,,,,,,,,,,,,,,,,,,,,,,,,,,,,,,,,,,,,,,,,,,,,,,,,,,,,,,,,,,,,,,,,,,,,,,,,,,,,
,,613fda883d650eff1765cd31,2022-09-08_18h21.27.782,CGTgamblingSpanTasks,2022.2.1,Win32,59.38594928,,,,,,,,2.5396,,,,,,,,,,,,,,1,n,1.4604,8.512335864,0,3.5396,1,,,,,,10.05300841,0,8.512335864,,,,,,,,,,,,,0,38,38,74,1,0.040729225,0,,,,,,,,,,,,,,,,,,,,,,,,,,,,,,,,,,,,,,,,,,,,,,,,,,,,,,,,,,,,,,,,,,,,,,,,,,,,,,,,
,,613fda883d650eff1765cd31,2022-09-08_18h21.27.782,CGTgamblingSpanTasks,2022.2.1,Win32,59.38594928,,,,,,,,2.8831,,,,,,,,,,,,,,2,n,1.1169,0,1,4.3831,1.5,,,,,,22.72923833,0,0.067170781,,,,,,,,,,,,,0,39,39,86,1,0.907226703,0,,,,,,,,,,,,,,,,,,,,,,,,,,,,,,,,,,,,,,,,,,,,,,,,,,,,,,,,,,,,,,,,,,,,,,,,,,,,,,,,
,,613fda883d650eff1765cd31,2022-09-08_18h21.27.782,CGTgamblingSpanTasks,2022.2.1,Win32,59.38594928,,,,,,,,2.7662,,,,,,,,,,,,,,2,n,1.2338,28.18900855,1,4.2662,1.5,,,,,,28.18900855,0,0.05384276,,,,,,,,,,,,,0,40,40,55,1,0.919081308,0,,,,,,,,,,,,,,,,,,,,,,,,,,,,,,,,,,,,,,,,,,,,,,,,,,,,,,,,,,,,,,,,,,,,,,,,,,,,,,,,
,,613fda883d650eff1765cd31,2022-09-08_18h21.27.782,CGTgamblingSpanTasks,2022.2.1,Win32,59.38594928,,,,,,,,2.7239,,,,,,,,,,,,,,2,n,1.2761,9.012590634,1,3.7239,1,,,,,,9.012590634,0,1.002188111,,,,,,,,,,,,,0,41,41,12,1,0.46958041,1,,,,,,,,,,,,,,,,,,,,,,,,,,,,,,,,,,,,,,,,,,,,,,,,,,,,,,,,,,,,,,,,,,,,,,,,,,,,,,,,
,,613fda883d650eff1765cd31,2022-09-08_18h21.27.782,CGTgamblingSpanTasks,2022.2.1,Win32,59.38594928,,,,,,,,2.4253,,,,,,,,,,,,,,1,n,1.5747,10.31611309,0,3.9253,1.5,,,,,,19.30622782,0,10.31611309,,,,,,,,,,,,,0,42,42,1,1,0.091105656,0,,,,,,,,,,,,,,,,,,,,,,,,,,,,,,,,,,,,,,,,,,,,,,,,,,,,,,,,,,,,,,,,,,,,,,,,,,,,,,,,
,,613fda883d650eff1765cd31,2022-09-08_18h21.27.782,CGTgamblingSpanTasks,2022.2.1,Win32,59.38594928,,,,,,,,2.7895,,,,,,,,,,,,,,1,v,1.2105,26.16821818,1,3.7895,1,,,,,,26.16821818,0,0.093528069,,,,,,,,,,,,,0,43,43,42,1,0.901022427,0,,,,,,,,,,,,,,,,,,,,,,,,,,,,,,,,,,,,,,,,,,,,,,,,,,,,,,,,,,,,,,,,,,,,,,,,,,,,,,,,
,,613fda883d650eff1765cd31,2022-09-08_18h21.27.782,CGTgamblingSpanTasks,2022.2.1,Win32,59.38594928,,,,,,,,2.9245,,,,,,,,,,,,,,1,v,1.0755,29.77342428,1,3.9245,1,,,,,,29.77342428,0,2.838865588,,,,,,,,,,,,,0,44,44,57,1,0.510363415,1,,,,,,,,,,,,,,,,,,,,,,,,,,,,,,,,,,,,,,,,,,,,,,,,,,,,,,,,,,,,,,,,,,,,,,,,,,,,,,,,
,,613fda883d650eff1765cd31,2022-09-08_18h21.27.782,CGTgamblingSpanTasks,2022.2.1,Win32,59.38594928,,,,,,,,3.1001,,,,,,,,,,,,,,1,v,0.8999,24.8002852,1,4.1001,1,,,,,,24.8002852,0,0.071848086,,,,,,,,,,,,,0,45,45,16,1,0.90783559,0,,,,,,,,,,,,,,,,,,,,,,,,,,,,,,,,,,,,,,,,,,,,,,,,,,,,,,,,,,,,,,,,,,,,,,,,,,,,,,,,
,,613fda883d650eff1765cd31,2022-09-08_18h21.27.782,CGTgamblingSpanTasks,2022.2.1,Win32,59.38594928,,,,,,,,2.4035,,,,,,,,,,,,,,2,n,1.5965,25.26994993,1,3.4035,1,,,,,,25.26994993,0,2.78925142,,,,,,,,,,,,,0,46,46,108,1,0.471582922,1,,,,,,,,,,,,,,,,,,,,,,,,,,,,,,,,,,,,,,,,,,,,,,,,,,,,,,,,,,,,,,,,,,,,,,,,,,,,,,,,
,,613fda883d650eff1765cd31,2022-09-08_18h21.27.782,CGTgamblingSpanTasks,2022.2.1,Win32,59.38594928,,,,,,,,3.1237,,,,,,,,,,,,,,1,v,0.8763,0,1,4.1237,1,,,,,,23.59556381,0,2.464662219,,,,,,,,,,,,,0,47,47,22,1,0.486383205,1,,,,,,,,,,,,,,,,,,,,,,,,,,,,,,,,,,,,,,,,,,,,,,,,,,,,,,,,,,,,,,,,,,,,,,,,,,,,,,,,
,,613fda883d650eff1765cd31,2022-09-08_18h21.27.782,CGTgamblingSpanTasks,2022.2.1,Win32,59.38594928,,,,,,,,2.835,,,,,,,,,,,,,,1,n,1.165,8.579385201,0,4.335,1.5,,,,,,14.11762686,0,8.579385201,,,,,,,,,,,,,0,48,48,60,1,0.073886959,0,,,,,,,,,,,,,,,,,,,,,,,,,,,,,,,,,,,,,,,,,,,,,,,,,,,,,,,,,,,,,,,,,,,,,,,,,,,,,,,,
,,613fda883d650eff1765cd31,2022-09-08_18h21.27.782,CGTgamblingSpanTasks,2022.2.1,Win32,59.38594928,,,,,,,,3.1822,,,,,,,,,,,,,,1,v,0.8178,0,1,4.1822,1,,,,,,29.30724159,0,3.247012935,,,,,,,,,,,,,0,49,49,71,1,0.470571125,1,,,,,,,,,,,,,,,,,,,,,,,,,,,,,,,,,,,,,,,,,,,,,,,,,,,,,,,,,,,,,,,,,,,,,,,,,,,,,,,,
,,613fda883d650eff1765cd31,2022-09-08_18h21.27.782,CGTgamblingSpanTasks,2022.2.1,Win32,59.38594928,,,,,,,,3.0175,,,,,,,,,,,,,,2,n,0.9825,0,1,4.5175,1.5,,,,,,27.38828234,0,0.0639233,,,,,,,,,,,,,0,50,50,43,1,0.914010176,0,,,,,,,,,,,,,,,,,,,,,,,,,,,,,,,,,,,,,,,,,,,,,,,,,,,,,,,,,,,,,,,,,,,,,,,,,,,,,,,,
,,613fda883d650eff1765cd31,2022-09-08_18h21.27.782,CGTgamblingSpanTasks,2022.2.1,Win32,59.38594928,,,,,,,,2.8228,,,,,,,,,,,,,,2,n,1.1772,9.725876653,1,3.8228,1,,,,,,9.725876653,0,5.526483034,,,,,,,,,,,,,0,51,51,44,1,0.082550696,0,,,,,,,,,,,,,,,,,,,,,,,,,,,,,,,,,,,,,,,,,,,,,,,,,,,,,,,,,,,,,,,,,,,,,,,,,,,,,,,,
,,613fda883d650eff1765cd31,2022-09-08_18h21.27.782,CGTgamblingSpanTasks,2022.2.1,Win32,59.38594928,,,,,,,,3.2155,,,,,,,,,,,,,,1,v,0.7845,22.86604061,1,4.7155,1.5,,,,,,22.86604061,0,2.293289792,,,,,,,,,,,,,0,52,52,51,1,0.49715382,1,,,,,,,,,,,,,,,,,,,,,,,,,,,,,,,,,,,,,,,,,,,,,,,,,,,,,,,,,,,,,,,,,,,,,,,,,,,,,,,,
,,613fda883d650eff1765cd31,2022-09-08_18h21.27.782,CGTgamblingSpanTasks,2022.2.1,Win32,59.38594928,,,,,,,,3.0002,,,,,,,,,,,,,,1,v,0.9998,0,1,4.0002,1,,,,,,23.24777057,0,2.003482335,,,,,,,,,,,,,0,53,53,59,1,0.536135174,1,,,,,,,,,,,,,,,,,,,,,,,,,,,,,,,,,,,,,,,,,,,,,,,,,,,,,,,,,,,,,,,,,,,,,,,,,,,,,,,,
,,613fda883d650eff1765cd31,2022-09-08_18h21.27.782,CGTgamblingSpanTasks,2022.2.1,Win32,59.38594928,,,,,,,,2.9366,,,,,,,,,,,,,,1,v,1.0634,21.48443242,1,3.9366,1,,,,,,21.48443242,0,2.229247341,,,,,,,,,,,,,0,54,54,63,1,0.488155912,1,,,,,,,,,,,,,,,,,,,,,,,,,,,,,,,,,,,,,,,,,,,,,,,,,,,,,,,,,,,,,,,,,,,,,,,,,,,,,,,,
,,613fda883d650eff1765cd31,2022-09-08_18h21.27.782,CGTgamblingSpanTasks,2022.2.1,Win32,59.38594928,,,,,,,,2.9579,,,,,,,,,,,,,,2,n,1.0421,0,1,3.9579,1,,,,,,22.25959835,0,0.065383587,,,,,,,,,,,,,0,55,55,97,1,0.907413875,0,,,,,,,,,,,,,,,,,,,,,,,,,,,,,,,,,,,,,,,,,,,,,,,,,,,,,,,,,,,,,,,,,,,,,,,,,,,,,,,,
,,613fda883d650eff1765cd31,2022-09-08_18h21.27.782,CGTgamblingSpanTasks,2022.2.1,Win32,59.38594928,,,,,,,,3.0315,,,,,,,,,,,,,,2,n,0.9685,27.76752685,1,4.5315,1.5,,,,,,27.76752685,0,0.083968035,,,,,,,,,,,,,0,56,56,13,1,0.906513967,0,,,,,,,,,,,,,,,,,,,,,,,,,,,,,,,,,,,,,,,,,,,,,,,,,,,,,,,,,,,,,,,,,,,,,,,,,,,,,,,,
,,613fda883d650eff1765cd31,2022-09-08_18h21.27.782,CGTgamblingSpanTasks,2022.2.1,Win32,59.38594928,,,,,,,,1.5538,,,,,,,,,,,,,,1,v,2.4462,25.21882231,1,3.0538,1.5,,,,,,25.21882231,0,0.085746782,,,,,,,,,,,,,0,57,57,64,1,0.90272076,0,,,,,,,,,,,,,,,,,,,,,,,,,,,,,,,,,,,,,,,,,,,,,,,,,,,,,,,,,,,,,,,,,,,,,,,,,,,,,,,,
,,613fda883d650eff1765cd31,2022-09-08_18h21.27.782,CGTgamblingSpanTasks,2022.2.1,Win32,59.38594928,,,,,,,,1.3664,,,,,,,,,,,,,,2,n,2.6336,18.16238569,1,2.8664,1.5,,,,,,18.16238569,0,1.540604093,,,,,,,,,,,,,0,58,58,34,1,0.540092491,1,,,,,,,,,,,,,,,,,,,,,,,,,,,,,,,,,,,,,,,,,,,,,,,,,,,,,,,,,,,,,,,,,,,,,,,,,,,,,,,,
,,613fda883d650eff1765cd31,2022-09-08_18h21.27.782,CGTgamblingSpanTasks,2022.2.1,Win32,59.38594928,,,,,,,,1.8441,,,,,,,,,,,,,,1,v,2.1559,7.066129113,1,3.3441,1.5,,,,,,7.066129113,0,0.585581699,,,,,,,,,,,,,0,59,59,19,1,0.545860632,1,,,,,,,,,,,,,,,,,,,,,,,,,,,,,,,,,,,,,,,,,,,,,,,,,,,,,,,,,,,,,,,,,,,,,,,,,,,,,,,,
,,613fda883d650eff1765cd31,2022-09-08_18h21.27.782,CGTgamblingSpanTasks,2022.2.1,Win32,59.38594928,,,,,,,,2.0995,,,,,,,,,,,,,,1,v,1.9005,21.39646914,1,3.5995,1.5,,,,,,21.39646914,0,0.072474078,,,,,,,,,,,,,0,60,60,3,1,0.902848133,0,,,,,,,,,,,,,,,,,,,,,,,,,,,,,,,,,,,,,,,,,,,,,,,,,,,,,,,,,,,,,,,,,,,,,,,,,,,,,,,,
,,613fda883d650eff1765cd31,2022-09-08_18h21.27.782,CGTgamblingSpanTasks,2022.2.1,Win32,59.38594928,,,,,,,,2.6529,,,,,,,,,,,,,,1,v,1.3471,0,1,4.1529,1.5,,,,,,20.97851654,0,11.39288827,,,,,,,,,,,,,0,61,61,2,1,0.088791079,0,,,,,,,,,,,,,,,,,,,,,,,,,,,,,,,,,,,,,,,,,,,,,,,,,,,,,,,,,,,,,,,,,,,,,,,,,,,,,,,,
,,613fda883d650eff1765cd31,2022-09-08_18h21.27.782,CGTgamblingSpanTasks,2022.2.1,Win32,59.38594928,,,,,,,,3.3069,,,,,,,,,,,,,,1,v,0.6931,27.39221343,1,4.8069,1.5,,,,,,27.39221343,0,2.743407746,,,,,,,,,,,,,0,62,62,47,1,0.49752044,1,,,,,,,,,,,,,,,,,,,,,,,,,,,,,,,,,,,,,,,,,,,,,,,,,,,,,,,,,,,,,,,,,,,,,,,,,,,,,,,,
,,613fda883d650eff1765cd31,2022-09-08_18h21.27.782,CGTgamblingSpanTasks,2022.2.1,Win32,59.38594928,,,,,,,,2.8584,,,,,,,,,,,,,,1,v,1.1416,0,1,4.3584,1.5,,,,,,18.50662664,0,0.052546026,,,,,,,,,,,,,0,63,63,112,1,0.908444837,0,,,,,,,,,,,,,,,,,,,,,,,,,,,,,,,,,,,,,,,,,,,,,,,,,,,,,,,,,,,,,,,,,,,,,,,,,,,,,,,,
,,613fda883d650eff1765cd31,2022-09-08_18h21.27.782,CGTgamblingSpanTasks,2022.2.1,Win32,59.38594928,,,,,,,,3.2506,,,,,,,,,,,,,,1,v,0.7494,27.77179191,1,4.2506,1,,,,,,27.77179191,0,0.074524436,,,,,,,,,,,,,0,64,64,99,1,0.910114387,0,,,,,,,,,,,,,,,,,,,,,,,,,,,,,,,,,,,,,,,,,,,,,,,,,,,,,,,,,,,,,,,,,,,,,,,,,,,,,,,,
,,613fda883d650eff1765cd31,2022-09-08_18h21.27.782,CGTgamblingSpanTasks,2022.2.1,Win32,59.38594928,,,,,,,,3.2508,,,,,,,,,,,,,,2,n,0.7492,21.00799273,1,4.2508,1,,,,,,21.00799273,0,0.067969053,,,,,,,,,,,,,0,65,65,92,1,0.904360262,0,,,,,,,,,,,,,,,,,,,,,,,,,,,,,,,,,,,,,,,,,,,,,,,,,,,,,,,,,,,,,,,,,,,,,,,,,,,,,,,,
,,613fda883d650eff1765cd31,2022-09-08_18h21.27.782,CGTgamblingSpanTasks,2022.2.1,Win32,59.38594928,,,,,,,,3.0532,,,,,,,,,,,,,,1,n,0.9468,11.19311486,0,4.5532,1.5,,,,,,8.17598802,0,11.19311486,,,,,,,,,,,,,0,66,66,110,1,0.021568003,0,,,,,,,,,,,,,,,,,,,,,,,,,,,,,,,,,,,,,,,,,,,,,,,,,,,,,,,,,,,,,,,,,,,,,,,,,,,,,,,,
,,613fda883d650eff1765cd31,2022-09-08_18h21.27.782,CGTgamblingSpanTasks,2022.2.1,Win32,59.38594928,,,,,,,,2.5291,,,,,,,,,,,,,,1,v,1.4709,19.5450126,1,4.0291,1.5,,,,,,19.5450126,0,2.123581464,,,,,,,,,,,,,0,67,67,65,1,0.475836144,1,,,,,,,,,,,,,,,,,,,,,,,,,,,,,,,,,,,,,,,,,,,,,,,,,,,,,,,,,,,,,,,,,,,,,,,,,,,,,,,,
,,613fda883d650eff1765cd31,2022-09-08_18h21.27.782,CGTgamblingSpanTasks,2022.2.1,Win32,59.38594928,,,,,,,,0,,,,,,,,,,,,,,2,,,,,1,1,,,,,,19.58698544,0,9.936178001,,,,,,,,,,,,,0,68,68,77,1,0.098812204,0,,,,,,,,,,,,,,,,,,,,,,,,,,,,,,,,,,,,,,,,,,,,,,,,,,,,,,,,,,,,,,,,,,,,,,,,,,,,,,,,
,,613fda883d650eff1765cd31,2022-09-08_18h21.27.782,CGTgamblingSpanTasks,2022.2.1,Win32,59.38594928,,,,,,,,2.7992,,,,,,,,,,,,,,1,n,1.2008,7.50753835,0,4.2992,1.5,,,,,,2.231316635,0,7.50753835,,,,,,,,,,,,,0,69,69,29,1,0.010273427,0,,,,,,,,,,,,,,,,,,,,,,,,,,,,,,,,,,,,,,,,,,,,,,,,,,,,,,,,,,,,,,,,,,,,,,,,,,,,,,,,
,,613fda883d650eff1765cd31,2022-09-08_18h21.27.782,CGTgamblingSpanTasks,2022.2.1,Win32,59.38594928,,,,,,,,2.9456,,,,,,,,,,,,,,1,v,1.0544,0,1,4.4456,1.5,,,,,,7.534278541,0,0.747140182,,,,,,,,,,,,,0,70,70,37,1,0.50012466,1,,,,,,,,,,,,,,,,,,,,,,,,,,,,,,,,,,,,,,,,,,,,,,,,,,,,,,,,,,,,,,,,,,,,,,,,,,,,,,,,
,,613fda883d650eff1765cd31,2022-09-08_18h21.27.782,CGTgamblingSpanTasks,2022.2.1,Win32,59.38594928,,,,,,,,2.9989,,,,,,,,,,,,,,1,v,1.0011,21.17800335,1,4.4989,1.5,,,,,,21.17800335,0,0.059830985,,,,,,,,,,,,,0,71,71,67,1,0.908594974,0,,,,,,,,,,,,,,,,,,,,,,,,,,,,,,,,,,,,,,,,,,,,,,,,,,,,,,,,,,,,,,,,,,,,,,,,,,,,,,,,
,,613fda883d650eff1765cd31,2022-09-08_18h21.27.782,CGTgamblingSpanTasks,2022.2.1,Win32,59.38594928,,,,,,,,3.0569,,,,,,,,,,,,,,1,v,0.9431,0,1,4.5569,1.5,,,,,,21.7711579,0,2.502728921,,,,,,,,,,,,,0,72,72,101,1,0.460552621,1,,,,,,,,,,,,,,,,,,,,,,,,,,,,,,,,,,,,,,,,,,,,,,,,,,,,,,,,,,,,,,,,,,,,,,,,,,,,,,,,
,,613fda883d650eff1765cd31,2022-09-08_18h21.27.782,CGTgamblingSpanTasks,2022.2.1,Win32,59.38594928,,,,,,,,2.9506,,,,,,,,,,,,,,2,n,1.0494,0,1,4.4506,1.5,,,,,,19.36415485,0,1.966229494,,,,,,,,,,,,,0,73,73,96,1,0.493893111,1,,,,,,,,,,,,,,,,,,,,,,,,,,,,,,,,,,,,,,,,,,,,,,,,,,,,,,,,,,,,,,,,,,,,,,,,,,,,,,,,
,,613fda883d650eff1765cd31,2022-09-08_18h21.27.782,CGTgamblingSpanTasks,2022.2.1,Win32,59.38594928,,,,,,,,2.9614,,,,,,,,,,,,,,1,v,1.0386,0,1,3.9614,1,,,,,,21.16780451,0,2.469465385,,,,,,,,,,,,,0,74,74,32,1,0.456531699,1,,,,,,,,,,,,,,,,,,,,,,,,,,,,,,,,,,,,,,,,,,,,,,,,,,,,,,,,,,,,,,,,,,,,,,,,,,,,,,,,
,,613fda883d650eff1765cd31,2022-09-08_18h21.27.782,CGTgamblingSpanTasks,2022.2.1,Win32,59.38594928,,,,,,,,3.2737,,,,,,,,,,,,,,1,v,0.7263,0,1,4.2737,1,,,,,,20.5726842,0,0.073558523,,,,,,,,,,,,,0,75,75,26,1,0.901008565,0,,,,,,,,,,,,,,,,,,,,,,,,,,,,,,,,,,,,,,,,,,,,,,,,,,,,,,,,,,,,,,,,,,,,,,,,,,,,,,,,
,,613fda883d650eff1765cd31,2022-09-08_18h21.27.782,CGTgamblingSpanTasks,2022.2.1,Win32,59.38594928,,,,,,,,2.5077,,,,,,,,,,,,,,2,n,1.4923,8.363821911,1,3.5077,1,,,,,,8.363821911,0,6.781500919,,,,,,,,,,,,,0,76,76,61,1,0.044227959,0,,,,,,,,,,,,,,,,,,,,,,,,,,,,,,,,,,,,,,,,,,,,,,,,,,,,,,,,,,,,,,,,,,,,,,,,,,,,,,,,
,,613fda883d650eff1765cd31,2022-09-08_18h21.27.782,CGTgamblingSpanTasks,2022.2.1,Win32,59.38594928,,,,,,,,3.3225,,,,,,,,,,,,,,2,n,0.6775,27.2532142,1,4.8225,1.5,,,,,,27.2532142,0,0.08089327,,,,,,,,,,,,,0,77,77,119,1,0.907091845,0,,,,,,,,,,,,,,,,,,,,,,,,,,,,,,,,,,,,,,,,,,,,,,,,,,,,,,,,,,,,,,,,,,,,,,,,,,,,,,,,
,,613fda883d650eff1765cd31,2022-09-08_18h21.27.782,CGTgamblingSpanTasks,2022.2.1,Win32,59.38594928,,,,,,,,2.8381,,,,,,,,,,,,,,2,n,1.1619,29.75778644,1,4.3381,1.5,,,,,,29.75778644,0,2.810531415,,,,,,,,,,,,,0,78,78,113,1,0.512824233,1,,,,,,,,,,,,,,,,,,,,,,,,,,,,,,,,,,,,,,,,,,,,,,,,,,,,,,,,,,,,,,,,,,,,,,,,,,,,,,,,
,,613fda883d650eff1765cd31,2022-09-08_18h21.27.782,CGTgamblingSpanTasks,2022.2.1,Win32,59.38594928,,,,,,,,2.8189,,,,,,,,,,,,,,1,v,1.1811,0,1,4.3189,1.5,,,,,,6.662965216,0,6.091504705,,,,,,,,,,,,,0,79,79,102,1,0.035087099,0,,,,,,,,,,,,,,,,,,,,,,,,,,,,,,,,,,,,,,,,,,,,,,,,,,,,,,,,,,,,,,,,,,,,,,,,,,,,,,,,
,,613fda883d650eff1765cd31,2022-09-08_18h21.27.782,CGTgamblingSpanTasks,2022.2.1,Win32,59.38594928,,,,,,,,2.849,,,,,,,,,,,,,,2,v,1.151,11.42134125,0,4.349,1.5,,,,,,12.9904115,0,11.42134125,,,,,,,,,,,,,0,80,80,118,1,0.037876033,0,,,,,,,,,,,,,,,,,,,,,,,,,,,,,,,,,,,,,,,,,,,,,,,,,,,,,,,,,,,,,,,,,,,,,,,,,,,,,,,,
,,613fda883d650eff1765cd31,2022-09-08_18h21.27.782,CGTgamblingSpanTasks,2022.2.1,Win32,59.38594928,,,,,,,,0,,,,,,,,,,,,,,1,,,,,1,1,,,,,,15.21435748,0,10.3417501,,,,,,,,,,,,,0,81,81,72,1,0.060969226,0,,,,,,,,,,,,,,,,,,,,,,,,,,,,,,,,,,,,,,,,,,,,,,,,,,,,,,,,,,,,,,,,,,,,,,,,,,,,,,,,
,,613fda883d650eff1765cd31,2022-09-08_18h21.27.782,CGTgamblingSpanTasks,2022.2.1,Win32,59.38594928,,,,,,,,2.8832,,,,,,,,,,,,,,1,v,1.1168,28.13634754,1,3.8832,1,,,,,,28.13634754,0,2.532806323,,,,,,,,,,,,,0,82,82,28,1,0.525136524,1,,,,,,,,,,,,,,,,,,,,,,,,,,,,,,,,,,,,,,,,,,,,,,,,,,,,,,,,,,,,,,,,,,,,,,,,,,,,,,,,
,,613fda883d650eff1765cd31,2022-09-08_18h21.27.782,CGTgamblingSpanTasks,2022.2.1,Win32,59.38594928,,,,,,,,2.8561,,,,,,,,,,,,,,1,v,1.1439,0,1,4.3561,1.5,,,,,,27.57491653,0,2.99133314,,,,,,,,,,,,,0,83,83,10,1,0.47625893,1,,,,,,,,,,,,,,,,,,,,,,,,,,,,,,,,,,,,,,,,,,,,,,,,,,,,,,,,,,,,,,,,,,,,,,,,,,,,,,,,
,,613fda883d650eff1765cd31,2022-09-08_18h21.27.782,CGTgamblingSpanTasks,2022.2.1,Win32,59.38594928,,,,,,,,2.9873,,,,,,,,,,,,,,1,v,1.0127,25.76582409,1,3.9873,1,,,,,,25.76582409,0,2.393193076,,,,,,,,,,,,,0,84,84,46,1,0.517129855,1,,,,,,,,,,,,,,,,,,,,,,,,,,,,,,,,,,,,,,,,,,,,,,,,,,,,,,,,,,,,,,,,,,,,,,,,,,,,,,,,
,,613fda883d650eff1765cd31,2022-09-08_18h21.27.782,CGTgamblingSpanTasks,2022.2.1,Win32,59.38594928,,,,,,,,1.6677,,,,,,,,,,,,,,2,n,2.3323,0,1,3.1677,1.5,,,,,,24.57684014,0,0.061756244,,,,,,,,,,,,,0,85,85,68,1,0.911988903,0,,,,,,,,,,,,,,,,,,,,,,,,,,,,,,,,,,,,,,,,,,,,,,,,,,,,,,,,,,,,,,,,,,,,,,,,,,,,,,,,
,,613fda883d650eff1765cd31,2022-09-08_18h21.27.782,CGTgamblingSpanTasks,2022.2.1,Win32,59.38594928,,,,,,,,2.9465,,,,,,,,,,,,,,1,v,1.0535,8.217594828,1,4.4465,1.5,,,,,,8.217594828,0,0.951019374,,,,,,,,,,,,,0,86,86,87,1,0.458722936,1,,,,,,,,,,,,,,,,,,,,,,,,,,,,,,,,,,,,,,,,,,,,,,,,,,,,,,,,,,,,,,,,,,,,,,,,,,,,,,,,
,,613fda883d650eff1765cd31,2022-09-08_18h21.27.782,CGTgamblingSpanTasks,2022.2.1,Win32,59.38594928,,,,,,,,3.0262,,,,,,,,,,,,,,2,n,0.9738,24.35708027,1,4.0262,1,,,,,,24.35708027,0,2.738695417,,,,,,,,,,,,,0,87,87,114,1,0.466573634,1,,,,,,,,,,,,,,,,,,,,,,,,,,,,,,,,,,,,,,,,,,,,,,,,,,,,,,,,,,,,,,,,,,,,,,,,,,,,,,,,
,,613fda883d650eff1765cd31,2022-09-08_18h21.27.782,CGTgamblingSpanTasks,2022.2.1,Win32,59.38594928,,,,,,,,3.3239,,,,,,,,,,,,,,1,v,0.6761,22.87092517,1,4.8239,1.5,,,,,,22.87092517,0,0.059276504,,,,,,,,,,,,,0,88,88,27,1,0.911114935,0,,,,,,,,,,,,,,,,,,,,,,,,,,,,,,,,,,,,,,,,,,,,,,,,,,,,,,,,,,,,,,,,,,,,,,,,,,,,,,,,
,,613fda883d650eff1765cd31,2022-09-08_18h21.27.782,CGTgamblingSpanTasks,2022.2.1,Win32,59.38594928,,,,,,,,2.8727,,,,,,,,,,,,,,2,v,1.1273,8.42547829,0,4.3727,1.5,,,,,,15.87668502,0,8.42547829,,,,,,,,,,,,,0,89,89,56,1,0.092099462,0,,,,,,,,,,,,,,,,,,,,,,,,,,,,,,,,,,,,,,,,,,,,,,,,,,,,,,,,,,,,,,,,,,,,,,,,,,,,,,,,
,,613fda883d650eff1765cd31,2022-09-08_18h21.27.782,CGTgamblingSpanTasks,2022.2.1,Win32,59.38594928,,,,,,,,3.1367,,,,,,,,,,,,,,1,v,0.8633,0,1,4.1367,1,,,,,,24.479109,0,0.089582697,,,,,,,,,,,,,0,90,90,89,1,0.900200232,0,,,,,,,,,,,,,,,,,,,,,,,,,,,,,,,,,,,,,,,,,,,,,,,,,,,,,,,,,,,,,,,,,,,,,,,,,,,,,,,,
,,613fda883d650eff1765cd31,2022-09-08_18h21.27.782,CGTgamblingSpanTasks,2022.2.1,Win32,59.38594928,,,,,,,,2.9225,,,,,,,,,,,,,,1,n,1.0775,4.462262453,0,4.4225,1.5,,,,,,0.192759042,0,4.462262453,,,,,,,,,,,,,0,91,91,52,1,0.003553223,0,,,,,,,,,,,,,,,,,,,,,,,,,,,,,,,,,,,,,,,,,,,,,,,,,,,,,,,,,,,,,,,,,,,,,,,,,,,,,,,,
,,613fda883d650eff1765cd31,2022-09-08_18h21.27.782,CGTgamblingSpanTasks,2022.2.1,Win32,59.38594928,,,,,,,,3.101,,,,,,,,,,,,,,1,v,0.899,0,1,4.101,1,,,,,,21.03408097,0,2.208275162,,,,,,,,,,,,,0,92,92,0,1,0.485031246,1,,,,,,,,,,,,,,,,,,,,,,,,,,,,,,,,,,,,,,,,,,,,,,,,,,,,,,,,,,,,,,,,,,,,,,,,,,,,,,,,
,,613fda883d650eff1765cd31,2022-09-08_18h21.27.782,CGTgamblingSpanTasks,2022.2.1,Win32,59.38594928,,,,,,,,2.5235,,,,,,,,,,,,,,2,v,1.4765,7.850775577,0,4.0235,1.5,,,,,,4.622707531,0,7.850775577,,,,,,,,,,,,,0,93,93,6,1,0.017737407,0,,,,,,,,,,,,,,,,,,,,,,,,,,,,,,,,,,,,,,,,,,,,,,,,,,,,,,,,,,,,,,,,,,,,,,,,,,,,,,,,
,,613fda883d650eff1765cd31,2022-09-08_18h21.27.782,CGTgamblingSpanTasks,2022.2.1,Win32,59.38594928,,,,,,,,2.756,,,,,,,,,,,,,,1,v,1.244,0,1,3.756,1,,,,,,15.43649625,0,1.65459324,,,,,,,,,,,,,0,94,94,33,1,0.479480163,1,,,,,,,,,,,,,,,,,,,,,,,,,,,,,,,,,,,,,,,,,,,,,,,,,,,,,,,,,,,,,,,,,,,,,,,,,,,,,,,,
,,613fda883d650eff1765cd31,2022-09-08_18h21.27.782,CGTgamblingSpanTasks,2022.2.1,Win32,59.38594928,,,,,,,,3.0922,,,,,,,,,,,,,,2,n,0.9078,0,1,4.5922,1.5,,,,,,27.94544945,0,2.32030209,,,,,,,,,,,,,0,95,95,115,1,0.545390564,1,,,,,,,,,,,,,,,,,,,,,,,,,,,,,,,,,,,,,,,,,,,,,,,,,,,,,,,,,,,,,,,,,,,,,,,,,,,,,,,,
,,613fda883d650eff1765cd31,2022-09-08_18h21.27.782,CGTgamblingSpanTasks,2022.2.1,Win32,59.38594928,,,,,,,,3.0976,,,,,,,,,,,,,,1,v,0.9024,0,1,4.0976,1,,,,,,19.68065872,0,1.843597162,,,,,,,,,,,,,0,96,96,80,1,0.514941058,1,,,,,,,,,,,,,,,,,,,,,,,,,,,,,,,,,,,,,,,,,,,,,,,,,,,,,,,,,,,,,,,,,,,,,,,,,,,,,,,,
,,613fda883d650eff1765cd31,2022-09-08_18h21.27.782,CGTgamblingSpanTasks,2022.2.1,Win32,59.38594928,,,,,,,,3.0419,,,,,,,,,,,,,,2,n,0.9581,0,1,4.0419,1,,,,,,27.93093084,0,0.050207531,,,,,,,,,,,,,0,97,97,83,1,0.920505936,0,,,,,,,,,,,,,,,,,,,,,,,,,,,,,,,,,,,,,,,,,,,,,,,,,,,,,,,,,,,,,,,,,,,,,,,,,,,,,,,,
,,613fda883d650eff1765cd31,2022-09-08_18h21.27.782,CGTgamblingSpanTasks,2022.2.1,Win32,59.38594928,,,,,,,,2.9063,,,,,,,,,,,,,,1,n,1.0937,11.93550497,0,3.9063,1,,,,,,14.20587264,0,11.93550497,,,,,,,,,,,,,0,98,98,21,1,0.041340301,0,,,,,,,,,,,,,,,,,,,,,,,,,,,,,,,,,,,,,,,,,,,,,,,,,,,,,,,,,,,,,,,,,,,,,,,,,,,,,,,,
,,613fda883d650eff1765cd31,2022-09-08_18h21.27.782,CGTgamblingSpanTasks,2022.2.1,Win32,59.38594928,,,,,,,,3.0527,,,,,,,,,,,,,,1,v,0.9473,18.20422443,1,4.5527,1.5,,,,,,18.20422443,0,1.635040165,,,,,,,,,,,,,0,99,99,82,1,0.525708991,1,,,,,,,,,,,,,,,,,,,,,,,,,,,,,,,,,,,,,,,,,,,,,,,,,,,,,,,,,,,,,,,,,,,,,,,,,,,,,,,,
,,613fda883d650eff1765cd31,2022-09-08_18h21.27.782,CGTgamblingSpanTasks,2022.2.1,Win32,59.38594928,,,,,,,,2.6871,,,,,,,,,,,,,,1,v,1.3129,13.84410806,1,3.6871,1,,,,,,13.84410806,0,1.535873964,,,,,,,,,,,,,0,100,100,88,1,0.470209002,1,,,,,,,,,,,,,,,,,,,,,,,,,,,,,,,,,,,,,,,,,,,,,,,,,,,,,,,,,,,,,,,,,,,,,,,,,,,,,,,,
,,613fda883d650eff1765cd31,2022-09-08_18h21.27.782,CGTgamblingSpanTasks,2022.2.1,Win32,59.38594928,,,,,,,,3.2686,,,,,,,,,,,,,,1,v,0.7314,28.33977875,1,4.7686,1.5,,,,,,28.33977875,0,2.768313633,,,,,,,,,,,,,0,101,101,116,1,0.50406901,1,,,,,,,,,,,,,,,,,,,,,,,,,,,,,,,,,,,,,,,,,,,,,,,,,,,,,,,,,,,,,,,,,,,,,,,,,,,,,,,,
,,613fda883d650eff1765cd31,2022-09-08_18h21.27.782,CGTgamblingSpanTasks,2022.2.1,Win32,59.38594928,,,,,,,,3.1357,,,,,,,,,,,,,,2,n,0.8643,27.4965044,1,4.1357,1,,,,,,27.4965044,0,2.461467004,,,,,,,,,,,,,0,102,102,36,1,0.526550878,1,,,,,,,,,,,,,,,,,,,,,,,,,,,,,,,,,,,,,,,,,,,,,,,,,,,,,,,,,,,,,,,,,,,,,,,,,,,,,,,,
,,613fda883d650eff1765cd31,2022-09-08_18h21.27.782,CGTgamblingSpanTasks,2022.2.1,Win32,59.38594928,,,,,,,,3.1397,,,,,,,,,,,,,,1,v,0.8603,0,1,4.6397,1.5,,,,,,25.65316415,0,0.079652925,,,,,,,,,,,,,0,103,103,109,1,0.90568168,0,,,,,,,,,,,,,,,,,,,,,,,,,,,,,,,,,,,,,,,,,,,,,,,,,,,,,,,,,,,,,,,,,,,,,,,,,,,,,,,,
,,613fda883d650eff1765cd31,2022-09-08_18h21.27.782,CGTgamblingSpanTasks,2022.2.1,Win32,59.38594928,,,,,,,,2.6257,,,,,,,,,,,,,,2,n,1.3743,0,1,3.6257,1,,,,,,11.08143071,0,1.207538756,,,,,,,,,,,,,0,104,104,84,1,0.475047453,1,,,,,,,,,,,,,,,,,,,,,,,,,,,,,,,,,,,,,,,,,,,,,,,,,,,,,,,,,,,,,,,,,,,,,,,,,,,,,,,,
,,613fda883d650eff1765cd31,2022-09-08_18h21.27.782,CGTgamblingSpanTasks,2022.2.1,Win32,59.38594928,,,,,,,,2.6943,,,,,,,,,,,,,,2,v,1.3057,11.41737518,0,4.1943,1.5,,,,,,18.11029021,0,11.41737518,,,,,,,,,,,,,0,105,105,48,1,0.069445859,0,,,,,,,,,,,,,,,,,,,,,,,,,,,,,,,,,,,,,,,,,,,,,,,,,,,,,,,,,,,,,,,,,,,,,,,,,,,,,,,,
,,613fda883d650eff1765cd31,2022-09-08_18h21.27.782,CGTgamblingSpanTasks,2022.2.1,Win32,59.38594928,,,,,,,,3.2383,,,,,,,,,,,,,,1,v,0.7617,18.51345298,1,4.2383,1,,,,,,18.51345298,0,1.932334278,,,,,,,,,,,,,0,106,106,31,1,0.48658696,1,,,,,,,,,,,,,,,,,,,,,,,,,,,,,,,,,,,,,,,,,,,,,,,,,,,,,,,,,,,,,,,,,,,,,,,,,,,,,,,,
,,613fda883d650eff1765cd31,2022-09-08_18h21.27.782,CGTgamblingSpanTasks,2022.2.1,Win32,59.38594928,,,,,,,,3.1878,,,,,,,,,,,,,,2,n,0.8122,17.23907308,1,4.6878,1.5,,,,,,17.23907308,0,2.055848574,,,,,,,,,,,,,0,107,107,66,1,0.450504458,1,,,,,,,,,,,,,,,,,,,,,,,,,,,,,,,,,,,,,,,,,,,,,,,,,,,,,,,,,,,,,,,,,,,,,,,,,,,,,,,,
,,613fda883d650eff1765cd31,2022-09-08_18h21.27.782,CGTgamblingSpanTasks,2022.2.1,Win32,59.38594928,,,,,,,,2.4533,,,,,,,,,,,,,,1,v,1.5467,0,1,3.4533,1,,,,,,14.3363647,0,1.396635362,,,,,,,,,,,,,0,108,108,78,1,0.504775474,1,,,,,,,,,,,,,,,,,,,,,,,,,,,,,,,,,,,,,,,,,,,,,,,,,,,,,,,,,,,,,,,,,,,,,,,,,,,,,,,,
,,613fda883d650eff1765cd31,2022-09-08_18h21.27.782,CGTgamblingSpanTasks,2022.2.1,Win32,59.38594928,,,,,,,,3.1868,,,,,,,,,,,,,,1,v,0.8132,0,1,4.1868,1,,,,,,25.0707644,0,0.067651625,,,,,,,,,,,,,0,109,109,70,1,0.909952349,0,,,,,,,,,,,,,,,,,,,,,,,,,,,,,,,,,,,,,,,,,,,,,,,,,,,,,,,,,,,,,,,,,,,,,,,,,,,,,,,,
,,613fda883d650eff1765cd31,2022-09-08_18h21.27.782,CGTgamblingSpanTasks,2022.2.1,Win32,59.38594928,,,,,,,,3.204,,,,,,,,,,,,,,1,v,0.796,27.53810185,1,4.704,1.5,,,,,,27.53810185,0,0.097022401,,,,,,,,,,,,,0,110,110,50,1,0.901515865,0,,,,,,,,,,,,,,,,,,,,,,,,,,,,,,,,,,,,,,,,,,,,,,,,,,,,,,,,,,,,,,,,,,,,,,,,,,,,,,,,
,,613fda883d650eff1765cd31,2022-09-08_18h21.27.782,CGTgamblingSpanTasks,2022.2.1,Win32,59.38594928,,,,,,,,2.3514,,,,,,,,,,,,,,1,v,1.6486,0,1,3.3514,1,,,,,,27.12325385,0,0.080932047,,,,,,,,,,,,,0,111,111,14,1,0.906929184,0,,,,,,,,,,,,,,,,,,,,,,,,,,,,,,,,,,,,,,,,,,,,,,,,,,,,,,,,,,,,,,,,,,,,,,,,,,,,,,,,
,,613fda883d650eff1765cd31,2022-09-08_18h21.27.782,CGTgamblingSpanTasks,2022.2.1,Win32,59.38594928,,,,,,,,2.9229,,,,,,,,,,,,,,1,v,1.0771,0,1,4.4229,1.5,,,,,,17.30137174,0,1.716380842,,,,,,,,,,,,,0,112,112,20,1,0.500020285,1,,,,,,,,,,,,,,,,,,,,,,,,,,,,,,,,,,,,,,,,,,,,,,,,,,,,,,,,,,,,,,,,,,,,,,,,,,,,,,,,
,,613fda883d650eff1765cd31,2022-09-08_18h21.27.782,CGTgamblingSpanTasks,2022.2.1,Win32,59.38594928,,,,,,,,3.9133,,,,,,,,,,,,,,2,v,0.0867,2.201057101,0,4.9133,1,,,,,,26.36733703,0,2.201057101,,,,,,,,,,,,,0,113,113,90,1,0.544064207,1,,,,,,,,,,,,,,,,,,,,,,,,,,,,,,,,,,,,,,,,,,,,,,,,,,,,,,,,,,,,,,,,,,,,,,,,,,,,,,,,
,,613fda883d650eff1765cd31,2022-09-08_18h21.27.782,CGTgamblingSpanTasks,2022.2.1,Win32,59.38594928,,,,,,,,2.7581,,,,,,,,,,,,,,2,v,1.2419,5.683635938,0,3.7581,1,,,,,,4.941039335,0,5.683635938,,,,,,,,,,,,,0,114,114,9,1,0.025481984,0,,,,,,,,,,,,,,,,,,,,,,,,,,,,,,,,,,,,,,,,,,,,,,,,,,,,,,,,,,,,,,,,,,,,,,,,,,,,,,,,
,,613fda883d650eff1765cd31,2022-09-08_18h21.27.782,CGTgamblingSpanTasks,2022.2.1,Win32,59.38594928,,,,,,,,3.1083,,,,,,,,,,,,,,1,v,0.8917,0,1,4.6083,1.5,,,,,,25.54604005,0,0.088845411,,,,,,,,,,,,,0,115,115,79,1,0.901957831,0,,,,,,,,,,,,,,,,,,,,,,,,,,,,,,,,,,,,,,,,,,,,,,,,,,,,,,,,,,,,,,,,,,,,,,,,,,,,,,,,
,,613fda883d650eff1765cd31,2022-09-08_18h21.27.782,CGTgamblingSpanTasks,2022.2.1,Win32,59.38594928,,,,,,,,3.0253,,,,,,,,,,,,,,2,v,0.9747,11.61882862,0,4.5253,1.5,,,,,,4.022743614,0,11.61882862,,,,,,,,,,,,,0,116,116,38,1,0.011499376,0,,,,,,,,,,,,,,,,,,,,,,,,,,,,,,,,,,,,,,,,,,,,,,,,,,,,,,,,,,,,,,,,,,,,,,,,,,,,,,,,
,,613fda883d650eff1765cd31,2022-09-08_18h21.27.782,CGTgamblingSpanTasks,2022.2.1,Win32,59.38594928,,,,,,,,2.823,,,,,,,,,,,,,,1,v,1.177,28.9381277,1,3.823,1,,,,,,28.9381277,0,2.663622024,,,,,,,,,,,,,0,117,117,103,1,0.519453367,1,,,,,,,,,,,,,,,,,,,,,,,,,,,,,,,,,,,,,,,,,,,,,,,,,,,,,,,,,,,,,,,,,,,,,,,,,,,,,,,,
,,613fda883d650eff1765cd31,2022-09-08_18h21.27.782,CGTgamblingSpanTasks,2022.2.1,Win32,59.38594928,,,,,,,,3.3178,,,,,,,,,,,,,,2,n,0.6822,0,1,4.3178,1,,,,,,26.4985979,0,0.051324376,,,,,,,,,,,,,0,118,118,106,1,0.918747215,0,,,,,,,,,,,,,,,,,,,,,,,,,,,,,,,,,,,,,,,,,,,,,,,,,,,,,,,,,,,,,,,,,,,,,,,,,,,,,,,,
,,613fda883d650eff1765cd31,2022-09-08_18h21.27.782,CGTgamblingSpanTasks,2022.2.1,Win32,59.38594928,,,,,,,,2.9205,,,,,,,,,,,,,,2,v,1.0795,11.6744431,0,3.9205,1,,,,,,10.43004651,0,11.6744431,,,,,,,,,,,,,0,119,119,15,1,0.026176489,0,,,,,,,,,,,,,,,,,,,,,,,,,,,,,,,,,,,,,,,,,,,,,,,,,,,,,,,,,,,,,,,,,,,,,,,,,,,,,,,,
,,613fda883d650eff1765cd31,2022-09-08_18h21.27.782,CGTgamblingSpanTasks,2022.2.1,Win32,59.38594928,,,,,,,,,,,,,,,,,,,,,,,,,,,,,,,,,,,,,,,,,,,,,,,,,,,,,,,,return,6.1764,,,,,,,,,,,,,,,,,,,,,,,,,,,,,,,,,,,,,,,,,,,,,,,,,,,,,,,,,,,,,,,,,,,,,,,,,,,,,,
,,613fda883d650eff1765cd31,2022-09-08_18h21.27.782,CGTgamblingSpanTasks,2022.2.1,Win32,59.38594928,,,,,,,,,,,,,,,,,,,,,,,,,,,,,,,,,,,,,,,,,,,,,,,,,,,,,,,,,,return,1.2572,,,,,,,,,,,,,,,,,,,,,,,,,,,,,,,,,,,,,,,,,,,,,,,,,,,,,,,,,,,,,,,,,,,,,,,,,,,,
,,613fda883d650eff1765cd31,2022-09-08_18h21.27.782,CGTgamblingSpanTasks,2022.2.1,Win32,59.38594928,,,,,,,,,,,,,,,,,,,,,,,,,,,,,,,,,,,,,,,,,,,,,,,,,,,,,,,,,,,,return,55.6731,,,,,,,,,,,,,,,,,,,,,,,,,,,,,,,,,,,,,,,,,,,,,,,,,,,,,,,,,,,,,,,,,,,,,,,,,,
,,613fda883d650eff1765cd31,2022-09-08_18h21.27.782,CGTgamblingSpanTasks,2022.2.1,Win32,59.38594928,,,,,,,,,,,,,,,,,,,,,,,,,,,,,,,,,,,,,,,,,,,,,,,,,,,,,,,,,,,,,,342,1,0.032552083,-0.391927083,1,0,0,cont_buttonPractice,0,0,0,0,1,3,342,24,2,42,,,,,,,,,,,,,,,,,,,,,,,,,,,,,,,,,,,,,,,,,,,,,,,,,,,,,,,,
,,613fda883d650eff1765cd31,2022-09-08_18h21.27.782,CGTgamblingSpanTasks,2022.2.1,Win32,59.38594928,,,,,,,,,,,,,,,,,,,,,,,,,,,,,,,,,,,,,,,,,,,,,,,,,,,,,,,,,,,,,,937,1,-0.04296875,-0.3984375,1,0,0,cont_buttonPractice,0,1,1,1,1,3,937,73,2,37,,,,,,,,,,,,,,,,,,,,,,,,,,,,,,,,,,,,,,,,,,,,,,,,,,,,,,,,
,,613fda883d650eff1765cd31,2022-09-08_18h21.27.782,CGTgamblingSpanTasks,2022.2.1,Win32,59.38594928,,,,,,,,,,,,,,,,,,,,,,,,,,,,,,,,,,,,,,,,,,,,,,,,,,,,,,,,,,,,,,,,,,,,,,,,,,,,,,,,return,37.4452,,,,,,,,,,,,,,,,,,,,,,,,,,,,,,,,,,,,,,,,,,,,,,,,,,,,,,
,,613fda883d650eff1765cd31,2022-09-08_18h21.27.782,CGTgamblingSpanTasks,2022.2.1,Win32,59.38594928,,,,,,,,,,,,,,,,,,,,,,,,,,,,,,,,,,,,,,,,,,,,,,,,,,,,,,,,,,,,,,,,,,,,,,,,,,,,,,,,,,"[9,2,5]",0,0,0,0,1,,,,,,,,,,,,,,,,,,,,,,,,,,,,,,,,,,,,,,,,,,,,,,,,
,,613fda883d650eff1765cd31,2022-09-08_18h21.27.782,CGTgamblingSpanTasks,2022.2.1,Win32,59.38594928,,,,,,,,,,,,,,,,,,,,,,,,,,,,,,,,,,,,,,,,,,,,,,,,,,,,,,,,,,,,,,,,,,,,,,,,,,,,,,,,,,"[9,2,5]",1,0,1,0,1,,,,,,,,,,,,,,,,,,,,,,,,,,,,,,,,,,,,,,,,,,,,,,,,
,,613fda883d650eff1765cd31,2022-09-08_18h21.27.782,CGTgamblingSpanTasks,2022.2.1,Win32,59.38594928,,,,,,,,,,,,,,,,,,,,,,,,,,,,,,,,,,,,,,,,,,,,,,,,,,,,,,,,,,,,,,,,,,,,,,,,,,,,,,,,,,"[9,2,5]",2,0,2,0,1,,,,,,,,,,,,,,,,,,,,,,,,,,,,,,,,,,,,,,,,,,,,,,,,
,,613fda883d650eff1765cd31,2022-09-08_18h21.27.782,CGTgamblingSpanTasks,2022.2.1,Win32,59.38594928,,,,,,,,,,,,,,,,,,,,,,,,,,,,,,,,,,,,,,,,,,,,,,,,,,,,,,,,,,,,,,,1,,,,,,,,,,,,,,,,,,,,,,,,,925,-0.08984375,-0.419270833,1,0,0,cont_button,0,0,0,0,1,1,,,,,,,,,,,,,,,,,,,,,,,,,,,,,,,,,,,
,,613fda883d650eff1765cd31,2022-09-08_18h21.27.782,CGTgamblingSpanTasks,2022.2.1,Win32,59.38594928,,,,,,,,,,,,,,,,,,,,,,,,,,,,,,,,,,,,,,,,,,,,,,,,,,,,,,,,,,,,,,,,,,,,,,,,,,,,,,,,,,"[8,1,4,2]",0,0,0,0,1,,,,,,,,,,,,,,,,,,,,,,,,,,,,,,,,,,,,,,,,,,,,,,,,
,,613fda883d650eff1765cd31,2022-09-08_18h21.27.782,CGTgamblingSpanTasks,2022.2.1,Win32,59.38594928,,,,,,,,,,,,,,,,,,,,,,,,,,,,,,,,,,,,,,,,,,,,,,,,,,,,,,,,,,,,,,,,,,,,,,,,,,,,,,,,,,"[8,1,4,2]",1,0,1,0,1,,,,,,,,,,,,,,,,,,,,,,,,,,,,,,,,,,,,,,,,,,,,,,,,
,,613fda883d650eff1765cd31,2022-09-08_18h21.27.782,CGTgamblingSpanTasks,2022.2.1,Win32,59.38594928,,,,,,,,,,,,,,,,,,,,,,,,,,,,,,,,,,,,,,,,,,,,,,,,,,,,,,,,,,,,,,,,,,,,,,,,,,,,,,,,,,"[8,1,4,2]",2,0,2,0,1,,,,,,,,,,,,,,,,,,,,,,,,,,,,,,,,,,,,,,,,,,,,,,,,
,,613fda883d650eff1765cd31,2022-09-08_18h21.27.782,CGTgamblingSpanTasks,2022.2.1,Win32,59.38594928,,,,,,,,,,,,,,,,,,,,,,,,,,,,,,,,,,,,,,,,,,,,,,,,,,,,,,,,,,,,,,,,,,,,,,,,,,,,,,,,,,"[8,1,4,2]",3,0,3,0,1,,,,,,,,,,,,,,,,,,,,,,,,,,,,,,,,,,,,,,,,,,,,,,,,
,,613fda883d650eff1765cd31,2022-09-08_18h21.27.782,CGTgamblingSpanTasks,2022.2.1,Win32,59.38594928,,,,,,,,,,,,,,,,,,,,,,,,,,,,,,,,,,,,,,,,,,,,,,,,,,,,,,,,,,,,,,,1,,,,,,,,,,,,,,,,,,,,,,,,,8142,-0.05078125,-0.411458333,1,0,0,cont_button,0,1,1,1,1,2,,,,,,,,,,,,,,,,,,,,,,,,,,,,,,,,,,,
,,613fda883d650eff1765cd31,2022-09-08_18h21.27.782,CGTgamblingSpanTasks,2022.2.1,Win32,59.38594928,,,,,,,,,,,,,,,,,,,,,,,,,,,,,,,,,,,,,,,,,,,,,,,,,,,,,,,,,,,,,,,,,,,,,,,,,,,,,,,,,,"[6,7,1,8,2]",0,0,0,0,1,,,,,,,,,,,,,,,,,,,,,,,,,,,,,,,,,,,,,,,,,,,,,,,,
,,613fda883d650eff1765cd31,2022-09-08_18h21.27.782,CGTgamblingSpanTasks,2022.2.1,Win32,59.38594928,,,,,,,,,,,,,,,,,,,,,,,,,,,,,,,,,,,,,,,,,,,,,,,,,,,,,,,,,,,,,,,,,,,,,,,,,,,,,,,,,,"[6,7,1,8,2]",1,0,1,0,1,,,,,,,,,,,,,,,,,,,,,,,,,,,,,,,,,,,,,,,,,,,,,,,,
,,613fda883d650eff1765cd31,2022-09-08_18h21.27.782,CGTgamblingSpanTasks,2022.2.1,Win32,59.38594928,,,,,,,,,,,,,,,,,,,,,,,,,,,,,,,,,,,,,,,,,,,,,,,,,,,,,,,,,,,,,,,,,,,,,,,,,,,,,,,,,,"[6,7,1,8,2]",2,0,2,0,1,,,,,,,,,,,,,,,,,,,,,,,,,,,,,,,,,,,,,,,,,,,,,,,,
,,613fda883d650eff1765cd31,2022-09-08_18h21.27.782,CGTgamblingSpanTasks,2022.2.1,Win32,59.38594928,,,,,,,,,,,,,,,,,,,,,,,,,,,,,,,,,,,,,,,,,,,,,,,,,,,,,,,,,,,,,,,,,,,,,,,,,,,,,,,,,,"[6,7,1,8,2]",3,0,3,0,1,,,,,,,,,,,,,,,,,,,,,,,,,,,,,,,,,,,,,,,,,,,,,,,,
,,613fda883d650eff1765cd31,2022-09-08_18h21.27.782,CGTgamblingSpanTasks,2022.2.1,Win32,59.38594928,,,,,,,,,,,,,,,,,,,,,,,,,,,,,,,,,,,,,,,,,,,,,,,,,,,,,,,,,,,,,,,,,,,,,,,,,,,,,,,,,,"[6,7,1,8,2]",4,0,4,0,1,,,,,,,,,,,,,,,,,,,,,,,,,,,,,,,,,,,,,,,,,,,,,,,,
,,613fda883d650eff1765cd31,2022-09-08_18h21.27.782,CGTgamblingSpanTasks,2022.2.1,Win32,59.38594928,,,,,,,,,,,,,,,,,,,,,,,,,,,,,,,,,,,,,,,,,,,,,,,,,,,,,,,,,,,,,,,1,,,,,,,,,,,,,,,,,,,,,,,,,67182,-0.00390625,-0.38671875,1,0,0,cont_button,0,2,2,2,1,3,,,,,,,,,,,,,,,,,,,,,,,,,,,,,,,,,,,
,,613fda883d650eff1765cd31,2022-09-08_18h21.27.782,CGTgamblingSpanTasks,2022.2.1,Win32,59.38594928,,,,,,,,,,,,,,,,,,,,,,,,,,,,,,,,,,,,,,,,,,,,,,,,,,,,,,,,,,,,,,,,,,,,,,,,,,,,,,,,,,"[4,1,9,5,3,7]",0,0,0,0,1,,,,,,,,,,,,,,,,,,,,,,,,,,,,,,,,,,,,,,,,,,,,,,,,
,,613fda883d650eff1765cd31,2022-09-08_18h21.27.782,CGTgamblingSpanTasks,2022.2.1,Win32,59.38594928,,,,,,,,,,,,,,,,,,,,,,,,,,,,,,,,,,,,,,,,,,,,,,,,,,,,,,,,,,,,,,,,,,,,,,,,,,,,,,,,,,"[4,1,9,5,3,7]",1,0,1,0,1,,,,,,,,,,,,,,,,,,,,,,,,,,,,,,,,,,,,,,,,,,,,,,,,
,,613fda883d650eff1765cd31,2022-09-08_18h21.27.782,CGTgamblingSpanTasks,2022.2.1,Win32,59.38594928,,,,,,,,,,,,,,,,,,,,,,,,,,,,,,,,,,,,,,,,,,,,,,,,,,,,,,,,,,,,,,,,,,,,,,,,,,,,,,,,,,"[4,1,9,5,3,7]",2,0,2,0,1,,,,,,,,,,,,,,,,,,,,,,,,,,,,,,,,,,,,,,,,,,,,,,,,
,,613fda883d650eff1765cd31,2022-09-08_18h21.27.782,CGTgamblingSpanTasks,2022.2.1,Win32,59.38594928,,,,,,,,,,,,,,,,,,,,,,,,,,,,,,,,,,,,,,,,,,,,,,,,,,,,,,,,,,,,,,,,,,,,,,,,,,,,,,,,,,"[4,1,9,5,3,7]",3,0,3,0,1,,,,,,,,,,,,,,,,,,,,,,,,,,,,,,,,,,,,,,,,,,,,,,,,
,,613fda883d650eff1765cd31,2022-09-08_18h21.27.782,CGTgamblingSpanTasks,2022.2.1,Win32,59.38594928,,,,,,,,,,,,,,,,,,,,,,,,,,,,,,,,,,,,,,,,,,,,,,,,,,,,,,,,,,,,,,,,,,,,,,,,,,,,,,,,,,"[4,1,9,5,3,7]",4,0,4,0,1,,,,,,,,,,,,,,,,,,,,,,,,,,,,,,,,,,,,,,,,,,,,,,,,
,,613fda883d650eff1765cd31,2022-09-08_18h21.27.782,CGTgamblingSpanTasks,2022.2.1,Win32,59.38594928,,,,,,,,,,,,,,,,,,,,,,,,,,,,,,,,,,,,,,,,,,,,,,,,,,,,,,,,,,,,,,,,,,,,,,,,,,,,,,,,,,"[4,1,9,5,3,7]",5,0,5,0,1,,,,,,,,,,,,,,,,,,,,,,,,,,,,,,,,,,,,,,,,,,,,,,,,
,,613fda883d650eff1765cd31,2022-09-08_18h21.27.782,CGTgamblingSpanTasks,2022.2.1,Win32,59.38594928,,,,,,,,,,,,,,,,,,,,,,,,,,,,,,,,,,,,,,,,,,,,,,,,,,,,,,,,,,,,,,,1,,,,,,,,,,,,,,,,,,,,,,,,,419537,0.006510417,-0.377604167,1,0,0,cont_button,0,3,3,3,1,4,,,,,,,,,,,,,,,,,,,,,,,,,,,,,,,,,,,
,,613fda883d650eff1765cd31,2022-09-08_18h21.27.782,CGTgamblingSpanTasks,2022.2.1,Win32,59.38594928,,,,,,,,,,,,,,,,,,,,,,,,,,,,,,,,,,,,,,,,,,,,,,,,,,,,,,,,,,,,,,,,,,,,,,,,,,,,,,,,,,"[7,1,5,6,3,4,8]",0,0,0,0,1,,,,,,,,,,,,,,,,,,,,,,,,,,,,,,,,,,,,,,,,,,,,,,,,
,,613fda883d650eff1765cd31,2022-09-08_18h21.27.782,CGTgamblingSpanTasks,2022.2.1,Win32,59.38594928,,,,,,,,,,,,,,,,,,,,,,,,,,,,,,,,,,,,,,,,,,,,,,,,,,,,,,,,,,,,,,,,,,,,,,,,,,,,,,,,,,"[7,1,5,6,3,4,8]",1,0,1,0,1,,,,,,,,,,,,,,,,,,,,,,,,,,,,,,,,,,,,,,,,,,,,,,,,
,,613fda883d650eff1765cd31,2022-09-08_18h21.27.782,CGTgamblingSpanTasks,2022.2.1,Win32,59.38594928,,,,,,,,,,,,,,,,,,,,,,,,,,,,,,,,,,,,,,,,,,,,,,,,,,,,,,,,,,,,,,,,,,,,,,,,,,,,,,,,,,"[7,1,5,6,3,4,8]",2,0,2,0,1,,,,,,,,,,,,,,,,,,,,,,,,,,,,,,,,,,,,,,,,,,,,,,,,
,,613fda883d650eff1765cd31,2022-09-08_18h21.27.782,CGTgamblingSpanTasks,2022.2.1,Win32,59.38594928,,,,,,,,,,,,,,,,,,,,,,,,,,,,,,,,,,,,,,,,,,,,,,,,,,,,,,,,,,,,,,,,,,,,,,,,,,,,,,,,,,"[7,1,5,6,3,4,8]",3,0,3,0,1,,,,,,,,,,,,,,,,,,,,,,,,,,,,,,,,,,,,,,,,,,,,,,,,
,,613fda883d650eff1765cd31,2022-09-08_18h21.27.782,CGTgamblingSpanTasks,2022.2.1,Win32,59.38594928,,,,,,,,,,,,,,,,,,,,,,,,,,,,,,,,,,,,,,,,,,,,,,,,,,,,,,,,,,,,,,,,,,,,,,,,,,,,,,,,,,"[7,1,5,6,3,4,8]",4,0,4,0,1,,,,,,,,,,,,,,,,,,,,,,,,,,,,,,,,,,,,,,,,,,,,,,,,
,,613fda883d650eff1765cd31,2022-09-08_18h21.27.782,CGTgamblingSpanTasks,2022.2.1,Win32,59.38594928,,,,,,,,,,,,,,,,,,,,,,,,,,,,,,,,,,,,,,,,,,,,,,,,,,,,,,,,,,,,,,,,,,,,,,,,,,,,,,,,,,"[7,1,5,6,3,4,8]",5,0,5,0,1,,,,,,,,,,,,,,,,,,,,,,,,,,,,,,,,,,,,,,,,,,,,,,,,
,,613fda883d650eff1765cd31,2022-09-08_18h21.27.782,CGTgamblingSpanTasks,2022.2.1,Win32,59.38594928,,,,,,,,,,,,,,,,,,,,,,,,,,,,,,,,,,,,,,,,,,,,,,,,,,,,,,,,,,,,,,,,,,,,,,,,,,,,,,,,,,"[7,1,5,6,3,4,8]",6,0,6,0,1,,,,,,,,,,,,,,,,,,,,,,,,,,,,,,,,,,,,,,,,,,,,,,,,
,,613fda883d650eff1765cd31,2022-09-08_18h21.27.782,CGTgamblingSpanTasks,2022.2.1,Win32,59.38594928,,,,,,,,,,,,,,,,,,,,,,,,,,,,,,,,,,,,,,,,,,,,,,,,,,,,,,,,,,,,,,,0,,,,,,,,,,,,,,,,,,,,,,,,,715678,-0.037760417,-0.393229167,1,0,0,cont_button,0,4,4,4,1,5,,,,,,,,,,,,,,,,,,,,,,,,,,,,,,,,,,,
,,613fda883d650eff1765cd31,2022-09-08_18h21.27.782,CGTgamblingSpanTasks,2022.2.1,Win32,59.38594928,,,,,,,,,,,,,,,,,,,,,,,,,,,,,,,,,,,,,,,,,,,,,,,,,,,,,,,,,,,,,,,,,,,,,,,,,,,,,,,,,,"[9,3,1,7,8,6,2]",0,0,0,0,1,,,,,,,,,,,,,,,,,,,,,,,,,,,,,,,,,,,,,,,,,,,,,,,,
,,613fda883d650eff1765cd31,2022-09-08_18h21.27.782,CGTgamblingSpanTasks,2022.2.1,Win32,59.38594928,,,,,,,,,,,,,,,,,,,,,,,,,,,,,,,,,,,,,,,,,,,,,,,,,,,,,,,,,,,,,,,,,,,,,,,,,,,,,,,,,,"[9,3,1,7,8,6,2]",1,0,1,0,1,,,,,,,,,,,,,,,,,,,,,,,,,,,,,,,,,,,,,,,,,,,,,,,,
,,613fda883d650eff1765cd31,2022-09-08_18h21.27.782,CGTgamblingSpanTasks,2022.2.1,Win32,59.38594928,,,,,,,,,,,,,,,,,,,,,,,,,,,,,,,,,,,,,,,,,,,,,,,,,,,,,,,,,,,,,,,,,,,,,,,,,,,,,,,,,,"[9,3,1,7,8,6,2]",2,0,2,0,1,,,,,,,,,,,,,,,,,,,,,,,,,,,,,,,,,,,,,,,,,,,,,,,,
,,613fda883d650eff1765cd31,2022-09-08_18h21.27.782,CGTgamblingSpanTasks,2022.2.1,Win32,59.38594928,,,,,,,,,,,,,,,,,,,,,,,,,,,,,,,,,,,,,,,,,,,,,,,,,,,,,,,,,,,,,,,,,,,,,,,,,,,,,,,,,,"[9,3,1,7,8,6,2]",3,0,3,0,1,,,,,,,,,,,,,,,,,,,,,,,,,,,,,,,,,,,,,,,,,,,,,,,,
,,613fda883d650eff1765cd31,2022-09-08_18h21.27.782,CGTgamblingSpanTasks,2022.2.1,Win32,59.38594928,,,,,,,,,,,,,,,,,,,,,,,,,,,,,,,,,,,,,,,,,,,,,,,,,,,,,,,,,,,,,,,,,,,,,,,,,,,,,,,,,,"[9,3,1,7,8,6,2]",4,0,4,0,1,,,,,,,,,,,,,,,,,,,,,,,,,,,,,,,,,,,,,,,,,,,,,,,,
,,613fda883d650eff1765cd31,2022-09-08_18h21.27.782,CGTgamblingSpanTasks,2022.2.1,Win32,59.38594928,,,,,,,,,,,,,,,,,,,,,,,,,,,,,,,,,,,,,,,,,,,,,,,,,,,,,,,,,,,,,,,,,,,,,,,,,,,,,,,,,,"[9,3,1,7,8,6,2]",5,0,5,0,1,,,,,,,,,,,,,,,,,,,,,,,,,,,,,,,,,,,,,,,,,,,,,,,,
,,613fda883d650eff1765cd31,2022-09-08_18h21.27.782,CGTgamblingSpanTasks,2022.2.1,Win32,59.38594928,,,,,,,,,,,,,,,,,,,,,,,,,,,,,,,,,,,,,,,,,,,,,,,,,,,,,,,,,,,,,,,,,,,,,,,,,,,,,,,,,,"[9,3,1,7,8,6,2]",6,0,6,0,1,,,,,,,,,,,,,,,,,,,,,,,,,,,,,,,,,,,,,,,,,,,,,,,,
,,613fda883d650eff1765cd31,2022-09-08_18h21.27.782,CGTgamblingSpanTasks,2022.2.1,Win32,59.38594928,,,,,,,,,,,,,,,,,,,,,,,,,,,,,,,,,,,,,,,,,,,,,,,,,,,,,,,,,,,,,,,0,,,,,,,,,,,,,,,,,,,,,,,,,931787,-0.018229167,-0.41015625,1,0,0,cont_button,0,5,5,5,1,6,,,,,,,,,,,,,,,,,,,,,,,,,,,,,,,,,,,
,,613fda883d650eff1765cd31,2022-09-08_18h21.27.782,CGTgamblingSpanTasks,2022.2.1,Win32,59.38594928,,,,,,,,,,,,,,,,,,,,,,,,,,,,,,,,,,,,,,,,,,,,,,,,,,,,,,,,,,,,,,,,,,,,,,,,,,,,,,,,,,"[3,7,5,4,1,2]",0,0,0,0,1,,,,,,,,,,,,,,,,,,,,,,,,,,,,,,,,,,,,,,,,,,,,,,,,
,,613fda883d650eff1765cd31,2022-09-08_18h21.27.782,CGTgamblingSpanTasks,2022.2.1,Win32,59.38594928,,,,,,,,,,,,,,,,,,,,,,,,,,,,,,,,,,,,,,,,,,,,,,,,,,,,,,,,,,,,,,,,,,,,,,,,,,,,,,,,,,"[3,7,5,4,1,2]",1,0,1,0,1,,,,,,,,,,,,,,,,,,,,,,,,,,,,,,,,,,,,,,,,,,,,,,,,
,,613fda883d650eff1765cd31,2022-09-08_18h21.27.782,CGTgamblingSpanTasks,2022.2.1,Win32,59.38594928,,,,,,,,,,,,,,,,,,,,,,,,,,,,,,,,,,,,,,,,,,,,,,,,,,,,,,,,,,,,,,,,,,,,,,,,,,,,,,,,,,"[3,7,5,4,1,2]",2,0,2,0,1,,,,,,,,,,,,,,,,,,,,,,,,,,,,,,,,,,,,,,,,,,,,,,,,
,,613fda883d650eff1765cd31,2022-09-08_18h21.27.782,CGTgamblingSpanTasks,2022.2.1,Win32,59.38594928,,,,,,,,,,,,,,,,,,,,,,,,,,,,,,,,,,,,,,,,,,,,,,,,,,,,,,,,,,,,,,,,,,,,,,,,,,,,,,,,,,"[3,7,5,4,1,2]",3,0,3,0,1,,,,,,,,,,,,,,,,,,,,,,,,,,,,,,,,,,,,,,,,,,,,,,,,
,,613fda883d650eff1765cd31,2022-09-08_18h21.27.782,CGTgamblingSpanTasks,2022.2.1,Win32,59.38594928,,,,,,,,,,,,,,,,,,,,,,,,,,,,,,,,,,,,,,,,,,,,,,,,,,,,,,,,,,,,,,,,,,,,,,,,,,,,,,,,,,"[3,7,5,4,1,2]",4,0,4,0,1,,,,,,,,,,,,,,,,,,,,,,,,,,,,,,,,,,,,,,,,,,,,,,,,
,,613fda883d650eff1765cd31,2022-09-08_18h21.27.782,CGTgamblingSpanTasks,2022.2.1,Win32,59.38594928,,,,,,,,,,,,,,,,,,,,,,,,,,,,,,,,,,,,,,,,,,,,,,,,,,,,,,,,,,,,,,,,,,,,,,,,,,,,,,,,,,"[3,7,5,4,1,2]",5,0,5,0,1,,,,,,,,,,,,,,,,,,,,,,,,,,,,,,,,,,,,,,,,,,,,,,,,
,,613fda883d650eff1765cd31,2022-09-08_18h21.27.782,CGTgamblingSpanTasks,2022.2.1,Win32,59.38594928,,,,,,,,,,,,,,,,,,,,,,,,,,,,,,,,,,,,,,,,,,,,,,,,,,,,,,,,,,,,,,,0,,,,,,,,,,,,,,,,,,,,,,,,,75412,-0.048177083,-0.421875,1,0,0,cont_button,0,6,6,6,1,7,,,,,,,,,,,,,,,,,,,,,,,,,,,,,,,,,,,
,,613fda883d650eff1765cd31,2022-09-08_18h21.27.782,CGTgamblingSpanTasks,2022.2.1,Win32,59.38594928,,,,,,,,,,,,,,,,,,,,,,,,,,,,,,,,,,,,,,,,,,,,,,,,,,,,,,,,,,,,,,,,,,,,,,,,,,,,,,,,,,"[8,6,2,7,3,9]",0,0,0,0,1,,,,,,,,,,,,,,,,,,,,,,,,,,,,,,,,,,,,,,,,,,,,,,,,
,,613fda883d650eff1765cd31,2022-09-08_18h21.27.782,CGTgamblingSpanTasks,2022.2.1,Win32,59.38594928,,,,,,,,,,,,,,,,,,,,,,,,,,,,,,,,,,,,,,,,,,,,,,,,,,,,,,,,,,,,,,,,,,,,,,,,,,,,,,,,,,"[8,6,2,7,3,9]",1,0,1,0,1,,,,,,,,,,,,,,,,,,,,,,,,,,,,,,,,,,,,,,,,,,,,,,,,
,,613fda883d650eff1765cd31,2022-09-08_18h21.27.782,CGTgamblingSpanTasks,2022.2.1,Win32,59.38594928,,,,,,,,,,,,,,,,,,,,,,,,,,,,,,,,,,,,,,,,,,,,,,,,,,,,,,,,,,,,,,,,,,,,,,,,,,,,,,,,,,"[8,6,2,7,3,9]",2,0,2,0,1,,,,,,,,,,,,,,,,,,,,,,,,,,,,,,,,,,,,,,,,,,,,,,,,
,,613fda883d650eff1765cd31,2022-09-08_18h21.27.782,CGTgamblingSpanTasks,2022.2.1,Win32,59.38594928,,,,,,,,,,,,,,,,,,,,,,,,,,,,,,,,,,,,,,,,,,,,,,,,,,,,,,,,,,,,,,,,,,,,,,,,,,,,,,,,,,"[8,6,2,7,3,9]",3,0,3,0,1,,,,,,,,,,,,,,,,,,,,,,,,,,,,,,,,,,,,,,,,,,,,,,,,
,,613fda883d650eff1765cd31,2022-09-08_18h21.27.782,CGTgamblingSpanTasks,2022.2.1,Win32,59.38594928,,,,,,,,,,,,,,,,,,,,,,,,,,,,,,,,,,,,,,,,,,,,,,,,,,,,,,,,,,,,,,,,,,,,,,,,,,,,,,,,,,"[8,6,2,7,3,9]",4,0,4,0,1,,,,,,,,,,,,,,,,,,,,,,,,,,,,,,,,,,,,,,,,,,,,,,,,
,,613fda883d650eff1765cd31,2022-09-08_18h21.27.782,CGTgamblingSpanTasks,2022.2.1,Win32,59.38594928,,,,,,,,,,,,,,,,,,,,,,,,,,,,,,,,,,,,,,,,,,,,,,,,,,,,,,,,,,,,,,,,,,,,,,,,,,,,,,,,,,"[8,6,2,7,3,9]",5,0,5,0,1,,,,,,,,,,,,,,,,,,,,,,,,,,,,,,,,,,,,,,,,,,,,,,,,
,,613fda883d650eff1765cd31,2022-09-08_18h21.27.782,CGTgamblingSpanTasks,2022.2.1,Win32,59.38594928,,,,,,,,,,,,,,,,,,,,,,,,,,,,,,,,,,,,,,,,,,,,,,,,,,,,,,,,,,,,,,,1,,,,,,,,,,,,,,,,,,,,,,,,,862739,-0.044270833,-0.420572917,1,0,0,cont_button,0,7,7,7,1,8,,,,,,,,,,,,,,,,,,,,,,,,,,,,,,,,,,,
,,613fda883d650eff1765cd31,2022-09-08_18h21.27.782,CGTgamblingSpanTasks,2022.2.1,Win32,59.38594928,,,,,,,,,,,,,,,,,,,,,,,,,,,,,,,,,,,,,,,,,,,,,,,,,,,,,,,,,,,,,,,,,,,,,,,,,,,,,,,,,,"[3,4,6,2,5,9,1]",0,0,0,0,1,,,,,,,,,,,,,,,,,,,,,,,,,,,,,,,,,,,,,,,,,,,,,,,,
,,613fda883d650eff1765cd31,2022-09-08_18h21.27.782,CGTgamblingSpanTasks,2022.2.1,Win32,59.38594928,,,,,,,,,,,,,,,,,,,,,,,,,,,,,,,,,,,,,,,,,,,,,,,,,,,,,,,,,,,,,,,,,,,,,,,,,,,,,,,,,,"[3,4,6,2,5,9,1]",1,0,1,0,1,,,,,,,,,,,,,,,,,,,,,,,,,,,,,,,,,,,,,,,,,,,,,,,,
,,613fda883d650eff1765cd31,2022-09-08_18h21.27.782,CGTgamblingSpanTasks,2022.2.1,Win32,59.38594928,,,,,,,,,,,,,,,,,,,,,,,,,,,,,,,,,,,,,,,,,,,,,,,,,,,,,,,,,,,,,,,,,,,,,,,,,,,,,,,,,,"[3,4,6,2,5,9,1]",2,0,2,0,1,,,,,,,,,,,,,,,,,,,,,,,,,,,,,,,,,,,,,,,,,,,,,,,,
,,613fda883d650eff1765cd31,2022-09-08_18h21.27.782,CGTgamblingSpanTasks,2022.2.1,Win32,59.38594928,,,,,,,,,,,,,,,,,,,,,,,,,,,,,,,,,,,,,,,,,,,,,,,,,,,,,,,,,,,,,,,,,,,,,,,,,,,,,,,,,,"[3,4,6,2,5,9,1]",3,0,3,0,1,,,,,,,,,,,,,,,,,,,,,,,,,,,,,,,,,,,,,,,,,,,,,,,,
,,613fda883d650eff1765cd31,2022-09-08_18h21.27.782,CGTgamblingSpanTasks,2022.2.1,Win32,59.38594928,,,,,,,,,,,,,,,,,,,,,,,,,,,,,,,,,,,,,,,,,,,,,,,,,,,,,,,,,,,,,,,,,,,,,,,,,,,,,,,,,,"[3,4,6,2,5,9,1]",4,0,4,0,1,,,,,,,,,,,,,,,,,,,,,,,,,,,,,,,,,,,,,,,,,,,,,,,,
,,613fda883d650eff1765cd31,2022-09-08_18h21.27.782,CGTgamblingSpanTasks,2022.2.1,Win32,59.38594928,,,,,,,,,,,,,,,,,,,,,,,,,,,,,,,,,,,,,,,,,,,,,,,,,,,,,,,,,,,,,,,,,,,,,,,,,,,,,,,,,,"[3,4,6,2,5,9,1]",5,0,5,0,1,,,,,,,,,,,,,,,,,,,,,,,,,,,,,,,,,,,,,,,,,,,,,,,,
,,613fda883d650eff1765cd31,2022-09-08_18h21.27.782,CGTgamblingSpanTasks,2022.2.1,Win32,59.38594928,,,,,,,,,,,,,,,,,,,,,,,,,,,,,,,,,,,,,,,,,,,,,,,,,,,,,,,,,,,,,,,,,,,,,,,,,,,,,,,,,,"[3,4,6,2,5,9,1]",6,0,6,0,1,,,,,,,,,,,,,,,,,,,,,,,,,,,,,,,,,,,,,,,,,,,,,,,,
,,613fda883d650eff1765cd31,2022-09-08_18h21.27.782,CGTgamblingSpanTasks,2022.2.1,Win32,59.38594928,,,,,,,,,,,,,,,,,,,,,,,,,,,,,,,,,,,,,,,,,,,,,,,,,,,,,,,,,,,,,,,0,,,,,,,,,,,,,,,,,,,,,,,,,3462593,0.022135417,-0.428385417,1,0,0,cont_button,0,8,8,8,1,9,,,,,,,,,,,,,,,,,,,,,,,,,,,,,,,,,,,
,,613fda883d650eff1765cd31,2022-09-08_18h21.27.782,CGTgamblingSpanTasks,2022.2.1,Win32,59.38594928,,,,,,,,,,,,,,,,,,,,,,,,,,,,,,,,,,,,,,,,,,,,,,,,,,,,,,,,,,,,,,,,,,,,,,,,,,,,,,,,,,"[8,4,3,5,9,7,6]",0,0,0,0,1,,,,,,,,,,,,,,,,,,,,,,,,,,,,,,,,,,,,,,,,,,,,,,,,
,,613fda883d650eff1765cd31,2022-09-08_18h21.27.782,CGTgamblingSpanTasks,2022.2.1,Win32,59.38594928,,,,,,,,,,,,,,,,,,,,,,,,,,,,,,,,,,,,,,,,,,,,,,,,,,,,,,,,,,,,,,,,,,,,,,,,,,,,,,,,,,"[8,4,3,5,9,7,6]",1,0,1,0,1,,,,,,,,,,,,,,,,,,,,,,,,,,,,,,,,,,,,,,,,,,,,,,,,
,,613fda883d650eff1765cd31,2022-09-08_18h21.27.782,CGTgamblingSpanTasks,2022.2.1,Win32,59.38594928,,,,,,,,,,,,,,,,,,,,,,,,,,,,,,,,,,,,,,,,,,,,,,,,,,,,,,,,,,,,,,,,,,,,,,,,,,,,,,,,,,"[8,4,3,5,9,7,6]",2,0,2,0,1,,,,,,,,,,,,,,,,,,,,,,,,,,,,,,,,,,,,,,,,,,,,,,,,
,,613fda883d650eff1765cd31,2022-09-08_18h21.27.782,CGTgamblingSpanTasks,2022.2.1,Win32,59.38594928,,,,,,,,,,,,,,,,,,,,,,,,,,,,,,,,,,,,,,,,,,,,,,,,,,,,,,,,,,,,,,,,,,,,,,,,,,,,,,,,,,"[8,4,3,5,9,7,6]",3,0,3,0,1,,,,,,,,,,,,,,,,,,,,,,,,,,,,,,,,,,,,,,,,,,,,,,,,
,,613fda883d650eff1765cd31,2022-09-08_18h21.27.782,CGTgamblingSpanTasks,2022.2.1,Win32,59.38594928,,,,,,,,,,,,,,,,,,,,,,,,,,,,,,,,,,,,,,,,,,,,,,,,,,,,,,,,,,,,,,,,,,,,,,,,,,,,,,,,,,"[8,4,3,5,9,7,6]",4,0,4,0,1,,,,,,,,,,,,,,,,,,,,,,,,,,,,,,,,,,,,,,,,,,,,,,,,
,,613fda883d650eff1765cd31,2022-09-08_18h21.27.782,CGTgamblingSpanTasks,2022.2.1,Win32,59.38594928,,,,,,,,,,,,,,,,,,,,,,,,,,,,,,,,,,,,,,,,,,,,,,,,,,,,,,,,,,,,,,,,,,,,,,,,,,,,,,,,,,"[8,4,3,5,9,7,6]",5,0,5,0,1,,,,,,,,,,,,,,,,,,,,,,,,,,,,,,,,,,,,,,,,,,,,,,,,
,,613fda883d650eff1765cd31,2022-09-08_18h21.27.782,CGTgamblingSpanTasks,2022.2.1,Win32,59.38594928,,,,,,,,,,,,,,,,,,,,,,,,,,,,,,,,,,,,,,,,,,,,,,,,,,,,,,,,,,,,,,,,,,,,,,,,,,,,,,,,,,"[8,4,3,5,9,7,6]",6,0,6,0,1,,,,,,,,,,,,,,,,,,,,,,,,,,,,,,,,,,,,,,,,,,,,,,,,
,,613fda883d650eff1765cd31,2022-09-08_18h21.27.782,CGTgamblingSpanTasks,2022.2.1,Win32,59.38594928,,,,,,,,,,,,,,,,,,,,,,,,,,,,,,,,,,,,,,,,,,,,,,,,,,,,,,,,,,,,,,,0,,,,,,,,,,,,,,,,,,,,,,,,,8435973,0.009114583,-0.385416667,1,0,0,cont_button,0,9,9,9,1,10,,,,,,,,,,,,,,,,,,,,,,,,,,,,,,,,,,,
,,613fda883d650eff1765cd31,2022-09-08_18h21.27.782,CGTgamblingSpanTasks,2022.2.1,Win32,59.38594928,,,,,,,,,,,,,,,,,,,,,,,,,,,,,,,,,,,,,,,,,,,,,,,,,,,,,,,,,,,,,,,,,,,,,,,,,,,,,,,,,,"[7,2,3,6,1,9]",0,0,0,0,1,,,,,,,,,,,,,,,,,,,,,,,,,,,,,,,,,,,,,,,,,,,,,,,,
,,613fda883d650eff1765cd31,2022-09-08_18h21.27.782,CGTgamblingSpanTasks,2022.2.1,Win32,59.38594928,,,,,,,,,,,,,,,,,,,,,,,,,,,,,,,,,,,,,,,,,,,,,,,,,,,,,,,,,,,,,,,,,,,,,,,,,,,,,,,,,,"[7,2,3,6,1,9]",1,0,1,0,1,,,,,,,,,,,,,,,,,,,,,,,,,,,,,,,,,,,,,,,,,,,,,,,,
,,613fda883d650eff1765cd31,2022-09-08_18h21.27.782,CGTgamblingSpanTasks,2022.2.1,Win32,59.38594928,,,,,,,,,,,,,,,,,,,,,,,,,,,,,,,,,,,,,,,,,,,,,,,,,,,,,,,,,,,,,,,,,,,,,,,,,,,,,,,,,,"[7,2,3,6,1,9]",2,0,2,0,1,,,,,,,,,,,,,,,,,,,,,,,,,,,,,,,,,,,,,,,,,,,,,,,,
,,613fda883d650eff1765cd31,2022-09-08_18h21.27.782,CGTgamblingSpanTasks,2022.2.1,Win32,59.38594928,,,,,,,,,,,,,,,,,,,,,,,,,,,,,,,,,,,,,,,,,,,,,,,,,,,,,,,,,,,,,,,,,,,,,,,,,,,,,,,,,,"[7,2,3,6,1,9]",3,0,3,0,1,,,,,,,,,,,,,,,,,,,,,,,,,,,,,,,,,,,,,,,,,,,,,,,,
,,613fda883d650eff1765cd31,2022-09-08_18h21.27.782,CGTgamblingSpanTasks,2022.2.1,Win32,59.38594928,,,,,,,,,,,,,,,,,,,,,,,,,,,,,,,,,,,,,,,,,,,,,,,,,,,,,,,,,,,,,,,,,,,,,,,,,,,,,,,,,,"[7,2,3,6,1,9]",4,0,4,0,1,,,,,,,,,,,,,,,,,,,,,,,,,,,,,,,,,,,,,,,,,,,,,,,,
,,613fda883d650eff1765cd31,2022-09-08_18h21.27.782,CGTgamblingSpanTasks,2022.2.1,Win32,59.38594928,,,,,,,,,,,,,,,,,,,,,,,,,,,,,,,,,,,,,,,,,,,,,,,,,,,,,,,,,,,,,,,,,,,,,,,,,,,,,,,,,,"[7,2,3,6,1,9]",5,0,5,0,1,,,,,,,,,,,,,,,,,,,,,,,,,,,,,,,,,,,,,,,,,,,,,,,,
,,613fda883d650eff1765cd31,2022-09-08_18h21.27.782,CGTgamblingSpanTasks,2022.2.1,Win32,59.38594928,,,,,,,,,,,,,,,,,,,,,,,,,,,,,,,,,,,,,,,,,,,,,,,,,,,,,,,,,,,,,,,1,,,,,,,,,,,,,,,,,,,,,,,,,723619,-0.0234375,-0.399739583,1,0,0,cont_button,0,10,10,10,1,11,,,,,,,,,,,,,,,,,,,,,,,,,,,,,,,,,,,
,,613fda883d650eff1765cd31,2022-09-08_18h21.27.782,CGTgamblingSpanTasks,2022.2.1,Win32,59.38594928,,,,,,,,,,,,,,,,,,,,,,,,,,,,,,,,,,,,,,,,,,,,,,,,,,,,,,,,,,,,,,,,,,,,,,,,,,,,,,,,,,"[7,4,6,9,1,3,2]",0,0,0,0,1,,,,,,,,,,,,,,,,,,,,,,,,,,,,,,,,,,,,,,,,,,,,,,,,
,,613fda883d650eff1765cd31,2022-09-08_18h21.27.782,CGTgamblingSpanTasks,2022.2.1,Win32,59.38594928,,,,,,,,,,,,,,,,,,,,,,,,,,,,,,,,,,,,,,,,,,,,,,,,,,,,,,,,,,,,,,,,,,,,,,,,,,,,,,,,,,"[7,4,6,9,1,3,2]",1,0,1,0,1,,,,,,,,,,,,,,,,,,,,,,,,,,,,,,,,,,,,,,,,,,,,,,,,
,,613fda883d650eff1765cd31,2022-09-08_18h21.27.782,CGTgamblingSpanTasks,2022.2.1,Win32,59.38594928,,,,,,,,,,,,,,,,,,,,,,,,,,,,,,,,,,,,,,,,,,,,,,,,,,,,,,,,,,,,,,,,,,,,,,,,,,,,,,,,,,"[7,4,6,9,1,3,2]",2,0,2,0,1,,,,,,,,,,,,,,,,,,,,,,,,,,,,,,,,,,,,,,,,,,,,,,,,
,,613fda883d650eff1765cd31,2022-09-08_18h21.27.782,CGTgamblingSpanTasks,2022.2.1,Win32,59.38594928,,,,,,,,,,,,,,,,,,,,,,,,,,,,,,,,,,,,,,,,,,,,,,,,,,,,,,,,,,,,,,,,,,,,,,,,,,,,,,,,,,"[7,4,6,9,1,3,2]",3,0,3,0,1,,,,,,,,,,,,,,,,,,,,,,,,,,,,,,,,,,,,,,,,,,,,,,,,
,,613fda883d650eff1765cd31,2022-09-08_18h21.27.782,CGTgamblingSpanTasks,2022.2.1,Win32,59.38594928,,,,,,,,,,,,,,,,,,,,,,,,,,,,,,,,,,,,,,,,,,,,,,,,,,,,,,,,,,,,,,,,,,,,,,,,,,,,,,,,,,"[7,4,6,9,1,3,2]",4,0,4,0,1,,,,,,,,,,,,,,,,,,,,,,,,,,,,,,,,,,,,,,,,,,,,,,,,
,,613fda883d650eff1765cd31,2022-09-08_18h21.27.782,CGTgamblingSpanTasks,2022.2.1,Win32,59.38594928,,,,,,,,,,,,,,,,,,,,,,,,,,,,,,,,,,,,,,,,,,,,,,,,,,,,,,,,,,,,,,,,,,,,,,,,,,,,,,,,,,"[7,4,6,9,1,3,2]",5,0,5,0,1,,,,,,,,,,,,,,,,,,,,,,,,,,,,,,,,,,,,,,,,,,,,,,,,
,,613fda883d650eff1765cd31,2022-09-08_18h21.27.782,CGTgamblingSpanTasks,2022.2.1,Win32,59.38594928,,,,,,,,,,,,,,,,,,,,,,,,,,,,,,,,,,,,,,,,,,,,,,,,,,,,,,,,,,,,,,,,,,,,,,,,,,,,,,,,,,"[7,4,6,9,1,3,2]",6,0,6,0,1,,,,,,,,,,,,,,,,,,,,,,,,,,,,,,,,,,,,,,,,,,,,,,,,
,,613fda883d650eff1765cd31,2022-09-08_18h21.27.782,CGTgamblingSpanTasks,2022.2.1,Win32,59.38594928,,,,,,,,,,,,,,,,,,,,,,,,,,,,,,,,,,,,,,,,,,,,,,,,,,,,,,,,,,,,,,,0,,,,,,,,,,,,,,,,,,,,,,,,,7469136,-0.001302083,-0.416666667,1,0,0,cont_button,0,11,11,11,1,12,,,,,,,,,,,,,,,,,,,,,,,,,,,,,,,,,,,
,,613fda883d650eff1765cd31,2022-09-08_18h21.27.782,CGTgamblingSpanTasks,2022.2.1,Win32,59.38594928,,,,,,,,,,,,,,,,,,,,,,,,,,,,,,,,,,,,,,,,,,,,,,,,,,,,,,,,,,,,,,,,,,,,,,,,,,,,,,,,,,"[4,5,3,9,2,1,7]",0,0,0,0,1,,,,,,,,,,,,,,,,,,,,,,,,,,,,,,,,,,,,,,,,,,,,,,,,
,,613fda883d650eff1765cd31,2022-09-08_18h21.27.782,CGTgamblingSpanTasks,2022.2.1,Win32,59.38594928,,,,,,,,,,,,,,,,,,,,,,,,,,,,,,,,,,,,,,,,,,,,,,,,,,,,,,,,,,,,,,,,,,,,,,,,,,,,,,,,,,"[4,5,3,9,2,1,7]",1,0,1,0,1,,,,,,,,,,,,,,,,,,,,,,,,,,,,,,,,,,,,,,,,,,,,,,,,
,,613fda883d650eff1765cd31,2022-09-08_18h21.27.782,CGTgamblingSpanTasks,2022.2.1,Win32,59.38594928,,,,,,,,,,,,,,,,,,,,,,,,,,,,,,,,,,,,,,,,,,,,,,,,,,,,,,,,,,,,,,,,,,,,,,,,,,,,,,,,,,"[4,5,3,9,2,1,7]",2,0,2,0,1,,,,,,,,,,,,,,,,,,,,,,,,,,,,,,,,,,,,,,,,,,,,,,,,
,,613fda883d650eff1765cd31,2022-09-08_18h21.27.782,CGTgamblingSpanTasks,2022.2.1,Win32,59.38594928,,,,,,,,,,,,,,,,,,,,,,,,,,,,,,,,,,,,,,,,,,,,,,,,,,,,,,,,,,,,,,,,,,,,,,,,,,,,,,,,,,"[4,5,3,9,2,1,7]",3,0,3,0,1,,,,,,,,,,,,,,,,,,,,,,,,,,,,,,,,,,,,,,,,,,,,,,,,
,,613fda883d650eff1765cd31,2022-09-08_18h21.27.782,CGTgamblingSpanTasks,2022.2.1,Win32,59.38594928,,,,,,,,,,,,,,,,,,,,,,,,,,,,,,,,,,,,,,,,,,,,,,,,,,,,,,,,,,,,,,,,,,,,,,,,,,,,,,,,,,"[4,5,3,9,2,1,7]",4,0,4,0,1,,,,,,,,,,,,,,,,,,,,,,,,,,,,,,,,,,,,,,,,,,,,,,,,
,,613fda883d650eff1765cd31,2022-09-08_18h21.27.782,CGTgamblingSpanTasks,2022.2.1,Win32,59.38594928,,,,,,,,,,,,,,,,,,,,,,,,,,,,,,,,,,,,,,,,,,,,,,,,,,,,,,,,,,,,,,,,,,,,,,,,,,,,,,,,,,"[4,5,3,9,2,1,7]",5,0,5,0,1,,,,,,,,,,,,,,,,,,,,,,,,,,,,,,,,,,,,,,,,,,,,,,,,
,,613fda883d650eff1765cd31,2022-09-08_18h21.27.782,CGTgamblingSpanTasks,2022.2.1,Win32,59.38594928,,,,,,,,,,,,,,,,,,,,,,,,,,,,,,,,,,,,,,,,,,,,,,,,,,,,,,,,,,,,,,,,,,,,,,,,,,,,,,,,,,"[4,5,3,9,2,1,7]",6,0,6,0,1,,,,,,,,,,,,,,,,,,,,,,,,,,,,,,,,,,,,,,,,,,,,,,,,
,,613fda883d650eff1765cd31,2022-09-08_18h21.27.782,CGTgamblingSpanTasks,2022.2.1,Win32,59.38594928,,,,,,,,,,,,,,,,,,,,,,,,,,,,,,,,,,,,,,,,,,,,,,,,,,,,,,,,,,,,,,,1,,,,,,,,,,,,,,,,,,,,,,,,,4539217,0.02734375,-0.404947917,1,0,0,cont_button,0,12,12,12,1,13,,,,,,,,,,,,,,,,,,,,,,,,,,,,,,,,,,,
,,613fda883d650eff1765cd31,2022-09-08_18h21.27.782,CGTgamblingSpanTasks,2022.2.1,Win32,59.38594928,,,,,,,,,,,,,,,,,,,,,,,,,,,,,,,,,,,,,,,,,,,,,,,,,,,,,,,,,,,,,,,,,,,,,,,,,,,,,,,,,,"[1,7,2,6,9,8,3,5]",0,0,0,0,1,,,,,,,,,,,,,,,,,,,,,,,,,,,,,,,,,,,,,,,,,,,,,,,,
,,613fda883d650eff1765cd31,2022-09-08_18h21.27.782,CGTgamblingSpanTasks,2022.2.1,Win32,59.38594928,,,,,,,,,,,,,,,,,,,,,,,,,,,,,,,,,,,,,,,,,,,,,,,,,,,,,,,,,,,,,,,,,,,,,,,,,,,,,,,,,,"[1,7,2,6,9,8,3,5]",1,0,1,0,1,,,,,,,,,,,,,,,,,,,,,,,,,,,,,,,,,,,,,,,,,,,,,,,,
,,613fda883d650eff1765cd31,2022-09-08_18h21.27.782,CGTgamblingSpanTasks,2022.2.1,Win32,59.38594928,,,,,,,,,,,,,,,,,,,,,,,,,,,,,,,,,,,,,,,,,,,,,,,,,,,,,,,,,,,,,,,,,,,,,,,,,,,,,,,,,,"[1,7,2,6,9,8,3,5]",2,0,2,0,1,,,,,,,,,,,,,,,,,,,,,,,,,,,,,,,,,,,,,,,,,,,,,,,,
,,613fda883d650eff1765cd31,2022-09-08_18h21.27.782,CGTgamblingSpanTasks,2022.2.1,Win32,59.38594928,,,,,,,,,,,,,,,,,,,,,,,,,,,,,,,,,,,,,,,,,,,,,,,,,,,,,,,,,,,,,,,,,,,,,,,,,,,,,,,,,,"[1,7,2,6,9,8,3,5]",3,0,3,0,1,,,,,,,,,,,,,,,,,,,,,,,,,,,,,,,,,,,,,,,,,,,,,,,,
,,613fda883d650eff1765cd31,2022-09-08_18h21.27.782,CGTgamblingSpanTasks,2022.2.1,Win32,59.38594928,,,,,,,,,,,,,,,,,,,,,,,,,,,,,,,,,,,,,,,,,,,,,,,,,,,,,,,,,,,,,,,,,,,,,,,,,,,,,,,,,,"[1,7,2,6,9,8,3,5]",4,0,4,0,1,,,,,,,,,,,,,,,,,,,,,,,,,,,,,,,,,,,,,,,,,,,,,,,,
,,613fda883d650eff1765cd31,2022-09-08_18h21.27.782,CGTgamblingSpanTasks,2022.2.1,Win32,59.38594928,,,,,,,,,,,,,,,,,,,,,,,,,,,,,,,,,,,,,,,,,,,,,,,,,,,,,,,,,,,,,,,,,,,,,,,,,,,,,,,,,,"[1,7,2,6,9,8,3,5]",5,0,5,0,1,,,,,,,,,,,,,,,,,,,,,,,,,,,,,,,,,,,,,,,,,,,,,,,,
,,613fda883d650eff1765cd31,2022-09-08_18h21.27.782,CGTgamblingSpanTasks,2022.2.1,Win32,59.38594928,,,,,,,,,,,,,,,,,,,,,,,,,,,,,,,,,,,,,,,,,,,,,,,,,,,,,,,,,,,,,,,,,,,,,,,,,,,,,,,,,,"[1,7,2,6,9,8,3,5]",6,0,6,0,1,,,,,,,,,,,,,,,,,,,,,,,,,,,,,,,,,,,,,,,,,,,,,,,,
,,613fda883d650eff1765cd31,2022-09-08_18h21.27.782,CGTgamblingSpanTasks,2022.2.1,Win32,59.38594928,,,,,,,,,,,,,,,,,,,,,,,,,,,,,,,,,,,,,,,,,,,,,,,,,,,,,,,,,,,,,,,,,,,,,,,,,,,,,,,,,,"[1,7,2,6,9,8,3,5]",7,0,7,0,1,,,,,,,,,,,,,,,,,,,,,,,,,,,,,,,,,,,,,,,,,,,,,,,,
,,613fda883d650eff1765cd31,2022-09-08_18h21.27.782,CGTgamblingSpanTasks,2022.2.1,Win32,59.38594928,,,,,,,,,,,,,,,,,,,,,,,,,,,,,,,,,,,,,,,,,,,,,,,,,,,,,,,,,,,,,,,0,,,,,,,,,,,,,,,,,,,,,,,,,17269872,-0.04296875,-0.415364583,1,0,0,cont_button,0,13,13,13,1,14,,,,,,,,,,,,,,,,,,,,,,,,,,,,,,,,,,,
,,613fda883d650eff1765cd31,2022-09-08_18h21.27.782,CGTgamblingSpanTasks,2022.2.1,Win32,59.38594928,,,,,,,,,,,,,,,,,,,,,,,,,,,,,,,,,,,,,,,,,,,,,,,,,,,,,,,,,,,,,,,,,,,,,,,,,,,,,,,,,,,,,,,,,,,,,,,,,,,,,return,21.8166,,,,,,,,,,,,,,,,,,,,,,,,,,,,,,,,,
,,613fda883d650eff1765cd31,2022-09-08_18h21.27.782,CGTgamblingSpanTasks,2022.2.1,Win32,59.38594928,,,,,,,,,,,,,,,,,,,,,,,,,,,,,,,,,,,,,,,,,,,,,,,,,,,,,,,,,,,,,,,,,,,,,,,,,,,,,,,,,,,,,,,,,,,,,,,,,,,,,,,return,34.1098,,,,,,,,,,,,,,,,,,,,,,,,,,,,,,,
,,613fda883d650eff1765cd31,2022-09-08_18h21.27.782,CGTgamblingSpanTasks,2022.2.1,Win32,59.38594928,,,,,,,,,,,,,,,,,,,,,,,,,,,,,,,,,,,,,,,,,,,,,,,,,,,,,,,,,,,,,,,1,,,,,,,,,,,,3,342,24,2,42,,,,,,,,,,,,,,,,,,,,,,,,,,42,-0.0078125,-0.380208333,1,0,0,cont_buttonPractice_2,0,0,0,0,1,,,,,,,,,,,,,,,,,,,
,,613fda883d650eff1765cd31,2022-09-08_18h21.27.782,CGTgamblingSpanTasks,2022.2.1,Win32,59.38594928,,,,,,,,,,,,,,,,,,,,,,,,,,,,,,,,,,,,,,,,,,,,,,,,,,,,,,,,,,,,,,,1,,,,,,,,,,,,3,937,73,2,37,,,,,,,,,,,,,,,,,,,,,,,,,,37,0.00390625,-0.380208333,1,0,0,cont_buttonPractice_2,0,1,1,1,1,,,,,,,,,,,,,,,,,,,
,,613fda883d650eff1765cd31,2022-09-08_18h21.27.782,CGTgamblingSpanTasks,2022.2.1,Win32,59.38594928,,,,,,,,,,,,,,,,,,,,,,,,,,,,,,,,,,,,,,,,,,,,,,,,,,,,,,,,,,,,,,,,,,,,,,,,,,,,,,,,,,,,,,,,,,,,,,,,,,,,,,,,,,,,,,,,,,,,,return,26.3502,,,,,,,,,,,,,,,,,
,,613fda883d650eff1765cd31,2022-09-08_18h21.27.782,CGTgamblingSpanTasks,2022.2.1,Win32,59.38594928,,,,,,,,,,,,,,,,,,,,,,,,,,,,,,,,,,,,,,,,,,,,,,,,,,,,,,,,,,,,,,,,,,,,,,,,,,,,,,,,,,"[2,3]",,,,,,,,,,,,,,,,,,,,,,,,,,,,,,,,,,,,,0,0,0,0,1,,,,,,,,,,,,
,,613fda883d650eff1765cd31,2022-09-08_18h21.27.782,CGTgamblingSpanTasks,2022.2.1,Win32,59.38594928,,,,,,,,,,,,,,,,,,,,,,,,,,,,,,,,,,,,,,,,,,,,,,,,,,,,,,,,,,,,,,,,,,,,,,,,,,,,,,,,,,"[2,3]",,,,,,,,,,,,,,,,,,,,,,,,,,,,,,,,,,,,,1,0,1,0,1,,,,,,,,,,,,
,,613fda883d650eff1765cd31,2022-09-08_18h21.27.782,CGTgamblingSpanTasks,2022.2.1,Win32,59.38594928,,,,,,,,,,,,,,,,,,,,,,,,,,,,,,,,,,,,,,,,,,,,,,,,,,,,,,,,,,,,,,,1,,,,,,,,,,,,,,,,,,,,,,,,,,,,,,,,,,,,,1,,,,,,,,,,,,,,,,,,,,,,,,32,-0.022135417,-0.420572917,1,0,0,cont_buttonBS,0,0,0,0,1
,,613fda883d650eff1765cd31,2022-09-08_18h21.27.782,CGTgamblingSpanTasks,2022.2.1,Win32,59.38594928,,,,,,,,,,,,,,,,,,,,,,,,,,,,,,,,,,,,,,,,,,,,,,,,,,,,,,,,,,,,,,,,,,,,,,,,,,,,,,,,,,"[4,6,1]",,,,,,,,,,,,,,,,,,,,,,,,,,,,,,,,,,,,,0,0,0,0,1,,,,,,,,,,,,
,,613fda883d650eff1765cd31,2022-09-08_18h21.27.782,CGTgamblingSpanTasks,2022.2.1,Win32,59.38594928,,,,,,,,,,,,,,,,,,,,,,,,,,,,,,,,,,,,,,,,,,,,,,,,,,,,,,,,,,,,,,,,,,,,,,,,,,,,,,,,,,"[4,6,1]",,,,,,,,,,,,,,,,,,,,,,,,,,,,,,,,,,,,,1,0,1,0,1,,,,,,,,,,,,
,,613fda883d650eff1765cd31,2022-09-08_18h21.27.782,CGTgamblingSpanTasks,2022.2.1,Win32,59.38594928,,,,,,,,,,,,,,,,,,,,,,,,,,,,,,,,,,,,,,,,,,,,,,,,,,,,,,,,,,,,,,,,,,,,,,,,,,,,,,,,,,"[4,6,1]",,,,,,,,,,,,,,,,,,,,,,,,,,,,,,,,,,,,,2,0,2,0,1,,,,,,,,,,,,
,,613fda883d650eff1765cd31,2022-09-08_18h21.27.782,CGTgamblingSpanTasks,2022.2.1,Win32,59.38594928,,,,,,,,,,,,,,,,,,,,,,,,,,,,,,,,,,,,,,,,,,,,,,,,,,,,,,,,,,,,,,,1,,,,,,,,,,,,,,,,,,,,,,,,,,,,,,,,,,,,,2,,,,,,,,,,,,,,,,,,,,,,,,164,-0.006510417,-0.411458333,1,0,0,cont_buttonBS,0,1,1,1,1
,,613fda883d650eff1765cd31,2022-09-08_18h21.27.782,CGTgamblingSpanTasks,2022.2.1,Win32,59.38594928,,,,,,,,,,,,,,,,,,,,,,,,,,,,,,,,,,,,,,,,,,,,,,,,,,,,,,,,,,,,,,,,,,,,,,,,,,,,,,,,,,"[5,9,6,8]",,,,,,,,,,,,,,,,,,,,,,,,,,,,,,,,,,,,,0,0,0,0,1,,,,,,,,,,,,
,,613fda883d650eff1765cd31,2022-09-08_18h21.27.782,CGTgamblingSpanTasks,2022.2.1,Win32,59.38594928,,,,,,,,,,,,,,,,,,,,,,,,,,,,,,,,,,,,,,,,,,,,,,,,,,,,,,,,,,,,,,,,,,,,,,,,,,,,,,,,,,"[5,9,6,8]",,,,,,,,,,,,,,,,,,,,,,,,,,,,,,,,,,,,,1,0,1,0,1,,,,,,,,,,,,
,,613fda883d650eff1765cd31,2022-09-08_18h21.27.782,CGTgamblingSpanTasks,2022.2.1,Win32,59.38594928,,,,,,,,,,,,,,,,,,,,,,,,,,,,,,,,,,,,,,,,,,,,,,,,,,,,,,,,,,,,,,,,,,,,,,,,,,,,,,,,,,"[5,9,6,8]",,,,,,,,,,,,,,,,,,,,,,,,,,,,,,,,,,,,,2,0,2,0,1,,,,,,,,,,,,
,,613fda883d650eff1765cd31,2022-09-08_18h21.27.782,CGTgamblingSpanTasks,2022.2.1,Win32,59.38594928,,,,,,,,,,,,,,,,,,,,,,,,,,,,,,,,,,,,,,,,,,,,,,,,,,,,,,,,,,,,,,,,,,,,,,,,,,,,,,,,,,"[5,9,6,8]",,,,,,,,,,,,,,,,,,,,,,,,,,,,,,,,,,,,,3,0,3,0,1,,,,,,,,,,,,
,,613fda883d650eff1765cd31,2022-09-08_18h21.27.782,CGTgamblingSpanTasks,2022.2.1,Win32,59.38594928,,,,,,,,,,,,,,,,,,,,,,,,,,,,,,,,,,,,,,,,,,,,,,,,,,,,,,,,,,,,,,,1,,,,,,,,,,,,,,,,,,,,,,,,,,,,,,,,,,,,,3,,,,,,,,,,,,,,,,,,,,,,,,8695,-0.057291667,-0.390625,1,0,0,cont_buttonBS,0,2,2,2,1
,,613fda883d650eff1765cd31,2022-09-08_18h21.27.782,CGTgamblingSpanTasks,2022.2.1,Win32,59.38594928,,,,,,,,,,,,,,,,,,,,,,,,,,,,,,,,,,,,,,,,,,,,,,,,,,,,,,,,,,,,,,,,,,,,,,,,,,,,,,,,,,"[2,1,8,9,3]",,,,,,,,,,,,,,,,,,,,,,,,,,,,,,,,,,,,,0,0,0,0,1,,,,,,,,,,,,
,,613fda883d650eff1765cd31,2022-09-08_18h21.27.782,CGTgamblingSpanTasks,2022.2.1,Win32,59.38594928,,,,,,,,,,,,,,,,,,,,,,,,,,,,,,,,,,,,,,,,,,,,,,,,,,,,,,,,,,,,,,,,,,,,,,,,,,,,,,,,,,"[2,1,8,9,3]",,,,,,,,,,,,,,,,,,,,,,,,,,,,,,,,,,,,,1,0,1,0,1,,,,,,,,,,,,
,,613fda883d650eff1765cd31,2022-09-08_18h21.27.782,CGTgamblingSpanTasks,2022.2.1,Win32,59.38594928,,,,,,,,,,,,,,,,,,,,,,,,,,,,,,,,,,,,,,,,,,,,,,,,,,,,,,,,,,,,,,,,,,,,,,,,,,,,,,,,,,"[2,1,8,9,3]",,,,,,,,,,,,,,,,,,,,,,,,,,,,,,,,,,,,,2,0,2,0,1,,,,,,,,,,,,
,,613fda883d650eff1765cd31,2022-09-08_18h21.27.782,CGTgamblingSpanTasks,2022.2.1,Win32,59.38594928,,,,,,,,,,,,,,,,,,,,,,,,,,,,,,,,,,,,,,,,,,,,,,,,,,,,,,,,,,,,,,,,,,,,,,,,,,,,,,,,,,"[2,1,8,9,3]",,,,,,,,,,,,,,,,,,,,,,,,,,,,,,,,,,,,,3,0,3,0,1,,,,,,,,,,,,
,,613fda883d650eff1765cd31,2022-09-08_18h21.27.782,CGTgamblingSpanTasks,2022.2.1,Win32,59.38594928,,,,,,,,,,,,,,,,,,,,,,,,,,,,,,,,,,,,,,,,,,,,,,,,,,,,,,,,,,,,,,,,,,,,,,,,,,,,,,,,,,"[2,1,8,9,3]",,,,,,,,,,,,,,,,,,,,,,,,,,,,,,,,,,,,,4,0,4,0,1,,,,,,,,,,,,
,,613fda883d650eff1765cd31,2022-09-08_18h21.27.782,CGTgamblingSpanTasks,2022.2.1,Win32,59.38594928,,,,,,,,,,,,,,,,,,,,,,,,,,,,,,,,,,,,,,,,,,,,,,,,,,,,,,,,,,,,,,,1,,,,,,,,,,,,,,,,,,,,,,,,,,,,,,,,,,,,,4,,,,,,,,,,,,,,,,,,,,,,,,39812,-0.015625,-0.403645833,1,0,0,cont_buttonBS,0,3,3,3,1
,,613fda883d650eff1765cd31,2022-09-08_18h21.27.782,CGTgamblingSpanTasks,2022.2.1,Win32,59.38594928,,,,,,,,,,,,,,,,,,,,,,,,,,,,,,,,,,,,,,,,,,,,,,,,,,,,,,,,,,,,,,,,,,,,,,,,,,,,,,,,,,"[4,2,7,8,6,5]",,,,,,,,,,,,,,,,,,,,,,,,,,,,,,,,,,,,,0,0,0,0,1,,,,,,,,,,,,
,,613fda883d650eff1765cd31,2022-09-08_18h21.27.782,CGTgamblingSpanTasks,2022.2.1,Win32,59.38594928,,,,,,,,,,,,,,,,,,,,,,,,,,,,,,,,,,,,,,,,,,,,,,,,,,,,,,,,,,,,,,,,,,,,,,,,,,,,,,,,,,"[4,2,7,8,6,5]",,,,,,,,,,,,,,,,,,,,,,,,,,,,,,,,,,,,,1,0,1,0,1,,,,,,,,,,,,
,,613fda883d650eff1765cd31,2022-09-08_18h21.27.782,CGTgamblingSpanTasks,2022.2.1,Win32,59.38594928,,,,,,,,,,,,,,,,,,,,,,,,,,,,,,,,,,,,,,,,,,,,,,,,,,,,,,,,,,,,,,,,,,,,,,,,,,,,,,,,,,"[4,2,7,8,6,5]",,,,,,,,,,,,,,,,,,,,,,,,,,,,,,,,,,,,,2,0,2,0,1,,,,,,,,,,,,
,,613fda883d650eff1765cd31,2022-09-08_18h21.27.782,CGTgamblingSpanTasks,2022.2.1,Win32,59.38594928,,,,,,,,,,,,,,,,,,,,,,,,,,,,,,,,,,,,,,,,,,,,,,,,,,,,,,,,,,,,,,,,,,,,,,,,,,,,,,,,,,"[4,2,7,8,6,5]",,,,,,,,,,,,,,,,,,,,,,,,,,,,,,,,,,,,,3,0,3,0,1,,,,,,,,,,,,
,,613fda883d650eff1765cd31,2022-09-08_18h21.27.782,CGTgamblingSpanTasks,2022.2.1,Win32,59.38594928,,,,,,,,,,,,,,,,,,,,,,,,,,,,,,,,,,,,,,,,,,,,,,,,,,,,,,,,,,,,,,,,,,,,,,,,,,,,,,,,,,"[4,2,7,8,6,5]",,,,,,,,,,,,,,,,,,,,,,,,,,,,,,,,,,,,,4,0,4,0,1,,,,,,,,,,,,
,,613fda883d650eff1765cd31,2022-09-08_18h21.27.782,CGTgamblingSpanTasks,2022.2.1,Win32,59.38594928,,,,,,,,,,,,,,,,,,,,,,,,,,,,,,,,,,,,,,,,,,,,,,,,,,,,,,,,,,,,,,,,,,,,,,,,,,,,,,,,,,"[4,2,7,8,6,5]",,,,,,,,,,,,,,,,,,,,,,,,,,,,,,,,,,,,,5,0,5,0,1,,,,,,,,,,,,
,,613fda883d650eff1765cd31,2022-09-08_18h21.27.782,CGTgamblingSpanTasks,2022.2.1,Win32,59.38594928,,,,,,,,,,,,,,,,,,,,,,,,,,,,,,,,,,,,,,,,,,,,,,,,,,,,,,,,,,,,,,,1,,,,,,,,,,,,,,,,,,,,,,,,,,,,,,,,,,,,,5,,,,,,,,,,,,,,,,,,,,,,,,568724,0.014322917,-0.41015625,1,0,0,cont_buttonBS,0,4,4,4,1
,,613fda883d650eff1765cd31,2022-09-08_18h21.27.782,CGTgamblingSpanTasks,2022.2.1,Win32,59.38594928,,,,,,,,,,,,,,,,,,,,,,,,,,,,,,,,,,,,,,,,,,,,,,,,,,,,,,,,,,,,,,,,,,,,,,,,,,,,,,,,,,"[4,7,6,3,1,5,8]",,,,,,,,,,,,,,,,,,,,,,,,,,,,,,,,,,,,,0,0,0,0,1,,,,,,,,,,,,
,,613fda883d650eff1765cd31,2022-09-08_18h21.27.782,CGTgamblingSpanTasks,2022.2.1,Win32,59.38594928,,,,,,,,,,,,,,,,,,,,,,,,,,,,,,,,,,,,,,,,,,,,,,,,,,,,,,,,,,,,,,,,,,,,,,,,,,,,,,,,,,"[4,7,6,3,1,5,8]",,,,,,,,,,,,,,,,,,,,,,,,,,,,,,,,,,,,,1,0,1,0,1,,,,,,,,,,,,
,,613fda883d650eff1765cd31,2022-09-08_18h21.27.782,CGTgamblingSpanTasks,2022.2.1,Win32,59.38594928,,,,,,,,,,,,,,,,,,,,,,,,,,,,,,,,,,,,,,,,,,,,,,,,,,,,,,,,,,,,,,,,,,,,,,,,,,,,,,,,,,"[4,7,6,3,1,5,8]",,,,,,,,,,,,,,,,,,,,,,,,,,,,,,,,,,,,,2,0,2,0,1,,,,,,,,,,,,
,,613fda883d650eff1765cd31,2022-09-08_18h21.27.782,CGTgamblingSpanTasks,2022.2.1,Win32,59.38594928,,,,,,,,,,,,,,,,,,,,,,,,,,,,,,,,,,,,,,,,,,,,,,,,,,,,,,,,,,,,,,,,,,,,,,,,,,,,,,,,,,"[4,7,6,3,1,5,8]",,,,,,,,,,,,,,,,,,,,,,,,,,,,,,,,,,,,,3,0,3,0,1,,,,,,,,,,,,
,,613fda883d650eff1765cd31,2022-09-08_18h21.27.782,CGTgamblingSpanTasks,2022.2.1,Win32,59.38594928,,,,,,,,,,,,,,,,,,,,,,,,,,,,,,,,,,,,,,,,,,,,,,,,,,,,,,,,,,,,,,,,,,,,,,,,,,,,,,,,,,"[4,7,6,3,1,5,8]",,,,,,,,,,,,,,,,,,,,,,,,,,,,,,,,,,,,,4,0,4,0,1,,,,,,,,,,,,
,,613fda883d650eff1765cd31,2022-09-08_18h21.27.782,CGTgamblingSpanTasks,2022.2.1,Win32,59.38594928,,,,,,,,,,,,,,,,,,,,,,,,,,,,,,,,,,,,,,,,,,,,,,,,,,,,,,,,,,,,,,,,,,,,,,,,,,,,,,,,,,"[4,7,6,3,1,5,8]",,,,,,,,,,,,,,,,,,,,,,,,,,,,,,,,,,,,,5,0,5,0,1,,,,,,,,,,,,
,,613fda883d650eff1765cd31,2022-09-08_18h21.27.782,CGTgamblingSpanTasks,2022.2.1,Win32,59.38594928,,,,,,,,,,,,,,,,,,,,,,,,,,,,,,,,,,,,,,,,,,,,,,,,,,,,,,,,,,,,,,,,,,,,,,,,,,,,,,,,,,"[4,7,6,3,1,5,8]",,,,,,,,,,,,,,,,,,,,,,,,,,,,,,,,,,,,,6,0,6,0,1,,,,,,,,,,,,
,,613fda883d650eff1765cd31,2022-09-08_18h21.27.782,CGTgamblingSpanTasks,2022.2.1,Win32,59.38594928,,,,,,,,,,,,,,,,,,,,,,,,,,,,,,,,,,,,,,,,,,,,,,,,,,,,,,,,,,,,,,,0,,,,,,,,,,,,,,,,,,,,,,,,,,,,,,,,,,,,,6,,,,,,,,,,,,,,,,,,,,,,,,1583647,-0.010416667,-0.407552083,1,0,0,cont_buttonBS,0,5,5,5,1
,,613fda883d650eff1765cd31,2022-09-08_18h21.27.782,CGTgamblingSpanTasks,2022.2.1,Win32,59.38594928,,,,,,,,,,,,,,,,,,,,,,,,,,,,,,,,,,,,,,,,,,,,,,,,,,,,,,,,,,,,,,,,,,,,,,,,,,,,,,,,,,"[8,7,1,3,5,2,9]",,,,,,,,,,,,,,,,,,,,,,,,,,,,,,,,,,,,,0,0,0,0,1,,,,,,,,,,,,
,,613fda883d650eff1765cd31,2022-09-08_18h21.27.782,CGTgamblingSpanTasks,2022.2.1,Win32,59.38594928,,,,,,,,,,,,,,,,,,,,,,,,,,,,,,,,,,,,,,,,,,,,,,,,,,,,,,,,,,,,,,,,,,,,,,,,,,,,,,,,,,"[8,7,1,3,5,2,9]",,,,,,,,,,,,,,,,,,,,,,,,,,,,,,,,,,,,,1,0,1,0,1,,,,,,,,,,,,
,,613fda883d650eff1765cd31,2022-09-08_18h21.27.782,CGTgamblingSpanTasks,2022.2.1,Win32,59.38594928,,,,,,,,,,,,,,,,,,,,,,,,,,,,,,,,,,,,,,,,,,,,,,,,,,,,,,,,,,,,,,,,,,,,,,,,,,,,,,,,,,"[8,7,1,3,5,2,9]",,,,,,,,,,,,,,,,,,,,,,,,,,,,,,,,,,,,,2,0,2,0,1,,,,,,,,,,,,
,,613fda883d650eff1765cd31,2022-09-08_18h21.27.782,CGTgamblingSpanTasks,2022.2.1,Win32,59.38594928,,,,,,,,,,,,,,,,,,,,,,,,,,,,,,,,,,,,,,,,,,,,,,,,,,,,,,,,,,,,,,,,,,,,,,,,,,,,,,,,,,"[8,7,1,3,5,2,9]",,,,,,,,,,,,,,,,,,,,,,,,,,,,,,,,,,,,,3,0,3,0,1,,,,,,,,,,,,
,,613fda883d650eff1765cd31,2022-09-08_18h21.27.782,CGTgamblingSpanTasks,2022.2.1,Win32,59.38594928,,,,,,,,,,,,,,,,,,,,,,,,,,,,,,,,,,,,,,,,,,,,,,,,,,,,,,,,,,,,,,,,,,,,,,,,,,,,,,,,,,"[8,7,1,3,5,2,9]",,,,,,,,,,,,,,,,,,,,,,,,,,,,,,,,,,,,,4,0,4,0,1,,,,,,,,,,,,
,,613fda883d650eff1765cd31,2022-09-08_18h21.27.782,CGTgamblingSpanTasks,2022.2.1,Win32,59.38594928,,,,,,,,,,,,,,,,,,,,,,,,,,,,,,,,,,,,,,,,,,,,,,,,,,,,,,,,,,,,,,,,,,,,,,,,,,,,,,,,,,"[8,7,1,3,5,2,9]",,,,,,,,,,,,,,,,,,,,,,,,,,,,,,,,,,,,,5,0,5,0,1,,,,,,,,,,,,
,,613fda883d650eff1765cd31,2022-09-08_18h21.27.782,CGTgamblingSpanTasks,2022.2.1,Win32,59.38594928,,,,,,,,,,,,,,,,,,,,,,,,,,,,,,,,,,,,,,,,,,,,,,,,,,,,,,,,,,,,,,,,,,,,,,,,,,,,,,,,,,"[8,7,1,3,5,2,9]",,,,,,,,,,,,,,,,,,,,,,,,,,,,,,,,,,,,,6,0,6,0,1,,,,,,,,,,,,
,,613fda883d650eff1765cd31,2022-09-08_18h21.27.782,CGTgamblingSpanTasks,2022.2.1,Win32,59.38594928,,,,,,,,,,,,,,,,,,,,,,,,,,,,,,,,,,,,,,,,,,,,,,,,,,,,,,,,,,,,,,,0,,,,,,,,,,,,,,,,,,,,,,,,,,,,,,,,,,,,,7,,,,,,,,,,,,,,,,,,,,,,,,2953178,-0.00390625,-0.373697917,1,0,0,cont_buttonBS,0,6,6,6,1
,,613fda883d650eff1765cd31,2022-09-08_18h21.27.782,CGTgamblingSpanTasks,2022.2.1,Win32,59.38594928,,,,,,,,,,,,,,,,,,,,,,,,,,,,,,,,,,,,,,,,,,,,,,,,,,,,,,,,,,,,,,,,,,,,,,,,,,,,,,,,,,"[9,5,1,8,2,7]",,,,,,,,,,,,,,,,,,,,,,,,,,,,,,,,,,,,,0,0,0,0,1,,,,,,,,,,,,
,,613fda883d650eff1765cd31,2022-09-08_18h21.27.782,CGTgamblingSpanTasks,2022.2.1,Win32,59.38594928,,,,,,,,,,,,,,,,,,,,,,,,,,,,,,,,,,,,,,,,,,,,,,,,,,,,,,,,,,,,,,,,,,,,,,,,,,,,,,,,,,"[9,5,1,8,2,7]",,,,,,,,,,,,,,,,,,,,,,,,,,,,,,,,,,,,,1,0,1,0,1,,,,,,,,,,,,
,,613fda883d650eff1765cd31,2022-09-08_18h21.27.782,CGTgamblingSpanTasks,2022.2.1,Win32,59.38594928,,,,,,,,,,,,,,,,,,,,,,,,,,,,,,,,,,,,,,,,,,,,,,,,,,,,,,,,,,,,,,,,,,,,,,,,,,,,,,,,,,"[9,5,1,8,2,7]",,,,,,,,,,,,,,,,,,,,,,,,,,,,,,,,,,,,,2,0,2,0,1,,,,,,,,,,,,
,,613fda883d650eff1765cd31,2022-09-08_18h21.27.782,CGTgamblingSpanTasks,2022.2.1,Win32,59.38594928,,,,,,,,,,,,,,,,,,,,,,,,,,,,,,,,,,,,,,,,,,,,,,,,,,,,,,,,,,,,,,,,,,,,,,,,,,,,,,,,,,"[9,5,1,8,2,7]",,,,,,,,,,,,,,,,,,,,,,,,,,,,,,,,,,,,,3,0,3,0,1,,,,,,,,,,,,
,,613fda883d650eff1765cd31,2022-09-08_18h21.27.782,CGTgamblingSpanTasks,2022.2.1,Win32,59.38594928,,,,,,,,,,,,,,,,,,,,,,,,,,,,,,,,,,,,,,,,,,,,,,,,,,,,,,,,,,,,,,,,,,,,,,,,,,,,,,,,,,"[9,5,1,8,2,7]",,,,,,,,,,,,,,,,,,,,,,,,,,,,,,,,,,,,,4,0,4,0,1,,,,,,,,,,,,
,,613fda883d650eff1765cd31,2022-09-08_18h21.27.782,CGTgamblingSpanTasks,2022.2.1,Win32,59.38594928,,,,,,,,,,,,,,,,,,,,,,,,,,,,,,,,,,,,,,,,,,,,,,,,,,,,,,,,,,,,,,,,,,,,,,,,,,,,,,,,,,"[9,5,1,8,2,7]",,,,,,,,,,,,,,,,,,,,,,,,,,,,,,,,,,,,,5,0,5,0,1,,,,,,,,,,,,
,,613fda883d650eff1765cd31,2022-09-08_18h21.27.782,CGTgamblingSpanTasks,2022.2.1,Win32,59.38594928,,,,,,,,,,,,,,,,,,,,,,,,,,,,,,,,,,,,,,,,,,,,,,,,,,,,,,,,,,,,,,,1,,,,,,,,,,,,,,,,,,,,,,,,,,,,,,,,,,,,,8,,,,,,,,,,,,,,,,,,,,,,,,728159,-0.010416667,-0.38671875,1,0,0,cont_buttonBS,0,7,7,7,1
,,613fda883d650eff1765cd31,2022-09-08_18h21.27.782,CGTgamblingSpanTasks,2022.2.1,Win32,59.38594928,,,,,,,,,,,,,,,,,,,,,,,,,,,,,,,,,,,,,,,,,,,,,,,,,,,,,,,,,,,,,,,,,,,,,,,,,,,,,,,,,,"[8,4,2,3,1,9,6]",,,,,,,,,,,,,,,,,,,,,,,,,,,,,,,,,,,,,0,0,0,0,1,,,,,,,,,,,,
,,613fda883d650eff1765cd31,2022-09-08_18h21.27.782,CGTgamblingSpanTasks,2022.2.1,Win32,59.38594928,,,,,,,,,,,,,,,,,,,,,,,,,,,,,,,,,,,,,,,,,,,,,,,,,,,,,,,,,,,,,,,,,,,,,,,,,,,,,,,,,,"[8,4,2,3,1,9,6]",,,,,,,,,,,,,,,,,,,,,,,,,,,,,,,,,,,,,1,0,1,0,1,,,,,,,,,,,,
,,613fda883d650eff1765cd31,2022-09-08_18h21.27.782,CGTgamblingSpanTasks,2022.2.1,Win32,59.38594928,,,,,,,,,,,,,,,,,,,,,,,,,,,,,,,,,,,,,,,,,,,,,,,,,,,,,,,,,,,,,,,,,,,,,,,,,,,,,,,,,,"[8,4,2,3,1,9,6]",,,,,,,,,,,,,,,,,,,,,,,,,,,,,,,,,,,,,2,0,2,0,1,,,,,,,,,,,,
,,613fda883d650eff1765cd31,2022-09-08_18h21.27.782,CGTgamblingSpanTasks,2022.2.1,Win32,59.38594928,,,,,,,,,,,,,,,,,,,,,,,,,,,,,,,,,,,,,,,,,,,,,,,,,,,,,,,,,,,,,,,,,,,,,,,,,,,,,,,,,,"[8,4,2,3,1,9,6]",,,,,,,,,,,,,,,,,,,,,,,,,,,,,,,,,,,,,3,0,3,0,1,,,,,,,,,,,,
,,613fda883d650eff1765cd31,2022-09-08_18h21.27.782,CGTgamblingSpanTasks,2022.2.1,Win32,59.38594928,,,,,,,,,,,,,,,,,,,,,,,,,,,,,,,,,,,,,,,,,,,,,,,,,,,,,,,,,,,,,,,,,,,,,,,,,,,,,,,,,,"[8,4,2,3,1,9,6]",,,,,,,,,,,,,,,,,,,,,,,,,,,,,,,,,,,,,4,0,4,0,1,,,,,,,,,,,,
,,613fda883d650eff1765cd31,2022-09-08_18h21.27.782,CGTgamblingSpanTasks,2022.2.1,Win32,59.38594928,,,,,,,,,,,,,,,,,,,,,,,,,,,,,,,,,,,,,,,,,,,,,,,,,,,,,,,,,,,,,,,,,,,,,,,,,,,,,,,,,,"[8,4,2,3,1,9,6]",,,,,,,,,,,,,,,,,,,,,,,,,,,,,,,,,,,,,5,0,5,0,1,,,,,,,,,,,,
,,613fda883d650eff1765cd31,2022-09-08_18h21.27.782,CGTgamblingSpanTasks,2022.2.1,Win32,59.38594928,,,,,,,,,,,,,,,,,,,,,,,,,,,,,,,,,,,,,,,,,,,,,,,,,,,,,,,,,,,,,,,,,,,,,,,,,,,,,,,,,,"[8,4,2,3,1,9,6]",,,,,,,,,,,,,,,,,,,,,,,,,,,,,,,,,,,,,6,0,6,0,1,,,,,,,,,,,,
