initITIstatic,initITIdynamic,participant,date,expName,psychopyVersion,OS,frameRate,inst1.keys,inst1.rt,startPracResp.keys,startPracResp.rt,choice1.keys,choice1.rt,outcome,extraITI,trials.thisRepN,trials.thisTrialN,trials.thisN,trials.thisIndex,trials.ran,riskyGain,riskyLoss,alternative,isi,iti,loc,postPractResp.keys,postPractResp.rt,realloc,realChoice.keys,realChoice.rt,outcomes,choices,actualITI,init ITI,staticRDM.thisRepN,staticRDM.thisTrialN,staticRDM.thisN,staticRDM.thisIndex,staticRDM.ran,riskyoption1,riskyoption2,safeoption,ischecktrial,dynamicChoiceSetName,dynamicChoiceSetPath,bestRho,bestMu,trials_2.thisRepN,trials_2.thisTrialN,trials_2.thisN,trials_2.thisIndex,trials_2.ran,key_resp.keys,key_resp.rt,dynamicRDM.thisRepN,dynamicRDM.thisTrialN,dynamicRDM.thisN,dynamicRDM.thisIndex,dynamicRDM.ran,choiceP,easy0difficult1,stopBreak.keys,stopBreak.rt,movealong.keys,movealong.rt,startPractice.keys,startPractice.rt,textboxPractice.text,correct,mousePractice.x,mousePractice.y,mousePractice.leftButton,mousePractice.midButton,mousePractice.rightButton,mousePractice.clicked_name,trialFSPractice.thisRepN,trialFSPractice.thisTrialN,trialFSPractice.thisN,trialFSPractice.thisIndex,trialFSPractice.ran,digitSpanForward,digits,digitsReverse,digitSpanReverse,digitsReverseCorrAnswer,startFSreal.keys,startFSreal.rt,digitsForTrial,digitLoop.thisRepN,digitLoop.thisTrialN,digitLoop.thisN,digitLoop.thisIndex,digitLoop.ran,textbox.text,mouse_3.x,mouse_3.y,mouse_3.leftButton,mouse_3.midButton,mouse_3.rightButton,mouse_3.clicked_name,trialsFS.thisRepN,trialsFS.thisTrialN,trialsFS.thisN,trialsFS.thisIndex,trialsFS.ran,trialNumber,moveToBS.keys,moveToBS.rt,startBSprac.keys,startBSprac.rt,textboxPractice_2.text,mousePractice_2.x,mousePractice_2.y,mousePractice_2.leftButton,mousePractice_2.midButton,mousePractice_2.rightButton,mousePractice_2.clicked_name,trialsPracticeBS.thisRepN,trialsPracticeBS.thisTrialN,trialsPracticeBS.thisN,trialsPracticeBS.thisIndex,trialsPracticeBS.ran,startBSreal.keys,startBSreal.rt,digitLoopBS.thisRepN,digitLoopBS.thisTrialN,digitLoopBS.thisN,digitLoopBS.thisIndex,digitLoopBS.ran,textboxBS.text,mouseBS.x,mouseBS.y,mouseBS.leftButton,mouseBS.midButton,mouseBS.rightButton,mouseBS.clicked_name,trialsBS.thisRepN,trialsBS.thisTrialN,trialsBS.thisN,trialsBS.thisIndex,trialsBS.ran
"[1.5,1.5,1.5,1,1,1,1,1.5,1,1,1.5,1,1,1,1.5,1,1,1,1.5,1.5,1,1.5,1.5,1.5,1.5,1,1.5,1.5,1.5,1,1.5,1,1.5,1,1.5,1.5,1.5,1,1,1.5,1.5,1,1,1.5,1,1,1.5,1.5,1,1]","[1.5,1,1,1.5,1.5,1.5,1.5,1.5,1.5,1.5,1.5,1,1.5,1,1,1.5,1.5,1.5,1.5,1,1.5,1,1,1,1.5,1,1,1,1.5,1,1.5,1,1,1.5,1.5,1,1.5,1.5,1.5,1.5,1.5,1,1.5,1,1,1.5,1,1,1.5,1.5,1,1.5,1.5,1,1.5,1.5,1,1,1.5,1,1,1,1,1,1,1.5,1.5,1,1,1.5,1.5,1.5,1.5,1,1.5,1,1,1.5,1,1.5,1.5,1,1,1,1.5,1.5,1,1.5,1,1,1.5,1,1.5,1,1,1.5,1,1.5,1,1,1,1,1.5,1.5,1,1,1,1.5,1,1.5,1.5,1,1,1.5,1,1.5,1.5,1.5,1,1]",5dc61208dd2b7747f95b3c9f,2022-09-08_13h57.33.012,CGTgamblingSpanTasks,2022.2.1,Linux x86_64,59.99880002,,,,,,,,,,,,,,,,,,,,,,,,,,,,,,,,,,,,,,,,,,,,,,,,,,,,,,,,,,,,,,,,,,,,,,,,,,,,,,,,,,,,,,,,,,,,,,,,,,,,,,,,,,,,,,,,,,,,,,,,,,,,,,,,,,,,,,,
,,5dc61208dd2b7747f95b3c9f,2022-09-08_13h57.33.012,CGTgamblingSpanTasks,2022.2.1,Linux x86_64,59.99880002,return,9.2995,,,,,,,,,,,,,,,,,,,,,,,,,,,,,,,,,,,,,,,,,,,,,,,,,,,,,,,,,,,,,,,,,,,,,,,,,,,,,,,,,,,,,,,,,,,,,,,,,,,,,,,,,,,,,,,,,,,,,,,,,,,,,,,,,,,,,
,,5dc61208dd2b7747f95b3c9f,2022-09-08_13h57.33.012,CGTgamblingSpanTasks,2022.2.1,Linux x86_64,59.99880002,,,v,0.7503,,,,,,,,,,,,,,,,,,,,,,,,,,,,,,,,,,,,,,,,,,,,,,,,,,,,,,,,,,,,,,,,,,,,,,,,,,,,,,,,,,,,,,,,,,,,,,,,,,,,,,,,,,,,,,,,,,,,,,,,,,,,,,,,,,,
,,5dc61208dd2b7747f95b3c9f,2022-09-08_13h57.33.012,CGTgamblingSpanTasks,2022.2.1,Linux x86_64,59.99880002,,,,,v,1.3017,0,2.6983,0,0,0,0,1,18.23,0,9.45,2,1,1,,,,,,,,,,,,,,,,,,,,,,,,,,,,,,,,,,,,,,,,,,,,,,,,,,,,,,,,,,,,,,,,,,,,,,,,,,,,,,,,,,,,,,,,,,,,,,,,,,,,,,,,,,,,,,,,,,,,
,,5dc61208dd2b7747f95b3c9f,2022-09-08_13h57.33.012,CGTgamblingSpanTasks,2022.2.1,Linux x86_64,59.99880002,,,,,n,1.4108,35.16,2.5892,0,1,1,1,1,53.27,0,35.16,1,1.5,1,,,,,,,,,,,,,,,,,,,,,,,,,,,,,,,,,,,,,,,,,,,,,,,,,,,,,,,,,,,,,,,,,,,,,,,,,,,,,,,,,,,,,,,,,,,,,,,,,,,,,,,,,,,,,,,,,,,,
,,5dc61208dd2b7747f95b3c9f,2022-09-08_13h57.33.012,CGTgamblingSpanTasks,2022.2.1,Linux x86_64,59.99880002,,,,,n,1.5829,0,2.4171,0,2,2,2,1,8.27,0,1.15,1,1.5,2,,,,,,,,,,,,,,,,,,,,,,,,,,,,,,,,,,,,,,,,,,,,,,,,,,,,,,,,,,,,,,,,,,,,,,,,,,,,,,,,,,,,,,,,,,,,,,,,,,,,,,,,,,,,,,,,,,,,
,,5dc61208dd2b7747f95b3c9f,2022-09-08_13h57.33.012,CGTgamblingSpanTasks,2022.2.1,Linux x86_64,59.99880002,,,,,v,1.3937,0,2.6063,0,3,3,3,1,45.88,0,40.41,3,1,1,,,,,,,,,,,,,,,,,,,,,,,,,,,,,,,,,,,,,,,,,,,,,,,,,,,,,,,,,,,,,,,,,,,,,,,,,,,,,,,,,,,,,,,,,,,,,,,,,,,,,,,,,,,,,,,,,,,,
,,5dc61208dd2b7747f95b3c9f,2022-09-08_13h57.33.012,CGTgamblingSpanTasks,2022.2.1,Linux x86_64,59.99880002,,,,,n,1.7324,0,2.2676,0,4,4,4,1,21.56,0,11.96,1,1.5,2,,,,,,,,,,,,,,,,,,,,,,,,,,,,,,,,,,,,,,,,,,,,,,,,,,,,,,,,,,,,,,,,,,,,,,,,,,,,,,,,,,,,,,,,,,,,,,,,,,,,,,,,,,,,,,,,,,,,
,,5dc61208dd2b7747f95b3c9f,2022-09-08_13h57.33.012,CGTgamblingSpanTasks,2022.2.1,Linux x86_64,59.99880002,,,,,,,,,,,,,,,,,,,,v,1.6002,,,,,,,,,,,,,,,,,,,,,,,,,,,,,,,,,,,,,,,,,,,,,,,,,,,,,,,,,,,,,,,,,,,,,,,,,,,,,,,,,,,,,,,,,,,,,,,,,,,,,,,,,,,,,,,,,,
,,5dc61208dd2b7747f95b3c9f,2022-09-08_13h57.33.012,CGTgamblingSpanTasks,2022.2.1,Linux x86_64,59.99880002,,,,,,,,2.6022,,,,,,,,,,,,,,2,n,1.3978,16,1,4.1022,1.5,0,0,0,4,1,16,0,4,0,,,,,,,,,,,,,,,,,,,,,,,,,,,,,,,,,,,,,,,,,,,,,,,,,,,,,,,,,,,,,,,,,,,,,,,,,,,,,,,,,,,,,,,,,,,,,,,,,,
,,5dc61208dd2b7747f95b3c9f,2022-09-08_13h57.33.012,CGTgamblingSpanTasks,2022.2.1,Linux x86_64,59.99880002,,,,,,,,2.7009,,,,,,,,,,,,,,2,n,1.2991,0,1,4.2009,1.5,0,1,1,37,1,15.27,0,10.37,0,,,,,,,,,,,,,,,,,,,,,,,,,,,,,,,,,,,,,,,,,,,,,,,,,,,,,,,,,,,,,,,,,,,,,,,,,,,,,,,,,,,,,,,,,,,,,,,,,,
,,5dc61208dd2b7747f95b3c9f,2022-09-08_13h57.33.012,CGTgamblingSpanTasks,2022.2.1,Linux x86_64,59.99880002,,,,,,,,2.3336,,,,,,,,,,,,,,1,n,1.6664,3.13,0,3.8336,1.5,0,2,2,47,1,0,0,3.13,1,,,,,,,,,,,,,,,,,,,,,,,,,,,,,,,,,,,,,,,,,,,,,,,,,,,,,,,,,,,,,,,,,,,,,,,,,,,,,,,,,,,,,,,,,,,,,,,,,,
,,5dc61208dd2b7747f95b3c9f,2022-09-08_13h57.33.012,CGTgamblingSpanTasks,2022.2.1,Linux x86_64,59.99880002,,,,,,,,2.3683,,,,,,,,,,,,,,2,v,1.6317,10.27,0,3.3683,1,0,3,3,35,1,15.47,0,10.27,0,,,,,,,,,,,,,,,,,,,,,,,,,,,,,,,,,,,,,,,,,,,,,,,,,,,,,,,,,,,,,,,,,,,,,,,,,,,,,,,,,,,,,,,,,,,,,,,,,,
,,5dc61208dd2b7747f95b3c9f,2022-09-08_13h57.33.012,CGTgamblingSpanTasks,2022.2.1,Linux x86_64,59.99880002,,,,,,,,3.0341,,,,,,,,,,,,,,2,n,0.9659,0,1,4.0341,1,0,4,4,40,1,10.35,0,0,1,,,,,,,,,,,,,,,,,,,,,,,,,,,,,,,,,,,,,,,,,,,,,,,,,,,,,,,,,,,,,,,,,,,,,,,,,,,,,,,,,,,,,,,,,,,,,,,,,,
,,5dc61208dd2b7747f95b3c9f,2022-09-08_13h57.33.012,CGTgamblingSpanTasks,2022.2.1,Linux x86_64,59.99880002,,,,,,,,2.5752,,,,,,,,,,,,,,1,n,1.4248,9.92,0,3.5752,1,0,5,5,49,1,6.79,0,9.92,1,,,,,,,,,,,,,,,,,,,,,,,,,,,,,,,,,,,,,,,,,,,,,,,,,,,,,,,,,,,,,,,,,,,,,,,,,,,,,,,,,,,,,,,,,,,,,,,,,,
,,5dc61208dd2b7747f95b3c9f,2022-09-08_13h57.33.012,CGTgamblingSpanTasks,2022.2.1,Linux x86_64,59.99880002,,,,,,,,2.6841,,,,,,,,,,,,,,1,v,1.3159,0,1,3.6841,1,0,6,6,19,1,17.94,0,9.03,0,,,,,,,,,,,,,,,,,,,,,,,,,,,,,,,,,,,,,,,,,,,,,,,,,,,,,,,,,,,,,,,,,,,,,,,,,,,,,,,,,,,,,,,,,,,,,,,,,,
,,5dc61208dd2b7747f95b3c9f,2022-09-08_13h57.33.012,CGTgamblingSpanTasks,2022.2.1,Linux x86_64,59.99880002,,,,,,,,3.036,,,,,,,,,,,,,,1,v,0.964,10.39,1,4.536,1.5,0,7,7,34,1,10.39,0,6.81,0,,,,,,,,,,,,,,,,,,,,,,,,,,,,,,,,,,,,,,,,,,,,,,,,,,,,,,,,,,,,,,,,,,,,,,,,,,,,,,,,,,,,,,,,,,,,,,,,,,
,,5dc61208dd2b7747f95b3c9f,2022-09-08_13h57.33.012,CGTgamblingSpanTasks,2022.2.1,Linux x86_64,59.99880002,,,,,,,,2.2346,,,,,,,,,,,,,,2,n,1.7654,0,1,3.2346,1,0,8,8,8,1,13.94,0,5.03,0,,,,,,,,,,,,,,,,,,,,,,,,,,,,,,,,,,,,,,,,,,,,,,,,,,,,,,,,,,,,,,,,,,,,,,,,,,,,,,,,,,,,,,,,,,,,,,,,,,
,,5dc61208dd2b7747f95b3c9f,2022-09-08_13h57.33.012,CGTgamblingSpanTasks,2022.2.1,Linux x86_64,59.99880002,,,,,,,,2.4963,,,,,,,,,,,,,,1,n,1.5037,8.07,0,3.4963,1,0,9,9,11,1,19.86,0,8.07,0,,,,,,,,,,,,,,,,,,,,,,,,,,,,,,,,,,,,,,,,,,,,,,,,,,,,,,,,,,,,,,,,,,,,,,,,,,,,,,,,,,,,,,,,,,,,,,,,,,
,,5dc61208dd2b7747f95b3c9f,2022-09-08_13h57.33.012,CGTgamblingSpanTasks,2022.2.1,Linux x86_64,59.99880002,,,,,,,,2.9037,,,,,,,,,,,,,,1,n,1.0963,10.68,0,4.4037,1.5,0,10,10,48,1,10.68,0,10.68,1,,,,,,,,,,,,,,,,,,,,,,,,,,,,,,,,,,,,,,,,,,,,,,,,,,,,,,,,,,,,,,,,,,,,,,,,,,,,,,,,,,,,,,,,,,,,,,,,,,
,,5dc61208dd2b7747f95b3c9f,2022-09-08_13h57.33.012,CGTgamblingSpanTasks,2022.2.1,Linux x86_64,59.99880002,,,,,,,,2.4753,,,,,,,,,,,,,,1,n,1.5247,6.99,0,3.4753,1,0,11,11,43,1,16.11,6.99,6.99,1,,,,,,,,,,,,,,,,,,,,,,,,,,,,,,,,,,,,,,,,,,,,,,,,,,,,,,,,,,,,,,,,,,,,,,,,,,,,,,,,,,,,,,,,,,,,,,,,,,
,,5dc61208dd2b7747f95b3c9f,2022-09-08_13h57.33.012,CGTgamblingSpanTasks,2022.2.1,Linux x86_64,59.99880002,,,,,,,,2.58,,,,,,,,,,,,,,2,n,1.42,25.2,1,3.58,1,0,12,12,3,1,25.2,0,5.4,0,,,,,,,,,,,,,,,,,,,,,,,,,,,,,,,,,,,,,,,,,,,,,,,,,,,,,,,,,,,,,,,,,,,,,,,,,,,,,,,,,,,,,,,,,,,,,,,,,,
,,5dc61208dd2b7747f95b3c9f,2022-09-08_13h57.33.012,CGTgamblingSpanTasks,2022.2.1,Linux x86_64,59.99880002,,,,,,,,2.4811,,,,,,,,,,,,,,2,v,1.5189,6.63,0,3.4811,1,0,13,13,30,1,10.73,0,6.63,0,,,,,,,,,,,,,,,,,,,,,,,,,,,,,,,,,,,,,,,,,,,,,,,,,,,,,,,,,,,,,,,,,,,,,,,,,,,,,,,,,,,,,,,,,,,,,,,,,,
,,5dc61208dd2b7747f95b3c9f,2022-09-08_13h57.33.012,CGTgamblingSpanTasks,2022.2.1,Linux x86_64,59.99880002,,,,,,,,2.4157,,,,,,,,,,,,,,2,v,1.5843,10.02,0,3.9157,1.5,0,14,14,31,1,15.96,0,10.02,0,,,,,,,,,,,,,,,,,,,,,,,,,,,,,,,,,,,,,,,,,,,,,,,,,,,,,,,,,,,,,,,,,,,,,,,,,,,,,,,,,,,,,,,,,,,,,,,,,,
,,5dc61208dd2b7747f95b3c9f,2022-09-08_13h57.33.012,CGTgamblingSpanTasks,2022.2.1,Linux x86_64,59.99880002,,,,,,,,2.9022,,,,,,,,,,,,,,2,n,1.0978,0,1,3.9022,1,0,15,15,26,1,11.2,0,6.4,0,,,,,,,,,,,,,,,,,,,,,,,,,,,,,,,,,,,,,,,,,,,,,,,,,,,,,,,,,,,,,,,,,,,,,,,,,,,,,,,,,,,,,,,,,,,,,,,,,,
,,5dc61208dd2b7747f95b3c9f,2022-09-08_13h57.33.012,CGTgamblingSpanTasks,2022.2.1,Linux x86_64,59.99880002,,,,,,,,3.1181,,,,,,,,,,,,,,1,v,0.8819,20.03,1,4.1181,1,0,16,16,0,1,20.03,0,1.99,0,,,,,,,,,,,,,,,,,,,,,,,,,,,,,,,,,,,,,,,,,,,,,,,,,,,,,,,,,,,,,,,,,,,,,,,,,,,,,,,,,,,,,,,,,,,,,,,,,,
,,5dc61208dd2b7747f95b3c9f,2022-09-08_13h57.33.012,CGTgamblingSpanTasks,2022.2.1,Linux x86_64,59.99880002,,,,,,,,2.654,,,,,,,,,,,,,,2,n,1.346,0,1,3.654,1,0,17,17,24,1,11.43,0,6.29,0,,,,,,,,,,,,,,,,,,,,,,,,,,,,,,,,,,,,,,,,,,,,,,,,,,,,,,,,,,,,,,,,,,,,,,,,,,,,,,,,,,,,,,,,,,,,,,,,,,
,,5dc61208dd2b7747f95b3c9f,2022-09-08_13h57.33.012,CGTgamblingSpanTasks,2022.2.1,Linux x86_64,59.99880002,,,,,,,,2.1003,,,,,,,,,,,,,,1,v,1.8997,0,1,3.6003,1.5,0,18,18,17,1,18.33,0,8.84,0,,,,,,,,,,,,,,,,,,,,,,,,,,,,,,,,,,,,,,,,,,,,,,,,,,,,,,,,,,,,,,,,,,,,,,,,,,,,,,,,,,,,,,,,,,,,,,,,,,
,,5dc61208dd2b7747f95b3c9f,2022-09-08_13h57.33.012,CGTgamblingSpanTasks,2022.2.1,Linux x86_64,59.99880002,,,,,,,,2.5857,,,,,,,,,,,,,,2,n,1.4143,0,1,4.0857,1.5,0,19,19,2,1,17.73,0,3.13,0,,,,,,,,,,,,,,,,,,,,,,,,,,,,,,,,,,,,,,,,,,,,,,,,,,,,,,,,,,,,,,,,,,,,,,,,,,,,,,,,,,,,,,,,,,,,,,,,,,
,,5dc61208dd2b7747f95b3c9f,2022-09-08_13h57.33.012,CGTgamblingSpanTasks,2022.2.1,Linux x86_64,59.99880002,,,,,,,,2.6508,,,,,,,,,,,,,,2,n,1.3492,0,1,3.6508,1,0,20,20,13,1,19.28,0,8.36,0,,,,,,,,,,,,,,,,,,,,,,,,,,,,,,,,,,,,,,,,,,,,,,,,,,,,,,,,,,,,,,,,,,,,,,,,,,,,,,,,,,,,,,,,,,,,,,,,,,
,,5dc61208dd2b7747f95b3c9f,2022-09-08_13h57.33.012,CGTgamblingSpanTasks,2022.2.1,Linux x86_64,59.99880002,,,,,,,,2.1666,,,,,,,,,,,,,,2,n,1.8334,0,1,3.6666,1.5,0,21,21,12,1,13.04,0,5.48,0,,,,,,,,,,,,,,,,,,,,,,,,,,,,,,,,,,,,,,,,,,,,,,,,,,,,,,,,,,,,,,,,,,,,,,,,,,,,,,,,,,,,,,,,,,,,,,,,,,
,,5dc61208dd2b7747f95b3c9f,2022-09-08_13h57.33.012,CGTgamblingSpanTasks,2022.2.1,Linux x86_64,59.99880002,,,,,,,,2.1178,,,,,,,,,,,,,,2,n,1.8822,16.6,1,3.6178,1.5,0,22,22,27,1,16.6,0,9.7,0,,,,,,,,,,,,,,,,,,,,,,,,,,,,,,,,,,,,,,,,,,,,,,,,,,,,,,,,,,,,,,,,,,,,,,,,,,,,,,,,,,,,,,,,,,,,,,,,,,
,,5dc61208dd2b7747f95b3c9f,2022-09-08_13h57.33.012,CGTgamblingSpanTasks,2022.2.1,Linux x86_64,59.99880002,,,,,,,,3.1351,,,,,,,,,,,,,,2,n,0.8649,0,1,4.6351,1.5,0,23,23,42,1,19.86,0,0,1,,,,,,,,,,,,,,,,,,,,,,,,,,,,,,,,,,,,,,,,,,,,,,,,,,,,,,,,,,,,,,,,,,,,,,,,,,,,,,,,,,,,,,,,,,,,,,,,,,
,,5dc61208dd2b7747f95b3c9f,2022-09-08_13h57.33.012,CGTgamblingSpanTasks,2022.2.1,Linux x86_64,59.99880002,,,,,,,,2.4825,,,,,,,,,,,,,,1,v,1.5175,0,1,3.9825,1.5,0,24,24,5,1,22.97,0,6.51,0,,,,,,,,,,,,,,,,,,,,,,,,,,,,,,,,,,,,,,,,,,,,,,,,,,,,,,,,,,,,,,,,,,,,,,,,,,,,,,,,,,,,,,,,,,,,,,,,,,
,,5dc61208dd2b7747f95b3c9f,2022-09-08_13h57.33.012,CGTgamblingSpanTasks,2022.2.1,Linux x86_64,59.99880002,,,,,,,,3.0451,,,,,,,,,,,,,,2,n,0.9549,0,1,4.0451,1,0,25,25,6,1,14.72,0,4.64,0,,,,,,,,,,,,,,,,,,,,,,,,,,,,,,,,,,,,,,,,,,,,,,,,,,,,,,,,,,,,,,,,,,,,,,,,,,,,,,,,,,,,,,,,,,,,,,,,,,
,,5dc61208dd2b7747f95b3c9f,2022-09-08_13h57.33.012,CGTgamblingSpanTasks,2022.2.1,Linux x86_64,59.99880002,,,,,,,,3.2027,,,,,,,,,,,,,,2,n,0.7973,0,1,4.7027,1.5,0,26,26,16,1,12.36,0,5.82,0,,,,,,,,,,,,,,,,,,,,,,,,,,,,,,,,,,,,,,,,,,,,,,,,,,,,,,,,,,,,,,,,,,,,,,,,,,,,,,,,,,,,,,,,,,,,,,,,,,
,,5dc61208dd2b7747f95b3c9f,2022-09-08_13h57.33.012,CGTgamblingSpanTasks,2022.2.1,Linux x86_64,59.99880002,,,,,,,,3.0488,,,,,,,,,,,,,,1,v,0.9512,0,1,4.5488,1.5,0,27,27,15,1,18.77,0,8.61,0,,,,,,,,,,,,,,,,,,,,,,,,,,,,,,,,,,,,,,,,,,,,,,,,,,,,,,,,,,,,,,,,,,,,,,,,,,,,,,,,,,,,,,,,,,,,,,,,,,
,,5dc61208dd2b7747f95b3c9f,2022-09-08_13h57.33.012,CGTgamblingSpanTasks,2022.2.1,Linux x86_64,59.99880002,,,,,,,,2.9509,,,,,,,,,,,,,,2,n,1.0491,10.95,1,4.4509,1.5,0,28,28,28,1,10.95,0,6.53,0,,,,,,,,,,,,,,,,,,,,,,,,,,,,,,,,,,,,,,,,,,,,,,,,,,,,,,,,,,,,,,,,,,,,,,,,,,,,,,,,,,,,,,,,,,,,,,,,,,
,,5dc61208dd2b7747f95b3c9f,2022-09-08_13h57.33.012,CGTgamblingSpanTasks,2022.2.1,Linux x86_64,59.99880002,,,,,,,,2.85,,,,,,,,,,,,,,2,n,1.15,0,1,3.85,1,0,29,29,25,1,17,0,9.5,0,,,,,,,,,,,,,,,,,,,,,,,,,,,,,,,,,,,,,,,,,,,,,,,,,,,,,,,,,,,,,,,,,,,,,,,,,,,,,,,,,,,,,,,,,,,,,,,,,,
,,5dc61208dd2b7747f95b3c9f,2022-09-08_13h57.33.012,CGTgamblingSpanTasks,2022.2.1,Linux x86_64,59.99880002,,,,,,,,2.7188,,,,,,,,,,,,,,1,v,1.2812,21.32,1,4.2188,1.5,0,30,30,7,1,21.32,0,7.34,0,,,,,,,,,,,,,,,,,,,,,,,,,,,,,,,,,,,,,,,,,,,,,,,,,,,,,,,,,,,,,,,,,,,,,,,,,,,,,,,,,,,,,,,,,,,,,,,,,,
,,5dc61208dd2b7747f95b3c9f,2022-09-08_13h57.33.012,CGTgamblingSpanTasks,2022.2.1,Linux x86_64,59.99880002,,,,,,,,3.0606,,,,,,,,,,,,,,1,v,0.9394,0,1,4.0606,1,0,31,31,21,1,17.59,0,9.2,0,,,,,,,,,,,,,,,,,,,,,,,,,,,,,,,,,,,,,,,,,,,,,,,,,,,,,,,,,,,,,,,,,,,,,,,,,,,,,,,,,,,,,,,,,,,,,,,,,,
,,5dc61208dd2b7747f95b3c9f,2022-09-08_13h57.33.012,CGTgamblingSpanTasks,2022.2.1,Linux x86_64,59.99880002,,,,,,,,2.8805,,,,,,,,,,,,,,1,n,1.1195,6.73,0,4.3805,1.5,0,32,32,32,1,10.55,0,6.73,0,,,,,,,,,,,,,,,,,,,,,,,,,,,,,,,,,,,,,,,,,,,,,,,,,,,,,,,,,,,,,,,,,,,,,,,,,,,,,,,,,,,,,,,,,,,,,,,,,,
,,5dc61208dd2b7747f95b3c9f,2022-09-08_13h57.33.012,CGTgamblingSpanTasks,2022.2.1,Linux x86_64,59.99880002,,,,,,,,2.653,,,,,,,,,,,,,,2,n,1.347,7.73,1,3.653,1,0,33,33,44,1,13.1,7.73,4.68,1,,,,,,,,,,,,,,,,,,,,,,,,,,,,,,,,,,,,,,,,,,,,,,,,,,,,,,,,,,,,,,,,,,,,,,,,,,,,,,,,,,,,,,,,,,,,,,,,,,
,,5dc61208dd2b7747f95b3c9f,2022-09-08_13h57.33.012,CGTgamblingSpanTasks,2022.2.1,Linux x86_64,59.99880002,,,,,,,,3.2658,,,,,,,,,,,,,,1,n,0.7342,10.25,0,4.7658,1.5,0,34,34,46,1,0,0,10.25,1,,,,,,,,,,,,,,,,,,,,,,,,,,,,,,,,,,,,,,,,,,,,,,,,,,,,,,,,,,,,,,,,,,,,,,,,,,,,,,,,,,,,,,,,,,,,,,,,,,
,,5dc61208dd2b7747f95b3c9f,2022-09-08_13h57.33.012,CGTgamblingSpanTasks,2022.2.1,Linux x86_64,59.99880002,,,,,,,,2.9315,,,,,,,,,,,,,,1,n,1.0685,10.46,0,4.4315,1.5,0,35,35,39,1,15.09,0,10.46,0,,,,,,,,,,,,,,,,,,,,,,,,,,,,,,,,,,,,,,,,,,,,,,,,,,,,,,,,,,,,,,,,,,,,,,,,,,,,,,,,,,,,,,,,,,,,,,,,,,
,,5dc61208dd2b7747f95b3c9f,2022-09-08_13h57.33.012,CGTgamblingSpanTasks,2022.2.1,Linux x86_64,59.99880002,,,,,,,,3.1239,,,,,,,,,,,,,,1,v,0.8761,16.26,1,4.6239,1.5,0,36,36,29,1,16.26,0,9.87,0,,,,,,,,,,,,,,,,,,,,,,,,,,,,,,,,,,,,,,,,,,,,,,,,,,,,,,,,,,,,,,,,,,,,,,,,,,,,,,,,,,,,,,,,,,,,,,,,,,
,,5dc61208dd2b7747f95b3c9f,2022-09-08_13h57.33.012,CGTgamblingSpanTasks,2022.2.1,Linux x86_64,59.99880002,,,,,,,,3.1441,,,,,,,,,,,,,,2,n,0.8559,14.26,1,4.1441,1,0,37,37,41,1,14.26,0,0,1,,,,,,,,,,,,,,,,,,,,,,,,,,,,,,,,,,,,,,,,,,,,,,,,,,,,,,,,,,,,,,,,,,,,,,,,,,,,,,,,,,,,,,,,,,,,,,,,,,
,,5dc61208dd2b7747f95b3c9f,2022-09-08_13h57.33.012,CGTgamblingSpanTasks,2022.2.1,Linux x86_64,59.99880002,,,,,,,,3.1373,,,,,,,,,,,,,,2,n,0.8627,0,1,4.1373,1,0,38,38,1,1,28.21,0,3.89,0,,,,,,,,,,,,,,,,,,,,,,,,,,,,,,,,,,,,,,,,,,,,,,,,,,,,,,,,,,,,,,,,,,,,,,,,,,,,,,,,,,,,,,,,,,,,,,,,,,
,,5dc61208dd2b7747f95b3c9f,2022-09-08_13h57.33.012,CGTgamblingSpanTasks,2022.2.1,Linux x86_64,59.99880002,,,,,,,,2.5961,,,,,,,,,,,,,,1,v,1.4039,0,1,4.0961,1.5,0,39,39,14,1,12.68,0,5.66,0,,,,,,,,,,,,,,,,,,,,,,,,,,,,,,,,,,,,,,,,,,,,,,,,,,,,,,,,,,,,,,,,,,,,,,,,,,,,,,,,,,,,,,,,,,,,,,,,,,
,,5dc61208dd2b7747f95b3c9f,2022-09-08_13h57.33.012,CGTgamblingSpanTasks,2022.2.1,Linux x86_64,59.99880002,,,,,,,,2.7511,,,,,,,,,,,,,,1,v,1.2489,0,1,4.2511,1.5,0,40,40,36,1,10.24,0,6.88,0,,,,,,,,,,,,,,,,,,,,,,,,,,,,,,,,,,,,,,,,,,,,,,,,,,,,,,,,,,,,,,,,,,,,,,,,,,,,,,,,,,,,,,,,,,,,,,,,,,
,,5dc61208dd2b7747f95b3c9f,2022-09-08_13h57.33.012,CGTgamblingSpanTasks,2022.2.1,Linux x86_64,59.99880002,,,,,,,,2.8414,,,,,,,,,,,,,,1,v,1.1586,0,1,3.8414,1,0,41,41,9,1,20.53,0,7.73,0,,,,,,,,,,,,,,,,,,,,,,,,,,,,,,,,,,,,,,,,,,,,,,,,,,,,,,,,,,,,,,,,,,,,,,,,,,,,,,,,,,,,,,,,,,,,,,,,,,
,,5dc61208dd2b7747f95b3c9f,2022-09-08_13h57.33.012,CGTgamblingSpanTasks,2022.2.1,Linux x86_64,59.99880002,,,,,,,,3.2237,,,,,,,,,,,,,,2,n,0.7763,0,1,4.2237,1,0,42,42,23,1,17.28,0,9.36,0,,,,,,,,,,,,,,,,,,,,,,,,,,,,,,,,,,,,,,,,,,,,,,,,,,,,,,,,,,,,,,,,,,,,,,,,,,,,,,,,,,,,,,,,,,,,,,,,,,
,,5dc61208dd2b7747f95b3c9f,2022-09-08_13h57.33.012,CGTgamblingSpanTasks,2022.2.1,Linux x86_64,59.99880002,,,,,,,,3.2092,,,,,,,,,,,,,,1,n,0.7908,7.55,0,4.7092,1.5,0,43,43,45,1,0,0,7.55,1,,,,,,,,,,,,,,,,,,,,,,,,,,,,,,,,,,,,,,,,,,,,,,,,,,,,,,,,,,,,,,,,,,,,,,,,,,,,,,,,,,,,,,,,,,,,,,,,,,
,,5dc61208dd2b7747f95b3c9f,2022-09-08_13h57.33.012,CGTgamblingSpanTasks,2022.2.1,Linux x86_64,59.99880002,,,,,,,,2.7706,,,,,,,,,,,,,,2,v,1.2294,6.08,0,3.7706,1,0,44,44,20,1,11.84,0,6.08,0,,,,,,,,,,,,,,,,,,,,,,,,,,,,,,,,,,,,,,,,,,,,,,,,,,,,,,,,,,,,,,,,,,,,,,,,,,,,,,,,,,,,,,,,,,,,,,,,,,
,,5dc61208dd2b7747f95b3c9f,2022-09-08_13h57.33.012,CGTgamblingSpanTasks,2022.2.1,Linux x86_64,59.99880002,,,,,,,,2.3519,,,,,,,,,,,,,,1,n,1.6481,5.96,0,3.3519,1,0,45,45,18,1,12.08,0,5.96,0,,,,,,,,,,,,,,,,,,,,,,,,,,,,,,,,,,,,,,,,,,,,,,,,,,,,,,,,,,,,,,,,,,,,,,,,,,,,,,,,,,,,,,,,,,,,,,,,,,
,,5dc61208dd2b7747f95b3c9f,2022-09-08_13h57.33.012,CGTgamblingSpanTasks,2022.2.1,Linux x86_64,59.99880002,,,,,,,,1.7147,,,,,,,,,,,,,,1,n,2.2853,6.94,0,3.2147,1.5,0,46,46,38,1,10.12,0,6.94,0,,,,,,,,,,,,,,,,,,,,,,,,,,,,,,,,,,,,,,,,,,,,,,,,,,,,,,,,,,,,,,,,,,,,,,,,,,,,,,,,,,,,,,,,,,,,,,,,,,
,,5dc61208dd2b7747f95b3c9f,2022-09-08_13h57.33.012,CGTgamblingSpanTasks,2022.2.1,Linux x86_64,59.99880002,,,,,,,,2.8858,,,,,,,,,,,,,,2,v,1.1142,10.15,0,4.3858,1.5,0,47,47,33,1,15.7,0,10.15,0,,,,,,,,,,,,,,,,,,,,,,,,,,,,,,,,,,,,,,,,,,,,,,,,,,,,,,,,,,,,,,,,,,,,,,,,,,,,,,,,,,,,,,,,,,,,,,,,,,
,,5dc61208dd2b7747f95b3c9f,2022-09-08_13h57.33.012,CGTgamblingSpanTasks,2022.2.1,Linux x86_64,59.99880002,,,,,,,,2.8948,,,,,,,,,,,,,,1,n,1.1052,6.19,0,3.8948,1,0,48,48,22,1,11.62,0,6.19,0,,,,,,,,,,,,,,,,,,,,,,,,,,,,,,,,,,,,,,,,,,,,,,,,,,,,,,,,,,,,,,,,,,,,,,,,,,,,,,,,,,,,,,,,,,,,,,,,,,
,,5dc61208dd2b7747f95b3c9f,2022-09-08_13h57.33.012,CGTgamblingSpanTasks,2022.2.1,Linux x86_64,59.99880002,,,,,,,,2.5762,,,,,,,,,,,,,,2,n,1.4238,0,1,3.5762,1,0,49,49,10,1,13.45,0,5.27,0,,,,,,,,,,,,,,,,,,,,,,,,,,,,,,,,,,,,,,,,,,,,,,,,,,,,,,,,,,,,,,,,,,,,,,,,,,,,,,,,,,,,,,,,,,,,,,,,,,
,,5dc61208dd2b7747f95b3c9f,2022-09-08_13h57.33.012,CGTgamblingSpanTasks,2022.2.1,Linux x86_64,59.99880002,,,,,,,,,,,,,,,,,,,,,,,,,,,,,,,,,,,,,,bespoke_choiceset_rhoInd122_muInd030.csv,bespoke_choicesets/bespoke_choiceset_rhoInd122_muInd030.csv,122,30,0,0,0,0,1,,,,,,,,,,,,,,,,,,,,,,,,,,,,,,,,,,,,,,,,,,,,,,,,,,,,,,,,,,,,,,,,,,,,,,,,,,,,,,,,,,,,,,,,,
,,5dc61208dd2b7747f95b3c9f,2022-09-08_13h57.33.012,CGTgamblingSpanTasks,2022.2.1,Linux x86_64,59.99880002,,,,,,,,,,,,,,,,,,,,,,,,,,,,,,,,,,,,,,,,,,,,,,,,,,,,,,,,,,,,,,,,,,,,,,,,,,,,,,,,,,,,,,,,,,,,,,,,,,,,,,,,,,,,,,,,,,,,,,,,,,,,,,,,,,,,,,,
,,5dc61208dd2b7747f95b3c9f,2022-09-08_13h57.33.012,CGTgamblingSpanTasks,2022.2.1,Linux x86_64,59.99880002,,,,,,,,,,,,,,,,,,,,,,,,,,,,,,,,,,,,,,,,,,,,,,,n,25.9659,,,,,,,,,,,,,,,,,,,,,,,,,,,,,,,,,,,,,,,,,,,,,,,,,,,,,,,,,,,,,,,,,,,,,,,,,,,,,,,,,,,,,,,
,,5dc61208dd2b7747f95b3c9f,2022-09-08_13h57.33.012,CGTgamblingSpanTasks,2022.2.1,Linux x86_64,59.99880002,,,,,,,,3.1198,,,,,,,,,,,,,,1,v,0.8802,25.76582409,1,4.6198,1.5,,,,,,25.76582409,0,2.393193076,,,,,,,,,,,,,0,0,0,46,1,0.517129855,1,,,,,,,,,,,,,,,,,,,,,,,,,,,,,,,,,,,,,,,,,,,,,,,,,,,,,,,,,,,,,,,,,,,,,,,,,,,,,,,,
,,5dc61208dd2b7747f95b3c9f,2022-09-08_13h57.33.012,CGTgamblingSpanTasks,2022.2.1,Linux x86_64,59.99880002,,,,,,,,3.1164,,,,,,,,,,,,,,1,v,0.8836,28.13634754,1,4.1164,1,,,,,,28.13634754,0,2.532806323,,,,,,,,,,,,,0,1,1,28,1,0.525136524,1,,,,,,,,,,,,,,,,,,,,,,,,,,,,,,,,,,,,,,,,,,,,,,,,,,,,,,,,,,,,,,,,,,,,,,,,,,,,,,,,
,,5dc61208dd2b7747f95b3c9f,2022-09-08_13h57.33.012,CGTgamblingSpanTasks,2022.2.1,Linux x86_64,59.99880002,,,,,,,,3.2659,,,,,,,,,,,,,,1,v,0.7341,17.5608285,1,4.2659,1,,,,,,17.5608285,0,1.825111303,,,,,,,,,,,,,0,2,2,104,1,0.487721116,1,,,,,,,,,,,,,,,,,,,,,,,,,,,,,,,,,,,,,,,,,,,,,,,,,,,,,,,,,,,,,,,,,,,,,,,,,,,,,,,,
,,5dc61208dd2b7747f95b3c9f,2022-09-08_13h57.33.012,CGTgamblingSpanTasks,2022.2.1,Linux x86_64,59.99880002,,,,,,,,3.0178,,,,,,,,,,,,,,1,v,0.9822,28.94627214,1,4.5178,1.5,,,,,,28.94627214,0,2.701896413,,,,,,,,,,,,,0,3,3,111,1,0.515860759,1,,,,,,,,,,,,,,,,,,,,,,,,,,,,,,,,,,,,,,,,,,,,,,,,,,,,,,,,,,,,,,,,,,,,,,,,,,,,,,,,
,,5dc61208dd2b7747f95b3c9f,2022-09-08_13h57.33.012,CGTgamblingSpanTasks,2022.2.1,Linux x86_64,59.99880002,,,,,,,,3.1581,,,,,,,,,,,,,,1,v,0.8419,29.30724159,1,4.6581,1.5,,,,,,29.30724159,0,3.247012935,,,,,,,,,,,,,0,4,4,71,1,0.470571125,1,,,,,,,,,,,,,,,,,,,,,,,,,,,,,,,,,,,,,,,,,,,,,,,,,,,,,,,,,,,,,,,,,,,,,,,,,,,,,,,,
,,5dc61208dd2b7747f95b3c9f,2022-09-08_13h57.33.012,CGTgamblingSpanTasks,2022.2.1,Linux x86_64,59.99880002,,,,,,,,2.9968,,,,,,,,,,,,,,1,v,1.0032,17.85020524,1,4.4968,1.5,,,,,,17.85020524,0,2.058701084,,,,,,,,,,,,,0,5,5,25,1,0.459662216,1,,,,,,,,,,,,,,,,,,,,,,,,,,,,,,,,,,,,,,,,,,,,,,,,,,,,,,,,,,,,,,,,,,,,,,,,,,,,,,,,
,,5dc61208dd2b7747f95b3c9f,2022-09-08_13h57.33.012,CGTgamblingSpanTasks,2022.2.1,Linux x86_64,59.99880002,,,,,,,,2.5366,,,,,,,,,,,,,,1,n,1.4634,6.781500919,0,4.0366,1.5,,,,,,8.363821911,0,6.781500919,,,,,,,,,,,,,0,6,6,61,1,0.044227959,0,,,,,,,,,,,,,,,,,,,,,,,,,,,,,,,,,,,,,,,,,,,,,,,,,,,,,,,,,,,,,,,,,,,,,,,,,,,,,,,,
,,5dc61208dd2b7747f95b3c9f,2022-09-08_13h57.33.012,CGTgamblingSpanTasks,2022.2.1,Linux x86_64,59.99880002,,,,,,,,2.4976,,,,,,,,,,,,,,2,v,1.5024,10.3417501,0,3.9976,1.5,,,,,,15.21435748,0,10.3417501,,,,,,,,,,,,,0,7,7,72,1,0.060969226,0,,,,,,,,,,,,,,,,,,,,,,,,,,,,,,,,,,,,,,,,,,,,,,,,,,,,,,,,,,,,,,,,,,,,,,,,,,,,,,,,
,,5dc61208dd2b7747f95b3c9f,2022-09-08_13h57.33.012,CGTgamblingSpanTasks,2022.2.1,Linux x86_64,59.99880002,,,,,,,,2.9492,,,,,,,,,,,,,,1,n,1.0508,7.50753835,0,4.4492,1.5,,,,,,2.231316635,0,7.50753835,,,,,,,,,,,,,0,8,8,29,1,0.010273427,0,,,,,,,,,,,,,,,,,,,,,,,,,,,,,,,,,,,,,,,,,,,,,,,,,,,,,,,,,,,,,,,,,,,,,,,,,,,,,,,,
,,5dc61208dd2b7747f95b3c9f,2022-09-08_13h57.33.012,CGTgamblingSpanTasks,2022.2.1,Linux x86_64,59.99880002,,,,,,,,3.1499,,,,,,,,,,,,,,1,v,0.8501,23.4214135,1,4.6499,1.5,,,,,,23.4214135,0,2.485985001,,,,,,,,,,,,,0,9,9,81,1,0.482105905,1,,,,,,,,,,,,,,,,,,,,,,,,,,,,,,,,,,,,,,,,,,,,,,,,,,,,,,,,,,,,,,,,,,,,,,,,,,,,,,,,
,,5dc61208dd2b7747f95b3c9f,2022-09-08_13h57.33.012,CGTgamblingSpanTasks,2022.2.1,Linux x86_64,59.99880002,,,,,,,,2.9769,,,,,,,,,,,,,,1,n,1.0231,4.462262453,0,4.4769,1.5,,,,,,0.192759042,0,4.462262453,,,,,,,,,,,,,0,10,10,52,1,0.003553223,0,,,,,,,,,,,,,,,,,,,,,,,,,,,,,,,,,,,,,,,,,,,,,,,,,,,,,,,,,,,,,,,,,,,,,,,,,,,,,,,,
,,5dc61208dd2b7747f95b3c9f,2022-09-08_13h57.33.012,CGTgamblingSpanTasks,2022.2.1,Linux x86_64,59.99880002,,,,,,,,2.7747,,,,,,,,,,,,,,1,v,1.2253,0,1,3.7747,1,,,,,,28.9381277,0,2.663622024,,,,,,,,,,,,,0,11,11,103,1,0.519453367,1,,,,,,,,,,,,,,,,,,,,,,,,,,,,,,,,,,,,,,,,,,,,,,,,,,,,,,,,,,,,,,,,,,,,,,,,,,,,,,,,
,,5dc61208dd2b7747f95b3c9f,2022-09-08_13h57.33.012,CGTgamblingSpanTasks,2022.2.1,Linux x86_64,59.99880002,,,,,,,,2.2177,,,,,,,,,,,,,,1,n,1.7823,3.877530383,0,3.7177,1.5,,,,,,3.471484939,0,3.877530383,,,,,,,,,,,,,0,12,12,40,1,0.02623078,0,,,,,,,,,,,,,,,,,,,,,,,,,,,,,,,,,,,,,,,,,,,,,,,,,,,,,,,,,,,,,,,,,,,,,,,,,,,,,,,,
,,5dc61208dd2b7747f95b3c9f,2022-09-08_13h57.33.012,CGTgamblingSpanTasks,2022.2.1,Linux x86_64,59.99880002,,,,,,,,2.9161,,,,,,,,,,,,,,1,v,1.0839,27.2532142,1,3.9161,1,,,,,,27.2532142,0,0.08089327,,,,,,,,,,,,,0,13,13,119,1,0.907091845,0,,,,,,,,,,,,,,,,,,,,,,,,,,,,,,,,,,,,,,,,,,,,,,,,,,,,,,,,,,,,,,,,,,,,,,,,,,,,,,,,
,,5dc61208dd2b7747f95b3c9f,2022-09-08_13h57.33.012,CGTgamblingSpanTasks,2022.2.1,Linux x86_64,59.99880002,,,,,,,,1.9024,,,,,,,,,,,,,,2,v,2.0976,10.41201161,0,2.9024,1,,,,,,6.307062696,0,10.41201161,,,,,,,,,,,,,0,14,14,23,1,0.018187109,0,,,,,,,,,,,,,,,,,,,,,,,,,,,,,,,,,,,,,,,,,,,,,,,,,,,,,,,,,,,,,,,,,,,,,,,,,,,,,,,,
,,5dc61208dd2b7747f95b3c9f,2022-09-08_13h57.33.012,CGTgamblingSpanTasks,2022.2.1,Linux x86_64,59.99880002,,,,,,,,2.4328,,,,,,,,,,,,,,1,n,1.5672,8.653432553,0,3.9328,1.5,,,,,,15.13999312,0,8.653432553,,,,,,,,,,,,,0,15,15,54,1,0.081767484,0,,,,,,,,,,,,,,,,,,,,,,,,,,,,,,,,,,,,,,,,,,,,,,,,,,,,,,,,,,,,,,,,,,,,,,,,,,,,,,,,
,,5dc61208dd2b7747f95b3c9f,2022-09-08_13h57.33.012,CGTgamblingSpanTasks,2022.2.1,Linux x86_64,59.99880002,,,,,,,,2.9188,,,,,,,,,,,,,,1,n,1.0812,6.833409611,0,4.4188,1.5,,,,,,6.325091157,0,6.833409611,,,,,,,,,,,,,0,16,16,58,1,0.027113638,0,,,,,,,,,,,,,,,,,,,,,,,,,,,,,,,,,,,,,,,,,,,,,,,,,,,,,,,,,,,,,,,,,,,,,,,,,,,,,,,,
,,5dc61208dd2b7747f95b3c9f,2022-09-08_13h57.33.012,CGTgamblingSpanTasks,2022.2.1,Linux x86_64,59.99880002,,,,,,,,2.9114,,,,,,,,,,,,,,2,n,1.0886,0,1,4.4114,1.5,,,,,,22.87092517,0,0.059276504,,,,,,,,,,,,,0,17,17,27,1,0.911114935,0,,,,,,,,,,,,,,,,,,,,,,,,,,,,,,,,,,,,,,,,,,,,,,,,,,,,,,,,,,,,,,,,,,,,,,,,,,,,,,,,
,,5dc61208dd2b7747f95b3c9f,2022-09-08_13h57.33.012,CGTgamblingSpanTasks,2022.2.1,Linux x86_64,59.99880002,,,,,,,,2.7192,,,,,,,,,,,,,,2,n,1.2808,0,1,4.2192,1.5,,,,,,27.4965044,0,2.461467004,,,,,,,,,,,,,0,18,18,36,1,0.526550878,1,,,,,,,,,,,,,,,,,,,,,,,,,,,,,,,,,,,,,,,,,,,,,,,,,,,,,,,,,,,,,,,,,,,,,,,,,,,,,,,,
,,5dc61208dd2b7747f95b3c9f,2022-09-08_13h57.33.012,CGTgamblingSpanTasks,2022.2.1,Linux x86_64,59.99880002,,,,,,,,3.2518,,,,,,,,,,,,,,2,n,0.7482,25.0707644,1,4.2518,1,,,,,,25.0707644,0,0.067651625,,,,,,,,,,,,,0,19,19,70,1,0.909952349,0,,,,,,,,,,,,,,,,,,,,,,,,,,,,,,,,,,,,,,,,,,,,,,,,,,,,,,,,,,,,,,,,,,,,,,,,,,,,,,,,
,,5dc61208dd2b7747f95b3c9f,2022-09-08_13h57.33.012,CGTgamblingSpanTasks,2022.2.1,Linux x86_64,59.99880002,,,,,,,,2.9012,,,,,,,,,,,,,,2,n,1.0988,0,1,4.4012,1.5,,,,,,23.0613391,0,2.387726776,,,,,,,,,,,,,0,20,20,69,1,0.488727763,1,,,,,,,,,,,,,,,,,,,,,,,,,,,,,,,,,,,,,,,,,,,,,,,,,,,,,,,,,,,,,,,,,,,,,,,,,,,,,,,,
,,5dc61208dd2b7747f95b3c9f,2022-09-08_13h57.33.012,CGTgamblingSpanTasks,2022.2.1,Linux x86_64,59.99880002,,,,,,,,3.1335,,,,,,,,,,,,,,1,v,0.8665,0,1,4.1335,1,,,,,,27.37527992,0,2.860319095,,,,,,,,,,,,,0,21,21,39,1,0.486304156,1,,,,,,,,,,,,,,,,,,,,,,,,,,,,,,,,,,,,,,,,,,,,,,,,,,,,,,,,,,,,,,,,,,,,,,,,,,,,,,,,
,,5dc61208dd2b7747f95b3c9f,2022-09-08_13h57.33.012,CGTgamblingSpanTasks,2022.2.1,Linux x86_64,59.99880002,,,,,,,,2.5012,,,,,,,,,,,,,,2,n,1.4988,0,1,3.5012,1,,,,,,6.662965216,0,6.091504705,,,,,,,,,,,,,0,22,22,102,1,0.035087099,0,,,,,,,,,,,,,,,,,,,,,,,,,,,,,,,,,,,,,,,,,,,,,,,,,,,,,,,,,,,,,,,,,,,,,,,,,,,,,,,,
,,5dc61208dd2b7747f95b3c9f,2022-09-08_13h57.33.012,CGTgamblingSpanTasks,2022.2.1,Linux x86_64,59.99880002,,,,,,,,2.9617,,,,,,,,,,,,,,2,n,1.0383,0,1,3.9617,1,,,,,,28.33977875,0,2.768313633,,,,,,,,,,,,,0,23,23,116,1,0.50406901,1,,,,,,,,,,,,,,,,,,,,,,,,,,,,,,,,,,,,,,,,,,,,,,,,,,,,,,,,,,,,,,,,,,,,,,,,,,,,,,,,
,,5dc61208dd2b7747f95b3c9f,2022-09-08_13h57.33.012,CGTgamblingSpanTasks,2022.2.1,Linux x86_64,59.99880002,,,,,,,,2.9987,,,,,,,,,,,,,,1,v,1.0013,9.725876653,1,4.4987,1.5,,,,,,9.725876653,0,5.526483034,,,,,,,,,,,,,0,24,24,44,1,0.082550696,0,,,,,,,,,,,,,,,,,,,,,,,,,,,,,,,,,,,,,,,,,,,,,,,,,,,,,,,,,,,,,,,,,,,,,,,,,,,,,,,,
,,5dc61208dd2b7747f95b3c9f,2022-09-08_13h57.33.012,CGTgamblingSpanTasks,2022.2.1,Linux x86_64,59.99880002,,,,,,,,2.7668,,,,,,,,,,,,,,2,n,1.2332,25.65316415,1,3.7668,1,,,,,,25.65316415,0,0.079652925,,,,,,,,,,,,,0,25,25,109,1,0.90568168,0,,,,,,,,,,,,,,,,,,,,,,,,,,,,,,,,,,,,,,,,,,,,,,,,,,,,,,,,,,,,,,,,,,,,,,,,,,,,,,,,
,,5dc61208dd2b7747f95b3c9f,2022-09-08_13h57.33.012,CGTgamblingSpanTasks,2022.2.1,Linux x86_64,59.99880002,,,,,,,,2.8367,,,,,,,,,,,,,,2,n,1.1633,0,1,3.8367,1,,,,,,17.67865084,0,11.35147481,,,,,,,,,,,,,0,26,26,91,1,0.067304606,0,,,,,,,,,,,,,,,,,,,,,,,,,,,,,,,,,,,,,,,,,,,,,,,,,,,,,,,,,,,,,,,,,,,,,,,,,,,,,,,,
,,5dc61208dd2b7747f95b3c9f,2022-09-08_13h57.33.012,CGTgamblingSpanTasks,2022.2.1,Linux x86_64,59.99880002,,,,,,,,3.0168,,,,,,,,,,,,,,1,v,0.9832,26.16821818,1,4.0168,1,,,,,,26.16821818,0,0.093528069,,,,,,,,,,,,,0,27,27,42,1,0.901022427,0,,,,,,,,,,,,,,,,,,,,,,,,,,,,,,,,,,,,,,,,,,,,,,,,,,,,,,,,,,,,,,,,,,,,,,,,,,,,,,,,
,,5dc61208dd2b7747f95b3c9f,2022-09-08_13h57.33.012,CGTgamblingSpanTasks,2022.2.1,Linux x86_64,59.99880002,,,,,,,,2.9275,,,,,,,,,,,,,,1,v,1.0725,27.93093084,1,4.4275,1.5,,,,,,27.93093084,0,0.050207531,,,,,,,,,,,,,0,28,28,83,1,0.920505936,0,,,,,,,,,,,,,,,,,,,,,,,,,,,,,,,,,,,,,,,,,,,,,,,,,,,,,,,,,,,,,,,,,,,,,,,,,,,,,,,,
,,5dc61208dd2b7747f95b3c9f,2022-09-08_13h57.33.012,CGTgamblingSpanTasks,2022.2.1,Linux x86_64,59.99880002,,,,,,,,2.0281,,,,,,,,,,,,,,1,n,1.9719,8.579385201,0,3.0281,1,,,,,,14.11762686,0,8.579385201,,,,,,,,,,,,,0,29,29,60,1,0.073886959,0,,,,,,,,,,,,,,,,,,,,,,,,,,,,,,,,,,,,,,,,,,,,,,,,,,,,,,,,,,,,,,,,,,,,,,,,,,,,,,,,
,,5dc61208dd2b7747f95b3c9f,2022-09-08_13h57.33.012,CGTgamblingSpanTasks,2022.2.1,Linux x86_64,59.99880002,,,,,,,,3.1513,,,,,,,,,,,,,,2,n,0.8487,0,1,4.6513,1.5,,,,,,19.68065872,0,1.843597162,,,,,,,,,,,,,0,30,30,80,1,0.514941058,1,,,,,,,,,,,,,,,,,,,,,,,,,,,,,,,,,,,,,,,,,,,,,,,,,,,,,,,,,,,,,,,,,,,,,,,,,,,,,,,,
,,5dc61208dd2b7747f95b3c9f,2022-09-08_13h57.33.012,CGTgamblingSpanTasks,2022.2.1,Linux x86_64,59.99880002,,,,,,,,3.028,,,,,,,,,,,,,,1,v,0.972,17.4320197,1,4.028,1,,,,,,17.4320197,0,1.448620949,,,,,,,,,,,,,0,31,31,30,1,0.545178213,1,,,,,,,,,,,,,,,,,,,,,,,,,,,,,,,,,,,,,,,,,,,,,,,,,,,,,,,,,,,,,,,,,,,,,,,,,,,,,,,,
,,5dc61208dd2b7747f95b3c9f,2022-09-08_13h57.33.012,CGTgamblingSpanTasks,2022.2.1,Linux x86_64,59.99880002,,,,,,,,2.021,,,,,,,,,,,,,,2,v,1.979,11.19311486,0,3.021,1,,,,,,8.17598802,0,11.19311486,,,,,,,,,,,,,0,32,32,110,1,0.021568003,0,,,,,,,,,,,,,,,,,,,,,,,,,,,,,,,,,,,,,,,,,,,,,,,,,,,,,,,,,,,,,,,,,,,,,,,,,,,,,,,,
,,5dc61208dd2b7747f95b3c9f,2022-09-08_13h57.33.012,CGTgamblingSpanTasks,2022.2.1,Linux x86_64,59.99880002,,,,,,,,3.0332,,,,,,,,,,,,,,2,n,0.9668,18.50662664,1,4.5332,1.5,,,,,,18.50662664,0,0.052546026,,,,,,,,,,,,,0,33,33,112,1,0.908444837,0,,,,,,,,,,,,,,,,,,,,,,,,,,,,,,,,,,,,,,,,,,,,,,,,,,,,,,,,,,,,,,,,,,,,,,,,,,,,,,,,
,,5dc61208dd2b7747f95b3c9f,2022-09-08_13h57.33.012,CGTgamblingSpanTasks,2022.2.1,Linux x86_64,59.99880002,,,,,,,,2.6139,,,,,,,,,,,,,,1,v,1.3861,22.0050376,1,4.1139,1.5,,,,,,22.0050376,0,2.257683666,,,,,,,,,,,,,0,34,34,4,1,0.491147312,1,,,,,,,,,,,,,,,,,,,,,,,,,,,,,,,,,,,,,,,,,,,,,,,,,,,,,,,,,,,,,,,,,,,,,,,,,,,,,,,,
,,5dc61208dd2b7747f95b3c9f,2022-09-08_13h57.33.012,CGTgamblingSpanTasks,2022.2.1,Linux x86_64,59.99880002,,,,,,,,2.8057,,,,,,,,,,,,,,1,v,1.1943,22.86604061,1,3.8057,1,,,,,,22.86604061,0,2.293289792,,,,,,,,,,,,,0,35,35,51,1,0.49715382,1,,,,,,,,,,,,,,,,,,,,,,,,,,,,,,,,,,,,,,,,,,,,,,,,,,,,,,,,,,,,,,,,,,,,,,,,,,,,,,,,
,,5dc61208dd2b7747f95b3c9f,2022-09-08_13h57.33.012,CGTgamblingSpanTasks,2022.2.1,Linux x86_64,59.99880002,,,,,,,,2.8753,,,,,,,,,,,,,,2,n,1.1247,0,1,4.3753,1.5,,,,,,26.11188619,0,0.081942421,,,,,,,,,,,,,0,36,36,105,1,0.905343856,0,,,,,,,,,,,,,,,,,,,,,,,,,,,,,,,,,,,,,,,,,,,,,,,,,,,,,,,,,,,,,,,,,,,,,,,,,,,,,,,,
,,5dc61208dd2b7747f95b3c9f,2022-09-08_13h57.33.012,CGTgamblingSpanTasks,2022.2.1,Linux x86_64,59.99880002,,,,,,,,2.9649,,,,,,,,,,,,,,2,n,1.0351,0,1,4.4649,1.5,,,,,,27.39221343,0,2.743407746,,,,,,,,,,,,,0,37,37,47,1,0.49752044,1,,,,,,,,,,,,,,,,,,,,,,,,,,,,,,,,,,,,,,,,,,,,,,,,,,,,,,,,,,,,,,,,,,,,,,,,,,,,,,,,
,,5dc61208dd2b7747f95b3c9f,2022-09-08_13h57.33.012,CGTgamblingSpanTasks,2022.2.1,Linux x86_64,59.99880002,,,,,,,,2.5526,,,,,,,,,,,,,,1,v,1.4474,0,1,4.0526,1.5,,,,,,14.3363647,0,1.396635362,,,,,,,,,,,,,0,38,38,78,1,0.504775474,1,,,,,,,,,,,,,,,,,,,,,,,,,,,,,,,,,,,,,,,,,,,,,,,,,,,,,,,,,,,,,,,,,,,,,,,,,,,,,,,,
,,5dc61208dd2b7747f95b3c9f,2022-09-08_13h57.33.012,CGTgamblingSpanTasks,2022.2.1,Linux x86_64,59.99880002,,,,,,,,2.9503,,,,,,,,,,,,,,2,v,1.0497,11.61882862,0,4.4503,1.5,,,,,,4.022743614,0,11.61882862,,,,,,,,,,,,,0,39,39,38,1,0.011499376,0,,,,,,,,,,,,,,,,,,,,,,,,,,,,,,,,,,,,,,,,,,,,,,,,,,,,,,,,,,,,,,,,,,,,,,,,,,,,,,,,
,,5dc61208dd2b7747f95b3c9f,2022-09-08_13h57.33.012,CGTgamblingSpanTasks,2022.2.1,Linux x86_64,59.99880002,,,,,,,,2.7949,,,,,,,,,,,,,,1,v,1.2051,0,1,4.2949,1.5,,,,,,26.36733703,0,2.201057101,,,,,,,,,,,,,0,40,40,90,1,0.544064207,1,,,,,,,,,,,,,,,,,,,,,,,,,,,,,,,,,,,,,,,,,,,,,,,,,,,,,,,,,,,,,,,,,,,,,,,,,,,,,,,,
,,5dc61208dd2b7747f95b3c9f,2022-09-08_13h57.33.012,CGTgamblingSpanTasks,2022.2.1,Linux x86_64,59.99880002,,,,,,,,0.903,,,,,,,,,,,,,,2,n,3.097,8.670591867,1,1.903,1,,,,,,8.670591867,0,1.025847652,,,,,,,,,,,,,0,41,41,18,1,0.452680459,1,,,,,,,,,,,,,,,,,,,,,,,,,,,,,,,,,,,,,,,,,,,,,,,,,,,,,,,,,,,,,,,,,,,,,,,,,,,,,,,,
,,5dc61208dd2b7747f95b3c9f,2022-09-08_13h57.33.012,CGTgamblingSpanTasks,2022.2.1,Linux x86_64,59.99880002,,,,,,,,2.8824,,,,,,,,,,,,,,2,n,1.1176,7.534278541,1,4.3824,1.5,,,,,,7.534278541,0,0.747140182,,,,,,,,,,,,,0,42,42,37,1,0.50012466,1,,,,,,,,,,,,,,,,,,,,,,,,,,,,,,,,,,,,,,,,,,,,,,,,,,,,,,,,,,,,,,,,,,,,,,,,,,,,,,,,
,,5dc61208dd2b7747f95b3c9f,2022-09-08_13h57.33.012,CGTgamblingSpanTasks,2022.2.1,Linux x86_64,59.99880002,,,,,,,,2.4169,,,,,,,,,,,,,,2,v,1.5831,4.904872644,0,3.4169,1,,,,,,4.698775357,0,4.904872644,,,,,,,,,,,,,0,43,43,75,1,0.028064484,0,,,,,,,,,,,,,,,,,,,,,,,,,,,,,,,,,,,,,,,,,,,,,,,,,,,,,,,,,,,,,,,,,,,,,,,,,,,,,,,,
,,5dc61208dd2b7747f95b3c9f,2022-09-08_13h57.33.012,CGTgamblingSpanTasks,2022.2.1,Linux x86_64,59.99880002,,,,,,,,2.8495,,,,,,,,,,,,,,2,n,1.1505,21.48443242,1,3.8495,1,,,,,,21.48443242,0,2.229247341,,,,,,,,,,,,,0,44,44,63,1,0.488155912,1,,,,,,,,,,,,,,,,,,,,,,,,,,,,,,,,,,,,,,,,,,,,,,,,,,,,,,,,,,,,,,,,,,,,,,,,,,,,,,,,
,,5dc61208dd2b7747f95b3c9f,2022-09-08_13h57.33.012,CGTgamblingSpanTasks,2022.2.1,Linux x86_64,59.99880002,,,,,,,,2.9954,,,,,,,,,,,,,,2,n,1.0046,0,1,4.4954,1.5,,,,,,17.30137174,0,1.716380842,,,,,,,,,,,,,0,45,45,20,1,0.500020285,1,,,,,,,,,,,,,,,,,,,,,,,,,,,,,,,,,,,,,,,,,,,,,,,,,,,,,,,,,,,,,,,,,,,,,,,,,,,,,,,,
,,5dc61208dd2b7747f95b3c9f,2022-09-08_13h57.33.012,CGTgamblingSpanTasks,2022.2.1,Linux x86_64,59.99880002,,,,,,,,3.1154,,,,,,,,,,,,,,1,v,0.8846,19.36415485,1,4.1154,1,,,,,,19.36415485,0,1.966229494,,,,,,,,,,,,,0,46,46,96,1,0.493893111,1,,,,,,,,,,,,,,,,,,,,,,,,,,,,,,,,,,,,,,,,,,,,,,,,,,,,,,,,,,,,,,,,,,,,,,,,,,,,,,,,
,,5dc61208dd2b7747f95b3c9f,2022-09-08_13h57.33.012,CGTgamblingSpanTasks,2022.2.1,Linux x86_64,59.99880002,,,,,,,,3.1729,,,,,,,,,,,,,,2,n,0.8271,18.51345298,1,4.1729,1,,,,,,18.51345298,0,1.932334278,,,,,,,,,,,,,0,47,47,31,1,0.48658696,1,,,,,,,,,,,,,,,,,,,,,,,,,,,,,,,,,,,,,,,,,,,,,,,,,,,,,,,,,,,,,,,,,,,,,,,,,,,,,,,,
,,5dc61208dd2b7747f95b3c9f,2022-09-08_13h57.33.012,CGTgamblingSpanTasks,2022.2.1,Linux x86_64,59.99880002,,,,,,,,3.1144,,,,,,,,,,,,,,2,n,0.8856,0,1,4.6144,1.5,,,,,,19.5450126,0,2.123581464,,,,,,,,,,,,,0,48,48,65,1,0.475836144,1,,,,,,,,,,,,,,,,,,,,,,,,,,,,,,,,,,,,,,,,,,,,,,,,,,,,,,,,,,,,,,,,,,,,,,,,,,,,,,,,
,,5dc61208dd2b7747f95b3c9f,2022-09-08_13h57.33.012,CGTgamblingSpanTasks,2022.2.1,Linux x86_64,59.99880002,,,,,,,,2.8717,,,,,,,,,,,,,,1,v,1.1283,25.54604005,1,4.3717,1.5,,,,,,25.54604005,0,0.088845411,,,,,,,,,,,,,0,49,49,79,1,0.901957831,0,,,,,,,,,,,,,,,,,,,,,,,,,,,,,,,,,,,,,,,,,,,,,,,,,,,,,,,,,,,,,,,,,,,,,,,,,,,,,,,,
,,5dc61208dd2b7747f95b3c9f,2022-09-08_13h57.33.012,CGTgamblingSpanTasks,2022.2.1,Linux x86_64,59.99880002,,,,,,,,2.7561,,,,,,,,,,,,,,2,n,1.2439,15.73000491,1,3.7561,1,,,,,,15.73000491,0,8.830252162,,,,,,,,,,,,,0,50,50,95,1,0.084193143,0,,,,,,,,,,,,,,,,,,,,,,,,,,,,,,,,,,,,,,,,,,,,,,,,,,,,,,,,,,,,,,,,,,,,,,,,,,,,,,,,
,,5dc61208dd2b7747f95b3c9f,2022-09-08_13h57.33.012,CGTgamblingSpanTasks,2022.2.1,Linux x86_64,59.99880002,,,,,,,,2.5048,,,,,,,,,,,,,,1,n,1.4952,7.646213173,0,4.0048,1.5,,,,,,2.042350179,0,7.646213173,,,,,,,,,,,,,0,51,51,53,1,0.009522273,0,,,,,,,,,,,,,,,,,,,,,,,,,,,,,,,,,,,,,,,,,,,,,,,,,,,,,,,,,,,,,,,,,,,,,,,,,,,,,,,,
,,5dc61208dd2b7747f95b3c9f,2022-09-08_13h57.33.012,CGTgamblingSpanTasks,2022.2.1,Linux x86_64,59.99880002,,,,,,,,2.9657,,,,,,,,,,,,,,2,n,1.0343,0,1,4.4657,1.5,,,,,,21.7711579,0,2.502728921,,,,,,,,,,,,,0,52,52,101,1,0.460552621,1,,,,,,,,,,,,,,,,,,,,,,,,,,,,,,,,,,,,,,,,,,,,,,,,,,,,,,,,,,,,,,,,,,,,,,,,,,,,,,,,
,,5dc61208dd2b7747f95b3c9f,2022-09-08_13h57.33.012,CGTgamblingSpanTasks,2022.2.1,Linux x86_64,59.99880002,,,,,,,,2.8805,,,,,,,,,,,,,,2,n,1.1195,28.68598705,1,3.8805,1,,,,,,28.68598705,0,0.050674956,,,,,,,,,,,,,0,53,53,62,1,0.920905497,0,,,,,,,,,,,,,,,,,,,,,,,,,,,,,,,,,,,,,,,,,,,,,,,,,,,,,,,,,,,,,,,,,,,,,,,,,,,,,,,,
,,5dc61208dd2b7747f95b3c9f,2022-09-08_13h57.33.012,CGTgamblingSpanTasks,2022.2.1,Linux x86_64,59.99880002,,,,,,,,2.6061,,,,,,,,,,,,,,1,v,1.3939,21.00799273,1,4.1061,1.5,,,,,,21.00799273,0,0.067969053,,,,,,,,,,,,,0,54,54,92,1,0.904360262,0,,,,,,,,,,,,,,,,,,,,,,,,,,,,,,,,,,,,,,,,,,,,,,,,,,,,,,,,,,,,,,,,,,,,,,,,,,,,,,,,
,,5dc61208dd2b7747f95b3c9f,2022-09-08_13h57.33.012,CGTgamblingSpanTasks,2022.2.1,Linux x86_64,59.99880002,,,,,,,,3.0786,,,,,,,,,,,,,,1,v,0.9214,0,1,4.5786,1.5,,,,,,26.4985979,0,0.051324376,,,,,,,,,,,,,0,55,55,106,1,0.918747215,0,,,,,,,,,,,,,,,,,,,,,,,,,,,,,,,,,,,,,,,,,,,,,,,,,,,,,,,,,,,,,,,,,,,,,,,,,,,,,,,,
,,5dc61208dd2b7747f95b3c9f,2022-09-08_13h57.33.012,CGTgamblingSpanTasks,2022.2.1,Linux x86_64,59.99880002,,,,,,,,3.1188,,,,,,,,,,,,,,1,v,0.8812,0,1,4.1188,1,,,,,,24.8002852,0,0.071848086,,,,,,,,,,,,,0,56,56,16,1,0.90783559,0,,,,,,,,,,,,,,,,,,,,,,,,,,,,,,,,,,,,,,,,,,,,,,,,,,,,,,,,,,,,,,,,,,,,,,,,,,,,,,,,
,,5dc61208dd2b7747f95b3c9f,2022-09-08_13h57.33.012,CGTgamblingSpanTasks,2022.2.1,Linux x86_64,59.99880002,,,,,,,,3.1406,,,,,,,,,,,,,,2,n,0.8594,0,1,4.1406,1,,,,,,21.17800335,0,0.059830985,,,,,,,,,,,,,0,57,57,67,1,0.908594974,0,,,,,,,,,,,,,,,,,,,,,,,,,,,,,,,,,,,,,,,,,,,,,,,,,,,,,,,,,,,,,,,,,,,,,,,,,,,,,,,,
,,5dc61208dd2b7747f95b3c9f,2022-09-08_13h57.33.012,CGTgamblingSpanTasks,2022.2.1,Linux x86_64,59.99880002,,,,,,,,3.0505,,,,,,,,,,,,,,2,n,0.9495,0,1,4.5505,1.5,,,,,,22.72923833,0,0.067170781,,,,,,,,,,,,,0,58,58,86,1,0.907226703,0,,,,,,,,,,,,,,,,,,,,,,,,,,,,,,,,,,,,,,,,,,,,,,,,,,,,,,,,,,,,,,,,,,,,,,,,,,,,,,,,
,,5dc61208dd2b7747f95b3c9f,2022-09-08_13h57.33.012,CGTgamblingSpanTasks,2022.2.1,Linux x86_64,59.99880002,,,,,,,,2.4624,,,,,,,,,,,,,,2,n,1.5376,17.64114152,1,3.4624,1,,,,,,17.64114152,0,10.68505773,,,,,,,,,,,,,0,59,59,98,1,0.074299362,0,,,,,,,,,,,,,,,,,,,,,,,,,,,,,,,,,,,,,,,,,,,,,,,,,,,,,,,,,,,,,,,,,,,,,,,,,,,,,,,,
,,5dc61208dd2b7747f95b3c9f,2022-09-08_13h57.33.012,CGTgamblingSpanTasks,2022.2.1,Linux x86_64,59.99880002,,,,,,,,2.7413,,,,,,,,,,,,,,1,v,1.2587,18.16238569,1,3.7413,1,,,,,,18.16238569,0,1.540604093,,,,,,,,,,,,,0,60,60,34,1,0.540092491,1,,,,,,,,,,,,,,,,,,,,,,,,,,,,,,,,,,,,,,,,,,,,,,,,,,,,,,,,,,,,,,,,,,,,,,,,,,,,,,,,
,,5dc61208dd2b7747f95b3c9f,2022-09-08_13h57.33.012,CGTgamblingSpanTasks,2022.2.1,Linux x86_64,59.99880002,,,,,,,,0.7521,,,,,,,,,,,,,,2,n,3.2479,0,1,1.7521,1,,,,,,15.43649625,0,1.65459324,,,,,,,,,,,,,0,61,61,33,1,0.479480163,1,,,,,,,,,,,,,,,,,,,,,,,,,,,,,,,,,,,,,,,,,,,,,,,,,,,,,,,,,,,,,,,,,,,,,,,,,,,,,,,,
,,5dc61208dd2b7747f95b3c9f,2022-09-08_13h57.33.012,CGTgamblingSpanTasks,2022.2.1,Linux x86_64,59.99880002,,,,,,,,2.7252,,,,,,,,,,,,,,1,n,1.2748,10.31611309,0,3.7252,1,,,,,,19.30622782,0,10.31611309,,,,,,,,,,,,,0,62,62,1,1,0.091105656,0,,,,,,,,,,,,,,,,,,,,,,,,,,,,,,,,,,,,,,,,,,,,,,,,,,,,,,,,,,,,,,,,,,,,,,,,,,,,,,,,
,,5dc61208dd2b7747f95b3c9f,2022-09-08_13h57.33.012,CGTgamblingSpanTasks,2022.2.1,Linux x86_64,59.99880002,,,,,,,,3.1654,,,,,,,,,,,,,,2,n,0.8346,0,1,4.1654,1,,,,,,9.012590634,0,1.002188111,,,,,,,,,,,,,0,63,63,12,1,0.46958041,1,,,,,,,,,,,,,,,,,,,,,,,,,,,,,,,,,,,,,,,,,,,,,,,,,,,,,,,,,,,,,,,,,,,,,,,,,,,,,,,,
,,5dc61208dd2b7747f95b3c9f,2022-09-08_13h57.33.012,CGTgamblingSpanTasks,2022.2.1,Linux x86_64,59.99880002,,,,,,,,2.4849,,,,,,,,,,,,,,2,n,1.5151,0,1,3.4849,1,,,,,,19.58698544,0,9.936178001,,,,,,,,,,,,,0,64,64,77,1,0.098812204,0,,,,,,,,,,,,,,,,,,,,,,,,,,,,,,,,,,,,,,,,,,,,,,,,,,,,,,,,,,,,,,,,,,,,,,,,,,,,,,,,
,,5dc61208dd2b7747f95b3c9f,2022-09-08_13h57.33.012,CGTgamblingSpanTasks,2022.2.1,Linux x86_64,59.99880002,,,,,,,,2.9176,,,,,,,,,,,,,,1,v,1.0824,20.97851654,1,4.4176,1.5,,,,,,20.97851654,0,11.39288827,,,,,,,,,,,,,0,65,65,2,1,0.088791079,0,,,,,,,,,,,,,,,,,,,,,,,,,,,,,,,,,,,,,,,,,,,,,,,,,,,,,,,,,,,,,,,,,,,,,,,,,,,,,,,,
,,5dc61208dd2b7747f95b3c9f,2022-09-08_13h57.33.012,CGTgamblingSpanTasks,2022.2.1,Linux x86_64,59.99880002,,,,,,,,2.807,,,,,,,,,,,,,,2,n,1.193,21.16780451,1,4.307,1.5,,,,,,21.16780451,0,2.469465385,,,,,,,,,,,,,0,66,66,32,1,0.456531699,1,,,,,,,,,,,,,,,,,,,,,,,,,,,,,,,,,,,,,,,,,,,,,,,,,,,,,,,,,,,,,,,,,,,,,,,,,,,,,,,,
,,5dc61208dd2b7747f95b3c9f,2022-09-08_13h57.33.012,CGTgamblingSpanTasks,2022.2.1,Linux x86_64,59.99880002,,,,,,,,2.9806,,,,,,,,,,,,,,2,n,1.0194,0,1,3.9806,1,,,,,,13.96521039,0,1.591282699,,,,,,,,,,,,,0,67,67,49,1,0.462956344,1,,,,,,,,,,,,,,,,,,,,,,,,,,,,,,,,,,,,,,,,,,,,,,,,,,,,,,,,,,,,,,,,,,,,,,,,,,,,,,,,
,,5dc61208dd2b7747f95b3c9f,2022-09-08_13h57.33.012,CGTgamblingSpanTasks,2022.2.1,Linux x86_64,59.99880002,,,,,,,,2.6515,,,,,,,,,,,,,,2,n,1.3485,0,1,3.6515,1,,,,,,25.26994993,0,2.78925142,,,,,,,,,,,,,0,68,68,108,1,0.471582922,1,,,,,,,,,,,,,,,,,,,,,,,,,,,,,,,,,,,,,,,,,,,,,,,,,,,,,,,,,,,,,,,,,,,,,,,,,,,,,,,,
,,5dc61208dd2b7747f95b3c9f,2022-09-08_13h57.33.012,CGTgamblingSpanTasks,2022.2.1,Linux x86_64,59.99880002,,,,,,,,0.4678,,,,,,,,,,,,,,2,n,3.5322,21.46599803,1,1.9678,1.5,,,,,,21.46599803,0,0.059789256,,,,,,,,,,,,,0,69,69,8,1,0.909019081,0,,,,,,,,,,,,,,,,,,,,,,,,,,,,,,,,,,,,,,,,,,,,,,,,,,,,,,,,,,,,,,,,,,,,,,,,,,,,,,,,
,,5dc61208dd2b7747f95b3c9f,2022-09-08_13h57.33.012,CGTgamblingSpanTasks,2022.2.1,Linux x86_64,59.99880002,,,,,,,,2.4692,,,,,,,,,,,,,,2,v,1.5308,5.683635938,0,3.9692,1.5,,,,,,4.941039335,0,5.683635938,,,,,,,,,,,,,0,70,70,9,1,0.025481984,0,,,,,,,,,,,,,,,,,,,,,,,,,,,,,,,,,,,,,,,,,,,,,,,,,,,,,,,,,,,,,,,,,,,,,,,,,,,,,,,,
,,5dc61208dd2b7747f95b3c9f,2022-09-08_13h57.33.012,CGTgamblingSpanTasks,2022.2.1,Linux x86_64,59.99880002,,,,,,,,2.8328,,,,,,,,,,,,,,2,n,1.1672,21.03408097,1,4.3328,1.5,,,,,,21.03408097,0,2.208275162,,,,,,,,,,,,,0,71,71,0,1,0.485031246,1,,,,,,,,,,,,,,,,,,,,,,,,,,,,,,,,,,,,,,,,,,,,,,,,,,,,,,,,,,,,,,,,,,,,,,,,,,,,,,,,
,,5dc61208dd2b7747f95b3c9f,2022-09-08_13h57.33.012,CGTgamblingSpanTasks,2022.2.1,Linux x86_64,59.99880002,,,,,,,,0.5197,,,,,,,,,,,,,,1,v,3.4803,0,1,2.0197,1.5,,,,,,13.4287264,0,1.317368801,,,,,,,,,,,,,0,72,72,100,1,0.502953125,1,,,,,,,,,,,,,,,,,,,,,,,,,,,,,,,,,,,,,,,,,,,,,,,,,,,,,,,,,,,,,,,,,,,,,,,,,,,,,,,,
,,5dc61208dd2b7747f95b3c9f,2022-09-08_13h57.33.012,CGTgamblingSpanTasks,2022.2.1,Linux x86_64,59.99880002,,,,,,,,3.1962,,,,,,,,,,,,,,1,v,0.8038,0,1,4.1962,1,,,,,,27.94544945,0,2.32030209,,,,,,,,,,,,,0,73,73,115,1,0.545390564,1,,,,,,,,,,,,,,,,,,,,,,,,,,,,,,,,,,,,,,,,,,,,,,,,,,,,,,,,,,,,,,,,,,,,,,,,,,,,,,,,
,,5dc61208dd2b7747f95b3c9f,2022-09-08_13h57.33.012,CGTgamblingSpanTasks,2022.2.1,Linux x86_64,59.99880002,,,,,,,,2.5175,,,,,,,,,,,,,,2,v,1.4825,4.251676631,0,4.0175,1.5,,,,,,3.395192929,0,4.251676631,,,,,,,,,,,,,0,74,74,7,1,0.023467153,0,,,,,,,,,,,,,,,,,,,,,,,,,,,,,,,,,,,,,,,,,,,,,,,,,,,,,,,,,,,,,,,,,,,,,,,,,,,,,,,,
,,5dc61208dd2b7747f95b3c9f,2022-09-08_13h57.33.012,CGTgamblingSpanTasks,2022.2.1,Linux x86_64,59.99880002,,,,,,,,3.022,,,,,,,,,,,,,,1,v,0.978,0,1,4.022,1,,,,,,21.2188881,0,2.067660742,,,,,,,,,,,,,0,75,75,107,1,0.50470775,1,,,,,,,,,,,,,,,,,,,,,,,,,,,,,,,,,,,,,,,,,,,,,,,,,,,,,,,,,,,,,,,,,,,,,,,,,,,,,,,,
,,5dc61208dd2b7747f95b3c9f,2022-09-08_13h57.33.012,CGTgamblingSpanTasks,2022.2.1,Linux x86_64,59.99880002,,,,,,,,2.9842,,,,,,,,,,,,,,1,v,1.0158,0,1,3.9842,1,,,,,,27.76752685,0,0.083968035,,,,,,,,,,,,,0,76,76,13,1,0.906513967,0,,,,,,,,,,,,,,,,,,,,,,,,,,,,,,,,,,,,,,,,,,,,,,,,,,,,,,,,,,,,,,,,,,,,,,,,,,,,,,,,
,,5dc61208dd2b7747f95b3c9f,2022-09-08_13h57.33.012,CGTgamblingSpanTasks,2022.2.1,Linux x86_64,59.99880002,,,,,,,,3.1318,,,,,,,,,,,,,,1,v,0.8682,0,1,4.6318,1.5,,,,,,27.88092897,0,2.771762788,,,,,,,,,,,,,0,77,77,117,1,0.499466648,1,,,,,,,,,,,,,,,,,,,,,,,,,,,,,,,,,,,,,,,,,,,,,,,,,,,,,,,,,,,,,,,,,,,,,,,,,,,,,,,,
,,5dc61208dd2b7747f95b3c9f,2022-09-08_13h57.33.012,CGTgamblingSpanTasks,2022.2.1,Linux x86_64,59.99880002,,,,,,,,2.6014,,,,,,,,,,,,,,1,v,1.3986,0,1,3.6014,1,,,,,,19.3050342,0,2.030232342,,,,,,,,,,,,,0,78,78,73,1,0.484573227,1,,,,,,,,,,,,,,,,,,,,,,,,,,,,,,,,,,,,,,,,,,,,,,,,,,,,,,,,,,,,,,,,,,,,,,,,,,,,,,,,
,,5dc61208dd2b7747f95b3c9f,2022-09-08_13h57.33.012,CGTgamblingSpanTasks,2022.2.1,Linux x86_64,59.99880002,,,,,,,,2.6013,,,,,,,,,,,,,,1,v,1.3987,27.7711693,1,4.1013,1.5,,,,,,27.7711693,0,2.320849632,,,,,,,,,,,,,0,79,79,94,1,0.543786368,1,,,,,,,,,,,,,,,,,,,,,,,,,,,,,,,,,,,,,,,,,,,,,,,,,,,,,,,,,,,,,,,,,,,,,,,,,,,,,,,,
,,5dc61208dd2b7747f95b3c9f,2022-09-08_13h57.33.012,CGTgamblingSpanTasks,2022.2.1,Linux x86_64,59.99880002,,,,,,,,3.0687,,,,,,,,,,,,,,2,n,0.9313,0,1,4.5687,1.5,,,,,,27.57491653,0,2.99133314,,,,,,,,,,,,,0,80,80,10,1,0.47625893,1,,,,,,,,,,,,,,,,,,,,,,,,,,,,,,,,,,,,,,,,,,,,,,,,,,,,,,,,,,,,,,,,,,,,,,,,,,,,,,,,
,,5dc61208dd2b7747f95b3c9f,2022-09-08_13h57.33.012,CGTgamblingSpanTasks,2022.2.1,Linux x86_64,59.99880002,,,,,,,,2.0331,,,,,,,,,,,,,,2,n,1.9669,27.60724521,1,3.0331,1,,,,,,27.60724521,0,0.088432325,,,,,,,,,,,,,0,81,81,17,1,0.904684186,0,,,,,,,,,,,,,,,,,,,,,,,,,,,,,,,,,,,,,,,,,,,,,,,,,,,,,,,,,,,,,,,,,,,,,,,,,,,,,,,,
,,5dc61208dd2b7747f95b3c9f,2022-09-08_13h57.33.012,CGTgamblingSpanTasks,2022.2.1,Linux x86_64,59.99880002,,,,,,,,3.0475,,,,,,,,,,,,,,2,n,0.9525,0,1,4.0475,1,,,,,,28.14876717,0,3.117906378,,,,,,,,,,,,,0,82,82,76,1,0.470636736,1,,,,,,,,,,,,,,,,,,,,,,,,,,,,,,,,,,,,,,,,,,,,,,,,,,,,,,,,,,,,,,,,,,,,,,,,,,,,,,,,
,,5dc61208dd2b7747f95b3c9f,2022-09-08_13h57.33.012,CGTgamblingSpanTasks,2022.2.1,Linux x86_64,59.99880002,,,,,,,,3.0431,,,,,,,,,,,,,,1,v,0.9569,0,1,4.0431,1,,,,,,27.77179191,0,0.074524436,,,,,,,,,,,,,0,83,83,99,1,0.910114387,0,,,,,,,,,,,,,,,,,,,,,,,,,,,,,,,,,,,,,,,,,,,,,,,,,,,,,,,,,,,,,,,,,,,,,,,,,,,,,,,,
,,5dc61208dd2b7747f95b3c9f,2022-09-08_13h57.33.012,CGTgamblingSpanTasks,2022.2.1,Linux x86_64,59.99880002,,,,,,,,3.2022,,,,,,,,,,,,,,1,v,0.7978,0,1,4.7022,1.5,,,,,,28.9323758,0,2.893007023,,,,,,,,,,,,,0,84,84,11,1,0.497943321,1,,,,,,,,,,,,,,,,,,,,,,,,,,,,,,,,,,,,,,,,,,,,,,,,,,,,,,,,,,,,,,,,,,,,,,,,,,,,,,,,
,,5dc61208dd2b7747f95b3c9f,2022-09-08_13h57.33.012,CGTgamblingSpanTasks,2022.2.1,Linux x86_64,59.99880002,,,,,,,,2.9616,,,,,,,,,,,,,,1,v,1.0384,0,1,4.4616,1.5,,,,,,27.12325385,0,0.080932047,,,,,,,,,,,,,0,85,85,14,1,0.906929184,0,,,,,,,,,,,,,,,,,,,,,,,,,,,,,,,,,,,,,,,,,,,,,,,,,,,,,,,,,,,,,,,,,,,,,,,,,,,,,,,,
,,5dc61208dd2b7747f95b3c9f,2022-09-08_13h57.33.012,CGTgamblingSpanTasks,2022.2.1,Linux x86_64,59.99880002,,,,,,,,2.932,,,,,,,,,,,,,,1,v,1.068,0,1,3.932,1,,,,,,20.31034258,0,1.870404296,,,,,,,,,,,,,0,86,86,85,1,0.519325853,1,,,,,,,,,,,,,,,,,,,,,,,,,,,,,,,,,,,,,,,,,,,,,,,,,,,,,,,,,,,,,,,,,,,,,,,,,,,,,,,,
,,5dc61208dd2b7747f95b3c9f,2022-09-08_13h57.33.012,CGTgamblingSpanTasks,2022.2.1,Linux x86_64,59.99880002,,,,,,,,2.7509,,,,,,,,,,,,,,2,v,1.2491,11.41737518,0,4.2509,1.5,,,,,,18.11029021,0,11.41737518,,,,,,,,,,,,,0,87,87,48,1,0.069445859,0,,,,,,,,,,,,,,,,,,,,,,,,,,,,,,,,,,,,,,,,,,,,,,,,,,,,,,,,,,,,,,,,,,,,,,,,,,,,,,,,
,,5dc61208dd2b7747f95b3c9f,2022-09-08_13h57.33.012,CGTgamblingSpanTasks,2022.2.1,Linux x86_64,59.99880002,,,,,,,,2.9639,,,,,,,,,,,,,,2,n,1.0361,11.16819157,1,3.9639,1,,,,,,11.16819157,0,0.941456753,,,,,,,,,,,,,0,88,88,45,1,0.54163803,1,,,,,,,,,,,,,,,,,,,,,,,,,,,,,,,,,,,,,,,,,,,,,,,,,,,,,,,,,,,,,,,,,,,,,,,,,,,,,,,,
,,5dc61208dd2b7747f95b3c9f,2022-09-08_13h57.33.012,CGTgamblingSpanTasks,2022.2.1,Linux x86_64,59.99880002,,,,,,,,2.3843,,,,,,,,,,,,,,2,n,1.6157,0,1,3.3843,1,,,,,,14.20587264,0,11.93550497,,,,,,,,,,,,,0,89,89,21,1,0.041340301,0,,,,,,,,,,,,,,,,,,,,,,,,,,,,,,,,,,,,,,,,,,,,,,,,,,,,,,,,,,,,,,,,,,,,,,,,,,,,,,,,
,,5dc61208dd2b7747f95b3c9f,2022-09-08_13h57.33.012,CGTgamblingSpanTasks,2022.2.1,Linux x86_64,59.99880002,,,,,,,,2.8565,,,,,,,,,,,,,,1,v,1.1435,0,1,4.3565,1.5,,,,,,8.217594828,0,0.951019374,,,,,,,,,,,,,0,90,90,87,1,0.458722936,1,,,,,,,,,,,,,,,,,,,,,,,,,,,,,,,,,,,,,,,,,,,,,,,,,,,,,,,,,,,,,,,,,,,,,,,,,,,,,,,,
,,5dc61208dd2b7747f95b3c9f,2022-09-08_13h57.33.012,CGTgamblingSpanTasks,2022.2.1,Linux x86_64,59.99880002,,,,,,,,1.9456,,,,,,,,,,,,,,2,n,2.0544,0,1,2.9456,1,,,,,,11.08143071,0,1.207538756,,,,,,,,,,,,,0,91,91,84,1,0.475047453,1,,,,,,,,,,,,,,,,,,,,,,,,,,,,,,,,,,,,,,,,,,,,,,,,,,,,,,,,,,,,,,,,,,,,,,,,,,,,,,,,
,,5dc61208dd2b7747f95b3c9f,2022-09-08_13h57.33.012,CGTgamblingSpanTasks,2022.2.1,Linux x86_64,59.99880002,,,,,,,,2.9639,,,,,,,,,,,,,,1,v,1.0361,25.21882231,1,4.4639,1.5,,,,,,25.21882231,0,0.085746782,,,,,,,,,,,,,0,92,92,64,1,0.90272076,0,,,,,,,,,,,,,,,,,,,,,,,,,,,,,,,,,,,,,,,,,,,,,,,,,,,,,,,,,,,,,,,,,,,,,,,,,,,,,,,,
,,5dc61208dd2b7747f95b3c9f,2022-09-08_13h57.33.012,CGTgamblingSpanTasks,2022.2.1,Linux x86_64,59.99880002,,,,,,,,3.0317,,,,,,,,,,,,,,1,v,0.9683,24.479109,1,4.0317,1,,,,,,24.479109,0,0.089582697,,,,,,,,,,,,,0,93,93,89,1,0.900200232,0,,,,,,,,,,,,,,,,,,,,,,,,,,,,,,,,,,,,,,,,,,,,,,,,,,,,,,,,,,,,,,,,,,,,,,,,,,,,,,,,
,,5dc61208dd2b7747f95b3c9f,2022-09-08_13h57.33.012,CGTgamblingSpanTasks,2022.2.1,Linux x86_64,59.99880002,,,,,,,,2.3839,,,,,,,,,,,,,,1,v,1.6161,7.066129113,1,3.3839,1,,,,,,7.066129113,0,0.585581699,,,,,,,,,,,,,0,94,94,19,1,0.545860632,1,,,,,,,,,,,,,,,,,,,,,,,,,,,,,,,,,,,,,,,,,,,,,,,,,,,,,,,,,,,,,,,,,,,,,,,,,,,,,,,,
,,5dc61208dd2b7747f95b3c9f,2022-09-08_13h57.33.012,CGTgamblingSpanTasks,2022.2.1,Linux x86_64,59.99880002,,,,,,,,3.0297,,,,,,,,,,,,,,1,v,0.9703,0,1,4.5297,1.5,,,,,,27.53810185,0,0.097022401,,,,,,,,,,,,,0,95,95,50,1,0.901515865,0,,,,,,,,,,,,,,,,,,,,,,,,,,,,,,,,,,,,,,,,,,,,,,,,,,,,,,,,,,,,,,,,,,,,,,,,,,,,,,,,
,,5dc61208dd2b7747f95b3c9f,2022-09-08_13h57.33.012,CGTgamblingSpanTasks,2022.2.1,Linux x86_64,59.99880002,,,,,,,,2.0974,,,,,,,,,,,,,,2,n,1.9026,0,1,3.0974,1,,,,,,29.77342428,0,2.838865588,,,,,,,,,,,,,0,96,96,57,1,0.510363415,1,,,,,,,,,,,,,,,,,,,,,,,,,,,,,,,,,,,,,,,,,,,,,,,,,,,,,,,,,,,,,,,,,,,,,,,,,,,,,,,,
,,5dc61208dd2b7747f95b3c9f,2022-09-08_13h57.33.012,CGTgamblingSpanTasks,2022.2.1,Linux x86_64,59.99880002,,,,,,,,1.3508,,,,,,,,,,,,,,2,n,2.6492,24.35708027,1,2.8508,1.5,,,,,,24.35708027,0,2.738695417,,,,,,,,,,,,,0,97,97,114,1,0.466573634,1,,,,,,,,,,,,,,,,,,,,,,,,,,,,,,,,,,,,,,,,,,,,,,,,,,,,,,,,,,,,,,,,,,,,,,,,,,,,,,,,
,,5dc61208dd2b7747f95b3c9f,2022-09-08_13h57.33.012,CGTgamblingSpanTasks,2022.2.1,Linux x86_64,59.99880002,,,,,,,,2.8651,,,,,,,,,,,,,,1,v,1.1349,24.57684014,1,3.8651,1,,,,,,24.57684014,0,0.061756244,,,,,,,,,,,,,0,98,98,68,1,0.911988903,0,,,,,,,,,,,,,,,,,,,,,,,,,,,,,,,,,,,,,,,,,,,,,,,,,,,,,,,,,,,,,,,,,,,,,,,,,,,,,,,,
,,5dc61208dd2b7747f95b3c9f,2022-09-08_13h57.33.012,CGTgamblingSpanTasks,2022.2.1,Linux x86_64,59.99880002,,,,,,,,2.9539,,,,,,,,,,,,,,2,n,1.0461,29.75778644,1,3.9539,1,,,,,,29.75778644,0,2.810531415,,,,,,,,,,,,,0,99,99,113,1,0.512824233,1,,,,,,,,,,,,,,,,,,,,,,,,,,,,,,,,,,,,,,,,,,,,,,,,,,,,,,,,,,,,,,,,,,,,,,,,,,,,,,,,
,,5dc61208dd2b7747f95b3c9f,2022-09-08_13h57.33.012,CGTgamblingSpanTasks,2022.2.1,Linux x86_64,59.99880002,,,,,,,,2.427,,,,,,,,,,,,,,1,v,1.573,23.24777057,1,3.427,1,,,,,,23.24777057,0,2.003482335,,,,,,,,,,,,,0,100,100,59,1,0.536135174,1,,,,,,,,,,,,,,,,,,,,,,,,,,,,,,,,,,,,,,,,,,,,,,,,,,,,,,,,,,,,,,,,,,,,,,,,,,,,,,,,
,,5dc61208dd2b7747f95b3c9f,2022-09-08_13h57.33.012,CGTgamblingSpanTasks,2022.2.1,Linux x86_64,59.99880002,,,,,,,,3.002,,,,,,,,,,,,,,1,v,0.998,29.76099779,1,4.002,1,,,,,,29.76099779,0,0.095763086,,,,,,,,,,,,,0,101,101,35,1,0.904537896,0,,,,,,,,,,,,,,,,,,,,,,,,,,,,,,,,,,,,,,,,,,,,,,,,,,,,,,,,,,,,,,,,,,,,,,,,,,,,,,,,
,,5dc61208dd2b7747f95b3c9f,2022-09-08_13h57.33.012,CGTgamblingSpanTasks,2022.2.1,Linux x86_64,59.99880002,,,,,,,,3.1633,,,,,,,,,,,,,,1,v,0.8367,24.66627941,1,4.6633,1.5,,,,,,24.66627941,0,2.765426402,,,,,,,,,,,,,0,102,102,24,1,0.467360588,1,,,,,,,,,,,,,,,,,,,,,,,,,,,,,,,,,,,,,,,,,,,,,,,,,,,,,,,,,,,,,,,,,,,,,,,,,,,,,,,,
,,5dc61208dd2b7747f95b3c9f,2022-09-08_13h57.33.012,CGTgamblingSpanTasks,2022.2.1,Linux x86_64,59.99880002,,,,,,,,3.1998,,,,,,,,,,,,,,1,v,0.8002,28.18900855,1,4.6998,1.5,,,,,,28.18900855,0,0.05384276,,,,,,,,,,,,,0,103,103,55,1,0.919081308,0,,,,,,,,,,,,,,,,,,,,,,,,,,,,,,,,,,,,,,,,,,,,,,,,,,,,,,,,,,,,,,,,,,,,,,,,,,,,,,,,
,,5dc61208dd2b7747f95b3c9f,2022-09-08_13h57.33.012,CGTgamblingSpanTasks,2022.2.1,Linux x86_64,59.99880002,,,,,,,,2.865,,,,,,,,,,,,,,2,n,1.135,18.20422443,1,3.865,1,,,,,,18.20422443,0,1.635040165,,,,,,,,,,,,,0,104,104,82,1,0.525708991,1,,,,,,,,,,,,,,,,,,,,,,,,,,,,,,,,,,,,,,,,,,,,,,,,,,,,,,,,,,,,,,,,,,,,,,,,,,,,,,,,
,,5dc61208dd2b7747f95b3c9f,2022-09-08_13h57.33.012,CGTgamblingSpanTasks,2022.2.1,Linux x86_64,59.99880002,,,,,,,,3.0286,,,,,,,,,,,,,,2,n,0.9714,13.84410806,1,4.0286,1,,,,,,13.84410806,0,1.535873964,,,,,,,,,,,,,0,105,105,88,1,0.470209002,1,,,,,,,,,,,,,,,,,,,,,,,,,,,,,,,,,,,,,,,,,,,,,,,,,,,,,,,,,,,,,,,,,,,,,,,,,,,,,,,,
,,5dc61208dd2b7747f95b3c9f,2022-09-08_13h57.33.012,CGTgamblingSpanTasks,2022.2.1,Linux x86_64,59.99880002,,,,,,,,3.0151,,,,,,,,,,,,,,2,n,0.9849,0,1,4.0151,1,,,,,,22.62475578,0,2.397643354,,,,,,,,,,,,,0,106,106,93,1,0.482527609,1,,,,,,,,,,,,,,,,,,,,,,,,,,,,,,,,,,,,,,,,,,,,,,,,,,,,,,,,,,,,,,,,,,,,,,,,,,,,,,,,
,,5dc61208dd2b7747f95b3c9f,2022-09-08_13h57.33.012,CGTgamblingSpanTasks,2022.2.1,Linux x86_64,59.99880002,,,,,,,,2.8343,,,,,,,,,,,,,,1,n,1.1657,11.6744431,0,4.3343,1.5,,,,,,10.43004651,0,11.6744431,,,,,,,,,,,,,0,107,107,15,1,0.026176489,0,,,,,,,,,,,,,,,,,,,,,,,,,,,,,,,,,,,,,,,,,,,,,,,,,,,,,,,,,,,,,,,,,,,,,,,,,,,,,,,,
,,5dc61208dd2b7747f95b3c9f,2022-09-08_13h57.33.012,CGTgamblingSpanTasks,2022.2.1,Linux x86_64,59.99880002,,,,,,,,2.9679,,,,,,,,,,,,,,1,v,1.0321,0,1,3.9679,1,,,,,,17.92584289,0,1.878232496,,,,,,,,,,,,,0,108,108,5,1,0.485559263,1,,,,,,,,,,,,,,,,,,,,,,,,,,,,,,,,,,,,,,,,,,,,,,,,,,,,,,,,,,,,,,,,,,,,,,,,,,,,,,,,
,,5dc61208dd2b7747f95b3c9f,2022-09-08_13h57.33.012,CGTgamblingSpanTasks,2022.2.1,Linux x86_64,59.99880002,,,,,,,,2.8997,,,,,,,,,,,,,,1,v,1.1003,20.5726842,1,4.3997,1.5,,,,,,20.5726842,0,0.073558523,,,,,,,,,,,,,0,109,109,26,1,0.901008565,0,,,,,,,,,,,,,,,,,,,,,,,,,,,,,,,,,,,,,,,,,,,,,,,,,,,,,,,,,,,,,,,,,,,,,,,,,,,,,,,,
,,5dc61208dd2b7747f95b3c9f,2022-09-08_13h57.33.012,CGTgamblingSpanTasks,2022.2.1,Linux x86_64,59.99880002,,,,,,,,2.6181,,,,,,,,,,,,,,1,n,1.3819,8.512335864,0,4.1181,1.5,,,,,,10.05300841,0,8.512335864,,,,,,,,,,,,,0,110,110,74,1,0.040729225,0,,,,,,,,,,,,,,,,,,,,,,,,,,,,,,,,,,,,,,,,,,,,,,,,,,,,,,,,,,,,,,,,,,,,,,,,,,,,,,,,
,,5dc61208dd2b7747f95b3c9f,2022-09-08_13h57.33.012,CGTgamblingSpanTasks,2022.2.1,Linux x86_64,59.99880002,,,,,,,,1.7055,,,,,,,,,,,,,,2,n,2.2945,17.23907308,1,2.7055,1,,,,,,17.23907308,0,2.055848574,,,,,,,,,,,,,0,111,111,66,1,0.450504458,1,,,,,,,,,,,,,,,,,,,,,,,,,,,,,,,,,,,,,,,,,,,,,,,,,,,,,,,,,,,,,,,,,,,,,,,,,,,,,,,,
,,5dc61208dd2b7747f95b3c9f,2022-09-08_13h57.33.012,CGTgamblingSpanTasks,2022.2.1,Linux x86_64,59.99880002,,,,,,,,2.3166,,,,,,,,,,,,,,1,v,1.6834,0,1,3.3166,1,,,,,,25.56803059,0,2.543951743,,,,,,,,,,,,,0,112,112,41,1,0.499247217,1,,,,,,,,,,,,,,,,,,,,,,,,,,,,,,,,,,,,,,,,,,,,,,,,,,,,,,,,,,,,,,,,,,,,,,,,,,,,,,,,
,,5dc61208dd2b7747f95b3c9f,2022-09-08_13h57.33.012,CGTgamblingSpanTasks,2022.2.1,Linux x86_64,59.99880002,,,,,,,,2.3678,,,,,,,,,,,,,,1,v,1.6322,27.38828234,1,3.8678,1.5,,,,,,27.38828234,0,0.0639233,,,,,,,,,,,,,0,113,113,43,1,0.914010176,0,,,,,,,,,,,,,,,,,,,,,,,,,,,,,,,,,,,,,,,,,,,,,,,,,,,,,,,,,,,,,,,,,,,,,,,,,,,,,,,,
,,5dc61208dd2b7747f95b3c9f,2022-09-08_13h57.33.012,CGTgamblingSpanTasks,2022.2.1,Linux x86_64,59.99880002,,,,,,,,1.8703,,,,,,,,,,,,,,1,v,2.1297,22.25959835,1,2.8703,1,,,,,,22.25959835,0,0.065383587,,,,,,,,,,,,,0,114,114,97,1,0.907413875,0,,,,,,,,,,,,,,,,,,,,,,,,,,,,,,,,,,,,,,,,,,,,,,,,,,,,,,,,,,,,,,,,,,,,,,,,,,,,,,,,
,,5dc61208dd2b7747f95b3c9f,2022-09-08_13h57.33.012,CGTgamblingSpanTasks,2022.2.1,Linux x86_64,59.99880002,,,,,,,,1.2028,,,,,,,,,,,,,,2,v,2.7972,7.850775577,0,2.7028,1.5,,,,,,4.622707531,0,7.850775577,,,,,,,,,,,,,0,115,115,6,1,0.017737407,0,,,,,,,,,,,,,,,,,,,,,,,,,,,,,,,,,,,,,,,,,,,,,,,,,,,,,,,,,,,,,,,,,,,,,,,,,,,,,,,,
,,5dc61208dd2b7747f95b3c9f,2022-09-08_13h57.33.012,CGTgamblingSpanTasks,2022.2.1,Linux x86_64,59.99880002,,,,,,,,1.2329,,,,,,,,,,,,,,1,v,2.7671,0,1,2.7329,1.5,,,,,,21.39646914,0,0.072474078,,,,,,,,,,,,,0,116,116,3,1,0.902848133,0,,,,,,,,,,,,,,,,,,,,,,,,,,,,,,,,,,,,,,,,,,,,,,,,,,,,,,,,,,,,,,,,,,,,,,,,,,,,,,,,
,,5dc61208dd2b7747f95b3c9f,2022-09-08_13h57.33.012,CGTgamblingSpanTasks,2022.2.1,Linux x86_64,59.99880002,,,,,,,,1.505,,,,,,,,,,,,,,2,n,2.495,15.87668502,1,3.005,1.5,,,,,,15.87668502,0,8.42547829,,,,,,,,,,,,,0,117,117,56,1,0.092099462,0,,,,,,,,,,,,,,,,,,,,,,,,,,,,,,,,,,,,,,,,,,,,,,,,,,,,,,,,,,,,,,,,,,,,,,,,,,,,,,,,
,,5dc61208dd2b7747f95b3c9f,2022-09-08_13h57.33.012,CGTgamblingSpanTasks,2022.2.1,Linux x86_64,59.99880002,,,,,,,,0,,,,,,,,,,,,,,1,,,,,1,1,,,,,,12.9904115,0,11.42134125,,,,,,,,,,,,,0,118,118,118,1,0.037876033,0,,,,,,,,,,,,,,,,,,,,,,,,,,,,,,,,,,,,,,,,,,,,,,,,,,,,,,,,,,,,,,,,,,,,,,,,,,,,,,,,
,,5dc61208dd2b7747f95b3c9f,2022-09-08_13h57.33.012,CGTgamblingSpanTasks,2022.2.1,Linux x86_64,59.99880002,,,,,,,,2.0012,,,,,,,,,,,,,,1,v,1.9988,23.59556381,1,3.0012,1,,,,,,23.59556381,0,2.464662219,,,,,,,,,,,,,0,119,119,22,1,0.486383205,1,,,,,,,,,,,,,,,,,,,,,,,,,,,,,,,,,,,,,,,,,,,,,,,,,,,,,,,,,,,,,,,,,,,,,,,,,,,,,,,,
,,5dc61208dd2b7747f95b3c9f,2022-09-08_13h57.33.012,CGTgamblingSpanTasks,2022.2.1,Linux x86_64,59.99880002,,,,,,,,,,,,,,,,,,,,,,,,,,,,,,,,,,,,,,,,,,,,,,,,,,,,,,,,return,12.2824,,,,,,,,,,,,,,,,,,,,,,,,,,,,,,,,,,,,,,,,,,,,,,,,,,,,,,,,,,,,,,,,,,,,,,,,,,,,,,
,,5dc61208dd2b7747f95b3c9f,2022-09-08_13h57.33.012,CGTgamblingSpanTasks,2022.2.1,Linux x86_64,59.99880002,,,,,,,,,,,,,,,,,,,,,,,,,,,,,,,,,,,,,,,,,,,,,,,,,,,,,,,,,,return,67.0896,,,,,,,,,,,,,,,,,,,,,,,,,,,,,,,,,,,,,,,,,,,,,,,,,,,,,,,,,,,,,,,,,,,,,,,,,,,,
,,5dc61208dd2b7747f95b3c9f,2022-09-08_13h57.33.012,CGTgamblingSpanTasks,2022.2.1,Linux x86_64,59.99880002,,,,,,,,,,,,,,,,,,,,,,,,,,,,,,,,,,,,,,,,,,,,,,,,,,,,,,,,,,,,return,68.553,,,,,,,,,,,,,,,,,,,,,,,,,,,,,,,,,,,,,,,,,,,,,,,,,,,,,,,,,,,,,,,,,,,,,,,,,,
,,5dc61208dd2b7747f95b3c9f,2022-09-08_13h57.33.012,CGTgamblingSpanTasks,2022.2.1,Linux x86_64,59.99880002,,,,,,,,,,,,,,,,,,,,,,,,,,,,,,,,,,,,,,,,,,,,,,,,,,,,,,,,,,,,,,342,1,0.014343421,-0.398898681,1,0,0,cont_buttonPractice,0,0,0,0,1,3,342,24,2,42,,,,,,,,,,,,,,,,,,,,,,,,,,,,,,,,,,,,,,,,,,,,,,,,,,,,,,,,
,,5dc61208dd2b7747f95b3c9f,2022-09-08_13h57.33.012,CGTgamblingSpanTasks,2022.2.1,Linux x86_64,59.99880002,,,,,,,,,,,,,,,,,,,,,,,,,,,,,,,,,,,,,,,,,,,,,,,,,,,,,,,,,,,,,,937,1,0.02635471,-0.376565059,1,0,0,cont_buttonPractice,0,1,1,1,1,3,937,73,2,37,,,,,,,,,,,,,,,,,,,,,,,,,,,,,,,,,,,,,,,,,,,,,,,,,,,,,,,,
,,5dc61208dd2b7747f95b3c9f,2022-09-08_13h57.33.012,CGTgamblingSpanTasks,2022.2.1,Linux x86_64,59.99880002,,,,,,,,,,,,,,,,,,,,,,,,,,,,,,,,,,,,,,,,,,,,,,,,,,,,,,,,,,,,,,,,,,,,,,,,,,,,,,,,return,26.5376,,,,,,,,,,,,,,,,,,,,,,,,,,,,,,,,,,,,,,,,,,,,,,,,,,,,,,
,,5dc61208dd2b7747f95b3c9f,2022-09-08_13h57.33.012,CGTgamblingSpanTasks,2022.2.1,Linux x86_64,59.99880002,,,,,,,,,,,,,,,,,,,,,,,,,,,,,,,,,,,,,,,,,,,,,,,,,,,,,,,,,,,,,,,,,,,,,,,,,,,,,,,,,,"[9,4,5]",0,0,0,0,1,,,,,,,,,,,,,,,,,,,,,,,,,,,,,,,,,,,,,,,,,,,,,,,,
,,5dc61208dd2b7747f95b3c9f,2022-09-08_13h57.33.012,CGTgamblingSpanTasks,2022.2.1,Linux x86_64,59.99880002,,,,,,,,,,,,,,,,,,,,,,,,,,,,,,,,,,,,,,,,,,,,,,,,,,,,,,,,,,,,,,,,,,,,,,,,,,,,,,,,,,"[9,4,5]",1,0,1,0,1,,,,,,,,,,,,,,,,,,,,,,,,,,,,,,,,,,,,,,,,,,,,,,,,
,,5dc61208dd2b7747f95b3c9f,2022-09-08_13h57.33.012,CGTgamblingSpanTasks,2022.2.1,Linux x86_64,59.99880002,,,,,,,,,,,,,,,,,,,,,,,,,,,,,,,,,,,,,,,,,,,,,,,,,,,,,,,,,,,,,,,,,,,,,,,,,,,,,,,,,,"[9,4,5]",2,0,2,0,1,,,,,,,,,,,,,,,,,,,,,,,,,,,,,,,,,,,,,,,,,,,,,,,,
,,5dc61208dd2b7747f95b3c9f,2022-09-08_13h57.33.012,CGTgamblingSpanTasks,2022.2.1,Linux x86_64,59.99880002,,,,,,,,,,,,,,,,,,,,,,,,,,,,,,,,,,,,,,,,,,,,,,,,,,,,,,,,,,,,,,,1,,,,,,,,,,,,,,,,,,,,,,,,,945,-0.070450465,-0.389228423,1,0,0,cont_button,0,0,0,0,1,1,,,,,,,,,,,,,,,,,,,,,,,,,,,,,,,,,,,
,,5dc61208dd2b7747f95b3c9f,2022-09-08_13h57.33.012,CGTgamblingSpanTasks,2022.2.1,Linux x86_64,59.99880002,,,,,,,,,,,,,,,,,,,,,,,,,,,,,,,,,,,,,,,,,,,,,,,,,,,,,,,,,,,,,,,,,,,,,,,,,,,,,,,,,,"[3,1,2,8]",0,0,0,0,1,,,,,,,,,,,,,,,,,,,,,,,,,,,,,,,,,,,,,,,,,,,,,,,,
,,5dc61208dd2b7747f95b3c9f,2022-09-08_13h57.33.012,CGTgamblingSpanTasks,2022.2.1,Linux x86_64,59.99880002,,,,,,,,,,,,,,,,,,,,,,,,,,,,,,,,,,,,,,,,,,,,,,,,,,,,,,,,,,,,,,,,,,,,,,,,,,,,,,,,,,"[3,1,2,8]",1,0,1,0,1,,,,,,,,,,,,,,,,,,,,,,,,,,,,,,,,,,,,,,,,,,,,,,,,
,,5dc61208dd2b7747f95b3c9f,2022-09-08_13h57.33.012,CGTgamblingSpanTasks,2022.2.1,Linux x86_64,59.99880002,,,,,,,,,,,,,,,,,,,,,,,,,,,,,,,,,,,,,,,,,,,,,,,,,,,,,,,,,,,,,,,,,,,,,,,,,,,,,,,,,,"[3,1,2,8]",2,0,2,0,1,,,,,,,,,,,,,,,,,,,,,,,,,,,,,,,,,,,,,,,,,,,,,,,,
,,5dc61208dd2b7747f95b3c9f,2022-09-08_13h57.33.012,CGTgamblingSpanTasks,2022.2.1,Linux x86_64,59.99880002,,,,,,,,,,,,,,,,,,,,,,,,,,,,,,,,,,,,,,,,,,,,,,,,,,,,,,,,,,,,,,,,,,,,,,,,,,,,,,,,,,"[3,1,2,8]",3,0,3,0,1,,,,,,,,,,,,,,,,,,,,,,,,,,,,,,,,,,,,,,,,,,,,,,,,
,,5dc61208dd2b7747f95b3c9f,2022-09-08_13h57.33.012,CGTgamblingSpanTasks,2022.2.1,Linux x86_64,59.99880002,,,,,,,,,,,,,,,,,,,,,,,,,,,,,,,,,,,,,,,,,,,,,,,,,,,,,,,,,,,,,,,1,,,,,,,,,,,,,,,,,,,,,,,,,3128,-0.070450465,-0.389228423,1,0,0,cont_button,0,1,1,1,1,2,,,,,,,,,,,,,,,,,,,,,,,,,,,,,,,,,,,
,,5dc61208dd2b7747f95b3c9f,2022-09-08_13h57.33.012,CGTgamblingSpanTasks,2022.2.1,Linux x86_64,59.99880002,,,,,,,,,,,,,,,,,,,,,,,,,,,,,,,,,,,,,,,,,,,,,,,,,,,,,,,,,,,,,,,,,,,,,,,,,,,,,,,,,,"[8,9,7,4,1]",0,0,0,0,1,,,,,,,,,,,,,,,,,,,,,,,,,,,,,,,,,,,,,,,,,,,,,,,,
,,5dc61208dd2b7747f95b3c9f,2022-09-08_13h57.33.012,CGTgamblingSpanTasks,2022.2.1,Linux x86_64,59.99880002,,,,,,,,,,,,,,,,,,,,,,,,,,,,,,,,,,,,,,,,,,,,,,,,,,,,,,,,,,,,,,,,,,,,,,,,,,,,,,,,,,"[8,9,7,4,1]",1,0,1,0,1,,,,,,,,,,,,,,,,,,,,,,,,,,,,,,,,,,,,,,,,,,,,,,,,
,,5dc61208dd2b7747f95b3c9f,2022-09-08_13h57.33.012,CGTgamblingSpanTasks,2022.2.1,Linux x86_64,59.99880002,,,,,,,,,,,,,,,,,,,,,,,,,,,,,,,,,,,,,,,,,,,,,,,,,,,,,,,,,,,,,,,,,,,,,,,,,,,,,,,,,,"[8,9,7,4,1]",2,0,2,0,1,,,,,,,,,,,,,,,,,,,,,,,,,,,,,,,,,,,,,,,,,,,,,,,,
,,5dc61208dd2b7747f95b3c9f,2022-09-08_13h57.33.012,CGTgamblingSpanTasks,2022.2.1,Linux x86_64,59.99880002,,,,,,,,,,,,,,,,,,,,,,,,,,,,,,,,,,,,,,,,,,,,,,,,,,,,,,,,,,,,,,,,,,,,,,,,,,,,,,,,,,"[8,9,7,4,1]",3,0,3,0,1,,,,,,,,,,,,,,,,,,,,,,,,,,,,,,,,,,,,,,,,,,,,,,,,
,,5dc61208dd2b7747f95b3c9f,2022-09-08_13h57.33.012,CGTgamblingSpanTasks,2022.2.1,Linux x86_64,59.99880002,,,,,,,,,,,,,,,,,,,,,,,,,,,,,,,,,,,,,,,,,,,,,,,,,,,,,,,,,,,,,,,,,,,,,,,,,,,,,,,,,,"[8,9,7,4,1]",4,0,4,0,1,,,,,,,,,,,,,,,,,,,,,,,,,,,,,,,,,,,,,,,,,,,,,,,,
,,5dc61208dd2b7747f95b3c9f,2022-09-08_13h57.33.012,CGTgamblingSpanTasks,2022.2.1,Linux x86_64,59.99880002,,,,,,,,,,,,,,,,,,,,,,,,,,,,,,,,,,,,,,,,,,,,,,,,,,,,,,,,,,,,,,,1,,,,,,,,,,,,,,,,,,,,,,,,,89741,-0.070450465,-0.389228423,1,0,0,cont_button,0,2,2,2,1,3,,,,,,,,,,,,,,,,,,,,,,,,,,,,,,,,,,,
,,5dc61208dd2b7747f95b3c9f,2022-09-08_13h57.33.012,CGTgamblingSpanTasks,2022.2.1,Linux x86_64,59.99880002,,,,,,,,,,,,,,,,,,,,,,,,,,,,,,,,,,,,,,,,,,,,,,,,,,,,,,,,,,,,,,,,,,,,,,,,,,,,,,,,,,"[1,5,6,4,9,3]",0,0,0,0,1,,,,,,,,,,,,,,,,,,,,,,,,,,,,,,,,,,,,,,,,,,,,,,,,
,,5dc61208dd2b7747f95b3c9f,2022-09-08_13h57.33.012,CGTgamblingSpanTasks,2022.2.1,Linux x86_64,59.99880002,,,,,,,,,,,,,,,,,,,,,,,,,,,,,,,,,,,,,,,,,,,,,,,,,,,,,,,,,,,,,,,,,,,,,,,,,,,,,,,,,,"[1,5,6,4,9,3]",1,0,1,0,1,,,,,,,,,,,,,,,,,,,,,,,,,,,,,,,,,,,,,,,,,,,,,,,,
,,5dc61208dd2b7747f95b3c9f,2022-09-08_13h57.33.012,CGTgamblingSpanTasks,2022.2.1,Linux x86_64,59.99880002,,,,,,,,,,,,,,,,,,,,,,,,,,,,,,,,,,,,,,,,,,,,,,,,,,,,,,,,,,,,,,,,,,,,,,,,,,,,,,,,,,"[1,5,6,4,9,3]",2,0,2,0,1,,,,,,,,,,,,,,,,,,,,,,,,,,,,,,,,,,,,,,,,,,,,,,,,
,,5dc61208dd2b7747f95b3c9f,2022-09-08_13h57.33.012,CGTgamblingSpanTasks,2022.2.1,Linux x86_64,59.99880002,,,,,,,,,,,,,,,,,,,,,,,,,,,,,,,,,,,,,,,,,,,,,,,,,,,,,,,,,,,,,,,,,,,,,,,,,,,,,,,,,,"[1,5,6,4,9,3]",3,0,3,0,1,,,,,,,,,,,,,,,,,,,,,,,,,,,,,,,,,,,,,,,,,,,,,,,,
,,5dc61208dd2b7747f95b3c9f,2022-09-08_13h57.33.012,CGTgamblingSpanTasks,2022.2.1,Linux x86_64,59.99880002,,,,,,,,,,,,,,,,,,,,,,,,,,,,,,,,,,,,,,,,,,,,,,,,,,,,,,,,,,,,,,,,,,,,,,,,,,,,,,,,,,"[1,5,6,4,9,3]",4,0,4,0,1,,,,,,,,,,,,,,,,,,,,,,,,,,,,,,,,,,,,,,,,,,,,,,,,
,,5dc61208dd2b7747f95b3c9f,2022-09-08_13h57.33.012,CGTgamblingSpanTasks,2022.2.1,Linux x86_64,59.99880002,,,,,,,,,,,,,,,,,,,,,,,,,,,,,,,,,,,,,,,,,,,,,,,,,,,,,,,,,,,,,,,,,,,,,,,,,,,,,,,,,,"[1,5,6,4,9,3]",5,0,5,0,1,,,,,,,,,,,,,,,,,,,,,,,,,,,,,,,,,,,,,,,,,,,,,,,,
,,5dc61208dd2b7747f95b3c9f,2022-09-08_13h57.33.012,CGTgamblingSpanTasks,2022.2.1,Linux x86_64,59.99880002,,,,,,,,,,,,,,,,,,,,,,,,,,,,,,,,,,,,,,,,,,,,,,,,,,,,,,,,,,,,,,,0,,,,,,,,,,,,,,,,,,,,,,,,,146493,-0.070450465,-0.389228423,1,0,0,cont_button,0,3,3,3,1,4,,,,,,,,,,,,,,,,,,,,,,,,,,,,,,,,,,,
,,5dc61208dd2b7747f95b3c9f,2022-09-08_13h57.33.012,CGTgamblingSpanTasks,2022.2.1,Linux x86_64,59.99880002,,,,,,,,,,,,,,,,,,,,,,,,,,,,,,,,,,,,,,,,,,,,,,,,,,,,,,,,,,,,,,,,,,,,,,,,,,,,,,,,,,"[7,3,2,4,1,8]",0,0,0,0,1,,,,,,,,,,,,,,,,,,,,,,,,,,,,,,,,,,,,,,,,,,,,,,,,
,,5dc61208dd2b7747f95b3c9f,2022-09-08_13h57.33.012,CGTgamblingSpanTasks,2022.2.1,Linux x86_64,59.99880002,,,,,,,,,,,,,,,,,,,,,,,,,,,,,,,,,,,,,,,,,,,,,,,,,,,,,,,,,,,,,,,,,,,,,,,,,,,,,,,,,,"[7,3,2,4,1,8]",1,0,1,0,1,,,,,,,,,,,,,,,,,,,,,,,,,,,,,,,,,,,,,,,,,,,,,,,,
,,5dc61208dd2b7747f95b3c9f,2022-09-08_13h57.33.012,CGTgamblingSpanTasks,2022.2.1,Linux x86_64,59.99880002,,,,,,,,,,,,,,,,,,,,,,,,,,,,,,,,,,,,,,,,,,,,,,,,,,,,,,,,,,,,,,,,,,,,,,,,,,,,,,,,,,"[7,3,2,4,1,8]",2,0,2,0,1,,,,,,,,,,,,,,,,,,,,,,,,,,,,,,,,,,,,,,,,,,,,,,,,
,,5dc61208dd2b7747f95b3c9f,2022-09-08_13h57.33.012,CGTgamblingSpanTasks,2022.2.1,Linux x86_64,59.99880002,,,,,,,,,,,,,,,,,,,,,,,,,,,,,,,,,,,,,,,,,,,,,,,,,,,,,,,,,,,,,,,,,,,,,,,,,,,,,,,,,,"[7,3,2,4,1,8]",3,0,3,0,1,,,,,,,,,,,,,,,,,,,,,,,,,,,,,,,,,,,,,,,,,,,,,,,,
,,5dc61208dd2b7747f95b3c9f,2022-09-08_13h57.33.012,CGTgamblingSpanTasks,2022.2.1,Linux x86_64,59.99880002,,,,,,,,,,,,,,,,,,,,,,,,,,,,,,,,,,,,,,,,,,,,,,,,,,,,,,,,,,,,,,,,,,,,,,,,,,,,,,,,,,"[7,3,2,4,1,8]",4,0,4,0,1,,,,,,,,,,,,,,,,,,,,,,,,,,,,,,,,,,,,,,,,,,,,,,,,
,,5dc61208dd2b7747f95b3c9f,2022-09-08_13h57.33.012,CGTgamblingSpanTasks,2022.2.1,Linux x86_64,59.99880002,,,,,,,,,,,,,,,,,,,,,,,,,,,,,,,,,,,,,,,,,,,,,,,,,,,,,,,,,,,,,,,,,,,,,,,,,,,,,,,,,,"[7,3,2,4,1,8]",5,0,5,0,1,,,,,,,,,,,,,,,,,,,,,,,,,,,,,,,,,,,,,,,,,,,,,,,,
,,5dc61208dd2b7747f95b3c9f,2022-09-08_13h57.33.012,CGTgamblingSpanTasks,2022.2.1,Linux x86_64,59.99880002,,,,,,,,,,,,,,,,,,,,,,,,,,,,,,,,,,,,,,,,,,,,,,,,,,,,,,,,,,,,,,,1,,,,,,,,,,,,,,,,,,,,,,,,,732418,-0.070450465,-0.389228423,1,0,0,cont_button,0,4,4,4,1,5,,,,,,,,,,,,,,,,,,,,,,,,,,,,,,,,,,,
,,5dc61208dd2b7747f95b3c9f,2022-09-08_13h57.33.012,CGTgamblingSpanTasks,2022.2.1,Linux x86_64,59.99880002,,,,,,,,,,,,,,,,,,,,,,,,,,,,,,,,,,,,,,,,,,,,,,,,,,,,,,,,,,,,,,,,,,,,,,,,,,,,,,,,,,"[8,3,7,5,6,4,9]",0,0,0,0,1,,,,,,,,,,,,,,,,,,,,,,,,,,,,,,,,,,,,,,,,,,,,,,,,
,,5dc61208dd2b7747f95b3c9f,2022-09-08_13h57.33.012,CGTgamblingSpanTasks,2022.2.1,Linux x86_64,59.99880002,,,,,,,,,,,,,,,,,,,,,,,,,,,,,,,,,,,,,,,,,,,,,,,,,,,,,,,,,,,,,,,,,,,,,,,,,,,,,,,,,,"[8,3,7,5,6,4,9]",1,0,1,0,1,,,,,,,,,,,,,,,,,,,,,,,,,,,,,,,,,,,,,,,,,,,,,,,,
,,5dc61208dd2b7747f95b3c9f,2022-09-08_13h57.33.012,CGTgamblingSpanTasks,2022.2.1,Linux x86_64,59.99880002,,,,,,,,,,,,,,,,,,,,,,,,,,,,,,,,,,,,,,,,,,,,,,,,,,,,,,,,,,,,,,,,,,,,,,,,,,,,,,,,,,"[8,3,7,5,6,4,9]",2,0,2,0,1,,,,,,,,,,,,,,,,,,,,,,,,,,,,,,,,,,,,,,,,,,,,,,,,
,,5dc61208dd2b7747f95b3c9f,2022-09-08_13h57.33.012,CGTgamblingSpanTasks,2022.2.1,Linux x86_64,59.99880002,,,,,,,,,,,,,,,,,,,,,,,,,,,,,,,,,,,,,,,,,,,,,,,,,,,,,,,,,,,,,,,,,,,,,,,,,,,,,,,,,,"[8,3,7,5,6,4,9]",3,0,3,0,1,,,,,,,,,,,,,,,,,,,,,,,,,,,,,,,,,,,,,,,,,,,,,,,,
,,5dc61208dd2b7747f95b3c9f,2022-09-08_13h57.33.012,CGTgamblingSpanTasks,2022.2.1,Linux x86_64,59.99880002,,,,,,,,,,,,,,,,,,,,,,,,,,,,,,,,,,,,,,,,,,,,,,,,,,,,,,,,,,,,,,,,,,,,,,,,,,,,,,,,,,"[8,3,7,5,6,4,9]",4,0,4,0,1,,,,,,,,,,,,,,,,,,,,,,,,,,,,,,,,,,,,,,,,,,,,,,,,
,,5dc61208dd2b7747f95b3c9f,2022-09-08_13h57.33.012,CGTgamblingSpanTasks,2022.2.1,Linux x86_64,59.99880002,,,,,,,,,,,,,,,,,,,,,,,,,,,,,,,,,,,,,,,,,,,,,,,,,,,,,,,,,,,,,,,,,,,,,,,,,,,,,,,,,,"[8,3,7,5,6,4,9]",5,0,5,0,1,,,,,,,,,,,,,,,,,,,,,,,,,,,,,,,,,,,,,,,,,,,,,,,,
,,5dc61208dd2b7747f95b3c9f,2022-09-08_13h57.33.012,CGTgamblingSpanTasks,2022.2.1,Linux x86_64,59.99880002,,,,,,,,,,,,,,,,,,,,,,,,,,,,,,,,,,,,,,,,,,,,,,,,,,,,,,,,,,,,,,,,,,,,,,,,,,,,,,,,,,"[8,3,7,5,6,4,9]",6,0,6,0,1,,,,,,,,,,,,,,,,,,,,,,,,,,,,,,,,,,,,,,,,,,,,,,,,
,,5dc61208dd2b7747f95b3c9f,2022-09-08_13h57.33.012,CGTgamblingSpanTasks,2022.2.1,Linux x86_64,59.99880002,,,,,,,,,,,,,,,,,,,,,,,,,,,,,,,,,,,,,,,,,,,,,,,,,,,,,,,,,,,,,,,0,,,,,,,,,,,,,,,,,,,,,,,,,8379649,-0.070450465,-0.389228423,1,0,0,cont_button,0,5,5,5,1,6,,,,,,,,,,,,,,,,,,,,,,,,,,,,,,,,,,,
,,5dc61208dd2b7747f95b3c9f,2022-09-08_13h57.33.012,CGTgamblingSpanTasks,2022.2.1,Linux x86_64,59.99880002,,,,,,,,,,,,,,,,,,,,,,,,,,,,,,,,,,,,,,,,,,,,,,,,,,,,,,,,,,,,,,,,,,,,,,,,,,,,,,,,,,"[2,6,5,3,8,7,9]",0,0,0,0,1,,,,,,,,,,,,,,,,,,,,,,,,,,,,,,,,,,,,,,,,,,,,,,,,
,,5dc61208dd2b7747f95b3c9f,2022-09-08_13h57.33.012,CGTgamblingSpanTasks,2022.2.1,Linux x86_64,59.99880002,,,,,,,,,,,,,,,,,,,,,,,,,,,,,,,,,,,,,,,,,,,,,,,,,,,,,,,,,,,,,,,,,,,,,,,,,,,,,,,,,,"[2,6,5,3,8,7,9]",1,0,1,0,1,,,,,,,,,,,,,,,,,,,,,,,,,,,,,,,,,,,,,,,,,,,,,,,,
,,5dc61208dd2b7747f95b3c9f,2022-09-08_13h57.33.012,CGTgamblingSpanTasks,2022.2.1,Linux x86_64,59.99880002,,,,,,,,,,,,,,,,,,,,,,,,,,,,,,,,,,,,,,,,,,,,,,,,,,,,,,,,,,,,,,,,,,,,,,,,,,,,,,,,,,"[2,6,5,3,8,7,9]",2,0,2,0,1,,,,,,,,,,,,,,,,,,,,,,,,,,,,,,,,,,,,,,,,,,,,,,,,
,,5dc61208dd2b7747f95b3c9f,2022-09-08_13h57.33.012,CGTgamblingSpanTasks,2022.2.1,Linux x86_64,59.99880002,,,,,,,,,,,,,,,,,,,,,,,,,,,,,,,,,,,,,,,,,,,,,,,,,,,,,,,,,,,,,,,,,,,,,,,,,,,,,,,,,,"[2,6,5,3,8,7,9]",3,0,3,0,1,,,,,,,,,,,,,,,,,,,,,,,,,,,,,,,,,,,,,,,,,,,,,,,,
,,5dc61208dd2b7747f95b3c9f,2022-09-08_13h57.33.012,CGTgamblingSpanTasks,2022.2.1,Linux x86_64,59.99880002,,,,,,,,,,,,,,,,,,,,,,,,,,,,,,,,,,,,,,,,,,,,,,,,,,,,,,,,,,,,,,,,,,,,,,,,,,,,,,,,,,"[2,6,5,3,8,7,9]",4,0,4,0,1,,,,,,,,,,,,,,,,,,,,,,,,,,,,,,,,,,,,,,,,,,,,,,,,
,,5dc61208dd2b7747f95b3c9f,2022-09-08_13h57.33.012,CGTgamblingSpanTasks,2022.2.1,Linux x86_64,59.99880002,,,,,,,,,,,,,,,,,,,,,,,,,,,,,,,,,,,,,,,,,,,,,,,,,,,,,,,,,,,,,,,,,,,,,,,,,,,,,,,,,,"[2,6,5,3,8,7,9]",5,0,5,0,1,,,,,,,,,,,,,,,,,,,,,,,,,,,,,,,,,,,,,,,,,,,,,,,,
,,5dc61208dd2b7747f95b3c9f,2022-09-08_13h57.33.012,CGTgamblingSpanTasks,2022.2.1,Linux x86_64,59.99880002,,,,,,,,,,,,,,,,,,,,,,,,,,,,,,,,,,,,,,,,,,,,,,,,,,,,,,,,,,,,,,,,,,,,,,,,,,,,,,,,,,"[2,6,5,3,8,7,9]",6,0,6,0,1,,,,,,,,,,,,,,,,,,,,,,,,,,,,,,,,,,,,,,,,,,,,,,,,
,,5dc61208dd2b7747f95b3c9f,2022-09-08_13h57.33.012,CGTgamblingSpanTasks,2022.2.1,Linux x86_64,59.99880002,,,,,,,,,,,,,,,,,,,,,,,,,,,,,,,,,,,,,,,,,,,,,,,,,,,,,,,,,,,,,,,0,,,,,,,,,,,,,,,,,,,,,,,,,265387,-0.041610161,-0.402134895,1,0,0,cont_button,0,6,6,6,1,7,,,,,,,,,,,,,,,,,,,,,,,,,,,,,,,,,,,
,,5dc61208dd2b7747f95b3c9f,2022-09-08_13h57.33.012,CGTgamblingSpanTasks,2022.2.1,Linux x86_64,59.99880002,,,,,,,,,,,,,,,,,,,,,,,,,,,,,,,,,,,,,,,,,,,,,,,,,,,,,,,,,,,,,,,,,,,,,,,,,,,,,,,,,,"[2,5,4,6,1,8]",0,0,0,0,1,,,,,,,,,,,,,,,,,,,,,,,,,,,,,,,,,,,,,,,,,,,,,,,,
,,5dc61208dd2b7747f95b3c9f,2022-09-08_13h57.33.012,CGTgamblingSpanTasks,2022.2.1,Linux x86_64,59.99880002,,,,,,,,,,,,,,,,,,,,,,,,,,,,,,,,,,,,,,,,,,,,,,,,,,,,,,,,,,,,,,,,,,,,,,,,,,,,,,,,,,"[2,5,4,6,1,8]",1,0,1,0,1,,,,,,,,,,,,,,,,,,,,,,,,,,,,,,,,,,,,,,,,,,,,,,,,
,,5dc61208dd2b7747f95b3c9f,2022-09-08_13h57.33.012,CGTgamblingSpanTasks,2022.2.1,Linux x86_64,59.99880002,,,,,,,,,,,,,,,,,,,,,,,,,,,,,,,,,,,,,,,,,,,,,,,,,,,,,,,,,,,,,,,,,,,,,,,,,,,,,,,,,,"[2,5,4,6,1,8]",2,0,2,0,1,,,,,,,,,,,,,,,,,,,,,,,,,,,,,,,,,,,,,,,,,,,,,,,,
,,5dc61208dd2b7747f95b3c9f,2022-09-08_13h57.33.012,CGTgamblingSpanTasks,2022.2.1,Linux x86_64,59.99880002,,,,,,,,,,,,,,,,,,,,,,,,,,,,,,,,,,,,,,,,,,,,,,,,,,,,,,,,,,,,,,,,,,,,,,,,,,,,,,,,,,"[2,5,4,6,1,8]",3,0,3,0,1,,,,,,,,,,,,,,,,,,,,,,,,,,,,,,,,,,,,,,,,,,,,,,,,
,,5dc61208dd2b7747f95b3c9f,2022-09-08_13h57.33.012,CGTgamblingSpanTasks,2022.2.1,Linux x86_64,59.99880002,,,,,,,,,,,,,,,,,,,,,,,,,,,,,,,,,,,,,,,,,,,,,,,,,,,,,,,,,,,,,,,,,,,,,,,,,,,,,,,,,,"[2,5,4,6,1,8]",4,0,4,0,1,,,,,,,,,,,,,,,,,,,,,,,,,,,,,,,,,,,,,,,,,,,,,,,,
,,5dc61208dd2b7747f95b3c9f,2022-09-08_13h57.33.012,CGTgamblingSpanTasks,2022.2.1,Linux x86_64,59.99880002,,,,,,,,,,,,,,,,,,,,,,,,,,,,,,,,,,,,,,,,,,,,,,,,,,,,,,,,,,,,,,,,,,,,,,,,,,,,,,,,,,"[2,5,4,6,1,8]",5,0,5,0,1,,,,,,,,,,,,,,,,,,,,,,,,,,,,,,,,,,,,,,,,,,,,,,,,
,,5dc61208dd2b7747f95b3c9f,2022-09-08_13h57.33.012,CGTgamblingSpanTasks,2022.2.1,Linux x86_64,59.99880002,,,,,,,,,,,,,,,,,,,,,,,,,,,,,,,,,,,,,,,,,,,,,,,,,,,,,,,,,,,,,,,0,,,,,,,,,,,,,,,,,,,,,,,,,24618,-0.041610161,-0.402134895,1,0,0,cont_button,0,7,7,7,1,8,,,,,,,,,,,,,,,,,,,,,,,,,,,,,,,,,,,
,,5dc61208dd2b7747f95b3c9f,2022-09-08_13h57.33.012,CGTgamblingSpanTasks,2022.2.1,Linux x86_64,59.99880002,,,,,,,,,,,,,,,,,,,,,,,,,,,,,,,,,,,,,,,,,,,,,,,,,,,,,,,,,,,,,,,,,,,,,,,,,,,,,,,,,,"[7,2,3,8,6,5]",0,0,0,0,1,,,,,,,,,,,,,,,,,,,,,,,,,,,,,,,,,,,,,,,,,,,,,,,,
,,5dc61208dd2b7747f95b3c9f,2022-09-08_13h57.33.012,CGTgamblingSpanTasks,2022.2.1,Linux x86_64,59.99880002,,,,,,,,,,,,,,,,,,,,,,,,,,,,,,,,,,,,,,,,,,,,,,,,,,,,,,,,,,,,,,,,,,,,,,,,,,,,,,,,,,"[7,2,3,8,6,5]",1,0,1,0,1,,,,,,,,,,,,,,,,,,,,,,,,,,,,,,,,,,,,,,,,,,,,,,,,
,,5dc61208dd2b7747f95b3c9f,2022-09-08_13h57.33.012,CGTgamblingSpanTasks,2022.2.1,Linux x86_64,59.99880002,,,,,,,,,,,,,,,,,,,,,,,,,,,,,,,,,,,,,,,,,,,,,,,,,,,,,,,,,,,,,,,,,,,,,,,,,,,,,,,,,,"[7,2,3,8,6,5]",2,0,2,0,1,,,,,,,,,,,,,,,,,,,,,,,,,,,,,,,,,,,,,,,,,,,,,,,,
,,5dc61208dd2b7747f95b3c9f,2022-09-08_13h57.33.012,CGTgamblingSpanTasks,2022.2.1,Linux x86_64,59.99880002,,,,,,,,,,,,,,,,,,,,,,,,,,,,,,,,,,,,,,,,,,,,,,,,,,,,,,,,,,,,,,,,,,,,,,,,,,,,,,,,,,"[7,2,3,8,6,5]",3,0,3,0,1,,,,,,,,,,,,,,,,,,,,,,,,,,,,,,,,,,,,,,,,,,,,,,,,
,,5dc61208dd2b7747f95b3c9f,2022-09-08_13h57.33.012,CGTgamblingSpanTasks,2022.2.1,Linux x86_64,59.99880002,,,,,,,,,,,,,,,,,,,,,,,,,,,,,,,,,,,,,,,,,,,,,,,,,,,,,,,,,,,,,,,,,,,,,,,,,,,,,,,,,,"[7,2,3,8,6,5]",4,0,4,0,1,,,,,,,,,,,,,,,,,,,,,,,,,,,,,,,,,,,,,,,,,,,,,,,,
,,5dc61208dd2b7747f95b3c9f,2022-09-08_13h57.33.012,CGTgamblingSpanTasks,2022.2.1,Linux x86_64,59.99880002,,,,,,,,,,,,,,,,,,,,,,,,,,,,,,,,,,,,,,,,,,,,,,,,,,,,,,,,,,,,,,,,,,,,,,,,,,,,,,,,,,"[7,2,3,8,6,5]",5,0,5,0,1,,,,,,,,,,,,,,,,,,,,,,,,,,,,,,,,,,,,,,,,,,,,,,,,
,,5dc61208dd2b7747f95b3c9f,2022-09-08_13h57.33.012,CGTgamblingSpanTasks,2022.2.1,Linux x86_64,59.99880002,,,,,,,,,,,,,,,,,,,,,,,,,,,,,,,,,,,,,,,,,,,,,,,,,,,,,,,,,,,,,,,1,,,,,,,,,,,,,,,,,,,,,,,,,723865,-0.041610161,-0.402134895,1,0,0,cont_button,0,8,8,8,1,9,,,,,,,,,,,,,,,,,,,,,,,,,,,,,,,,,,,
,,5dc61208dd2b7747f95b3c9f,2022-09-08_13h57.33.012,CGTgamblingSpanTasks,2022.2.1,Linux x86_64,59.99880002,,,,,,,,,,,,,,,,,,,,,,,,,,,,,,,,,,,,,,,,,,,,,,,,,,,,,,,,,,,,,,,,,,,,,,,,,,,,,,,,,,"[8,7,2,4,3,5,9]",0,0,0,0,1,,,,,,,,,,,,,,,,,,,,,,,,,,,,,,,,,,,,,,,,,,,,,,,,
,,5dc61208dd2b7747f95b3c9f,2022-09-08_13h57.33.012,CGTgamblingSpanTasks,2022.2.1,Linux x86_64,59.99880002,,,,,,,,,,,,,,,,,,,,,,,,,,,,,,,,,,,,,,,,,,,,,,,,,,,,,,,,,,,,,,,,,,,,,,,,,,,,,,,,,,"[8,7,2,4,3,5,9]",1,0,1,0,1,,,,,,,,,,,,,,,,,,,,,,,,,,,,,,,,,,,,,,,,,,,,,,,,
,,5dc61208dd2b7747f95b3c9f,2022-09-08_13h57.33.012,CGTgamblingSpanTasks,2022.2.1,Linux x86_64,59.99880002,,,,,,,,,,,,,,,,,,,,,,,,,,,,,,,,,,,,,,,,,,,,,,,,,,,,,,,,,,,,,,,,,,,,,,,,,,,,,,,,,,"[8,7,2,4,3,5,9]",2,0,2,0,1,,,,,,,,,,,,,,,,,,,,,,,,,,,,,,,,,,,,,,,,,,,,,,,,
,,5dc61208dd2b7747f95b3c9f,2022-09-08_13h57.33.012,CGTgamblingSpanTasks,2022.2.1,Linux x86_64,59.99880002,,,,,,,,,,,,,,,,,,,,,,,,,,,,,,,,,,,,,,,,,,,,,,,,,,,,,,,,,,,,,,,,,,,,,,,,,,,,,,,,,,"[8,7,2,4,3,5,9]",3,0,3,0,1,,,,,,,,,,,,,,,,,,,,,,,,,,,,,,,,,,,,,,,,,,,,,,,,
,,5dc61208dd2b7747f95b3c9f,2022-09-08_13h57.33.012,CGTgamblingSpanTasks,2022.2.1,Linux x86_64,59.99880002,,,,,,,,,,,,,,,,,,,,,,,,,,,,,,,,,,,,,,,,,,,,,,,,,,,,,,,,,,,,,,,,,,,,,,,,,,,,,,,,,,"[8,7,2,4,3,5,9]",4,0,4,0,1,,,,,,,,,,,,,,,,,,,,,,,,,,,,,,,,,,,,,,,,,,,,,,,,
,,5dc61208dd2b7747f95b3c9f,2022-09-08_13h57.33.012,CGTgamblingSpanTasks,2022.2.1,Linux x86_64,59.99880002,,,,,,,,,,,,,,,,,,,,,,,,,,,,,,,,,,,,,,,,,,,,,,,,,,,,,,,,,,,,,,,,,,,,,,,,,,,,,,,,,,"[8,7,2,4,3,5,9]",5,0,5,0,1,,,,,,,,,,,,,,,,,,,,,,,,,,,,,,,,,,,,,,,,,,,,,,,,
,,5dc61208dd2b7747f95b3c9f,2022-09-08_13h57.33.012,CGTgamblingSpanTasks,2022.2.1,Linux x86_64,59.99880002,,,,,,,,,,,,,,,,,,,,,,,,,,,,,,,,,,,,,,,,,,,,,,,,,,,,,,,,,,,,,,,,,,,,,,,,,,,,,,,,,,"[8,7,2,4,3,5,9]",6,0,6,0,1,,,,,,,,,,,,,,,,,,,,,,,,,,,,,,,,,,,,,,,,,,,,,,,,
,,5dc61208dd2b7747f95b3c9f,2022-09-08_13h57.33.012,CGTgamblingSpanTasks,2022.2.1,Linux x86_64,59.99880002,,,,,,,,,,,,,,,,,,,,,,,,,,,,,,,,,,,,,,,,,,,,,,,,,,,,,,,,,,,,,,,1,,,,,,,,,,,,,,,,,,,,,,,,,8724359,-0.041610161,-0.402134895,1,0,0,cont_button,0,9,9,9,1,10,,,,,,,,,,,,,,,,,,,,,,,,,,,,,,,,,,,
,,5dc61208dd2b7747f95b3c9f,2022-09-08_13h57.33.012,CGTgamblingSpanTasks,2022.2.1,Linux x86_64,59.99880002,,,,,,,,,,,,,,,,,,,,,,,,,,,,,,,,,,,,,,,,,,,,,,,,,,,,,,,,,,,,,,,,,,,,,,,,,,,,,,,,,,"[9,4,3,8,5,1,6,2]",0,0,0,0,1,,,,,,,,,,,,,,,,,,,,,,,,,,,,,,,,,,,,,,,,,,,,,,,,
,,5dc61208dd2b7747f95b3c9f,2022-09-08_13h57.33.012,CGTgamblingSpanTasks,2022.2.1,Linux x86_64,59.99880002,,,,,,,,,,,,,,,,,,,,,,,,,,,,,,,,,,,,,,,,,,,,,,,,,,,,,,,,,,,,,,,,,,,,,,,,,,,,,,,,,,"[9,4,3,8,5,1,6,2]",1,0,1,0,1,,,,,,,,,,,,,,,,,,,,,,,,,,,,,,,,,,,,,,,,,,,,,,,,
,,5dc61208dd2b7747f95b3c9f,2022-09-08_13h57.33.012,CGTgamblingSpanTasks,2022.2.1,Linux x86_64,59.99880002,,,,,,,,,,,,,,,,,,,,,,,,,,,,,,,,,,,,,,,,,,,,,,,,,,,,,,,,,,,,,,,,,,,,,,,,,,,,,,,,,,"[9,4,3,8,5,1,6,2]",2,0,2,0,1,,,,,,,,,,,,,,,,,,,,,,,,,,,,,,,,,,,,,,,,,,,,,,,,
,,5dc61208dd2b7747f95b3c9f,2022-09-08_13h57.33.012,CGTgamblingSpanTasks,2022.2.1,Linux x86_64,59.99880002,,,,,,,,,,,,,,,,,,,,,,,,,,,,,,,,,,,,,,,,,,,,,,,,,,,,,,,,,,,,,,,,,,,,,,,,,,,,,,,,,,"[9,4,3,8,5,1,6,2]",3,0,3,0,1,,,,,,,,,,,,,,,,,,,,,,,,,,,,,,,,,,,,,,,,,,,,,,,,
,,5dc61208dd2b7747f95b3c9f,2022-09-08_13h57.33.012,CGTgamblingSpanTasks,2022.2.1,Linux x86_64,59.99880002,,,,,,,,,,,,,,,,,,,,,,,,,,,,,,,,,,,,,,,,,,,,,,,,,,,,,,,,,,,,,,,,,,,,,,,,,,,,,,,,,,"[9,4,3,8,5,1,6,2]",4,0,4,0,1,,,,,,,,,,,,,,,,,,,,,,,,,,,,,,,,,,,,,,,,,,,,,,,,
,,5dc61208dd2b7747f95b3c9f,2022-09-08_13h57.33.012,CGTgamblingSpanTasks,2022.2.1,Linux x86_64,59.99880002,,,,,,,,,,,,,,,,,,,,,,,,,,,,,,,,,,,,,,,,,,,,,,,,,,,,,,,,,,,,,,,,,,,,,,,,,,,,,,,,,,"[9,4,3,8,5,1,6,2]",5,0,5,0,1,,,,,,,,,,,,,,,,,,,,,,,,,,,,,,,,,,,,,,,,,,,,,,,,
,,5dc61208dd2b7747f95b3c9f,2022-09-08_13h57.33.012,CGTgamblingSpanTasks,2022.2.1,Linux x86_64,59.99880002,,,,,,,,,,,,,,,,,,,,,,,,,,,,,,,,,,,,,,,,,,,,,,,,,,,,,,,,,,,,,,,,,,,,,,,,,,,,,,,,,,"[9,4,3,8,5,1,6,2]",6,0,6,0,1,,,,,,,,,,,,,,,,,,,,,,,,,,,,,,,,,,,,,,,,,,,,,,,,
,,5dc61208dd2b7747f95b3c9f,2022-09-08_13h57.33.012,CGTgamblingSpanTasks,2022.2.1,Linux x86_64,59.99880002,,,,,,,,,,,,,,,,,,,,,,,,,,,,,,,,,,,,,,,,,,,,,,,,,,,,,,,,,,,,,,,,,,,,,,,,,,,,,,,,,,"[9,4,3,8,5,1,6,2]",7,0,7,0,1,,,,,,,,,,,,,,,,,,,,,,,,,,,,,,,,,,,,,,,,,,,,,,,,
,,5dc61208dd2b7747f95b3c9f,2022-09-08_13h57.33.012,CGTgamblingSpanTasks,2022.2.1,Linux x86_64,59.99880002,,,,,,,,,,,,,,,,,,,,,,,,,,,,,,,,,,,,,,,,,,,,,,,,,,,,,,,,,,,,,,,1,,,,,,,,,,,,,,,,,,,,,,,,,94385162,-0.041610161,-0.402134895,1,0,0,cont_button,0,10,10,10,1,11,,,,,,,,,,,,,,,,,,,,,,,,,,,,,,,,,,,
,,5dc61208dd2b7747f95b3c9f,2022-09-08_13h57.33.012,CGTgamblingSpanTasks,2022.2.1,Linux x86_64,59.99880002,,,,,,,,,,,,,,,,,,,,,,,,,,,,,,,,,,,,,,,,,,,,,,,,,,,,,,,,,,,,,,,,,,,,,,,,,,,,,,,,,,"[2,1,6,7,4,5,3,9,8]",0,0,0,0,1,,,,,,,,,,,,,,,,,,,,,,,,,,,,,,,,,,,,,,,,,,,,,,,,
,,5dc61208dd2b7747f95b3c9f,2022-09-08_13h57.33.012,CGTgamblingSpanTasks,2022.2.1,Linux x86_64,59.99880002,,,,,,,,,,,,,,,,,,,,,,,,,,,,,,,,,,,,,,,,,,,,,,,,,,,,,,,,,,,,,,,,,,,,,,,,,,,,,,,,,,"[2,1,6,7,4,5,3,9,8]",1,0,1,0,1,,,,,,,,,,,,,,,,,,,,,,,,,,,,,,,,,,,,,,,,,,,,,,,,
,,5dc61208dd2b7747f95b3c9f,2022-09-08_13h57.33.012,CGTgamblingSpanTasks,2022.2.1,Linux x86_64,59.99880002,,,,,,,,,,,,,,,,,,,,,,,,,,,,,,,,,,,,,,,,,,,,,,,,,,,,,,,,,,,,,,,,,,,,,,,,,,,,,,,,,,"[2,1,6,7,4,5,3,9,8]",2,0,2,0,1,,,,,,,,,,,,,,,,,,,,,,,,,,,,,,,,,,,,,,,,,,,,,,,,
,,5dc61208dd2b7747f95b3c9f,2022-09-08_13h57.33.012,CGTgamblingSpanTasks,2022.2.1,Linux x86_64,59.99880002,,,,,,,,,,,,,,,,,,,,,,,,,,,,,,,,,,,,,,,,,,,,,,,,,,,,,,,,,,,,,,,,,,,,,,,,,,,,,,,,,,"[2,1,6,7,4,5,3,9,8]",3,0,3,0,1,,,,,,,,,,,,,,,,,,,,,,,,,,,,,,,,,,,,,,,,,,,,,,,,
,,5dc61208dd2b7747f95b3c9f,2022-09-08_13h57.33.012,CGTgamblingSpanTasks,2022.2.1,Linux x86_64,59.99880002,,,,,,,,,,,,,,,,,,,,,,,,,,,,,,,,,,,,,,,,,,,,,,,,,,,,,,,,,,,,,,,,,,,,,,,,,,,,,,,,,,"[2,1,6,7,4,5,3,9,8]",4,0,4,0,1,,,,,,,,,,,,,,,,,,,,,,,,,,,,,,,,,,,,,,,,,,,,,,,,
,,5dc61208dd2b7747f95b3c9f,2022-09-08_13h57.33.012,CGTgamblingSpanTasks,2022.2.1,Linux x86_64,59.99880002,,,,,,,,,,,,,,,,,,,,,,,,,,,,,,,,,,,,,,,,,,,,,,,,,,,,,,,,,,,,,,,,,,,,,,,,,,,,,,,,,,"[2,1,6,7,4,5,3,9,8]",5,0,5,0,1,,,,,,,,,,,,,,,,,,,,,,,,,,,,,,,,,,,,,,,,,,,,,,,,
,,5dc61208dd2b7747f95b3c9f,2022-09-08_13h57.33.012,CGTgamblingSpanTasks,2022.2.1,Linux x86_64,59.99880002,,,,,,,,,,,,,,,,,,,,,,,,,,,,,,,,,,,,,,,,,,,,,,,,,,,,,,,,,,,,,,,,,,,,,,,,,,,,,,,,,,"[2,1,6,7,4,5,3,9,8]",6,0,6,0,1,,,,,,,,,,,,,,,,,,,,,,,,,,,,,,,,,,,,,,,,,,,,,,,,
,,5dc61208dd2b7747f95b3c9f,2022-09-08_13h57.33.012,CGTgamblingSpanTasks,2022.2.1,Linux x86_64,59.99880002,,,,,,,,,,,,,,,,,,,,,,,,,,,,,,,,,,,,,,,,,,,,,,,,,,,,,,,,,,,,,,,,,,,,,,,,,,,,,,,,,,"[2,1,6,7,4,5,3,9,8]",7,0,7,0,1,,,,,,,,,,,,,,,,,,,,,,,,,,,,,,,,,,,,,,,,,,,,,,,,
,,5dc61208dd2b7747f95b3c9f,2022-09-08_13h57.33.012,CGTgamblingSpanTasks,2022.2.1,Linux x86_64,59.99880002,,,,,,,,,,,,,,,,,,,,,,,,,,,,,,,,,,,,,,,,,,,,,,,,,,,,,,,,,,,,,,,,,,,,,,,,,,,,,,,,,,"[2,1,6,7,4,5,3,9,8]",8,0,8,0,1,,,,,,,,,,,,,,,,,,,,,,,,,,,,,,,,,,,,,,,,,,,,,,,,
,,5dc61208dd2b7747f95b3c9f,2022-09-08_13h57.33.012,CGTgamblingSpanTasks,2022.2.1,Linux x86_64,59.99880002,,,,,,,,,,,,,,,,,,,,,,,,,,,,,,,,,,,,,,,,,,,,,,,,,,,,,,,,,,,,,,,0,,,,,,,,,,,,,,,,,,,,,,,,,2167538,-0.041610161,-0.402134895,1,0,0,cont_button,0,11,11,11,1,12,,,,,,,,,,,,,,,,,,,,,,,,,,,,,,,,,,,
,,5dc61208dd2b7747f95b3c9f,2022-09-08_13h57.33.012,CGTgamblingSpanTasks,2022.2.1,Linux x86_64,59.99880002,,,,,,,,,,,,,,,,,,,,,,,,,,,,,,,,,,,,,,,,,,,,,,,,,,,,,,,,,,,,,,,,,,,,,,,,,,,,,,,,,,"[4,9,6,2,8,3,5,7,1]",0,0,0,0,1,,,,,,,,,,,,,,,,,,,,,,,,,,,,,,,,,,,,,,,,,,,,,,,,
,,5dc61208dd2b7747f95b3c9f,2022-09-08_13h57.33.012,CGTgamblingSpanTasks,2022.2.1,Linux x86_64,59.99880002,,,,,,,,,,,,,,,,,,,,,,,,,,,,,,,,,,,,,,,,,,,,,,,,,,,,,,,,,,,,,,,,,,,,,,,,,,,,,,,,,,"[4,9,6,2,8,3,5,7,1]",1,0,1,0,1,,,,,,,,,,,,,,,,,,,,,,,,,,,,,,,,,,,,,,,,,,,,,,,,
,,5dc61208dd2b7747f95b3c9f,2022-09-08_13h57.33.012,CGTgamblingSpanTasks,2022.2.1,Linux x86_64,59.99880002,,,,,,,,,,,,,,,,,,,,,,,,,,,,,,,,,,,,,,,,,,,,,,,,,,,,,,,,,,,,,,,,,,,,,,,,,,,,,,,,,,"[4,9,6,2,8,3,5,7,1]",2,0,2,0,1,,,,,,,,,,,,,,,,,,,,,,,,,,,,,,,,,,,,,,,,,,,,,,,,
,,5dc61208dd2b7747f95b3c9f,2022-09-08_13h57.33.012,CGTgamblingSpanTasks,2022.2.1,Linux x86_64,59.99880002,,,,,,,,,,,,,,,,,,,,,,,,,,,,,,,,,,,,,,,,,,,,,,,,,,,,,,,,,,,,,,,,,,,,,,,,,,,,,,,,,,"[4,9,6,2,8,3,5,7,1]",3,0,3,0,1,,,,,,,,,,,,,,,,,,,,,,,,,,,,,,,,,,,,,,,,,,,,,,,,
,,5dc61208dd2b7747f95b3c9f,2022-09-08_13h57.33.012,CGTgamblingSpanTasks,2022.2.1,Linux x86_64,59.99880002,,,,,,,,,,,,,,,,,,,,,,,,,,,,,,,,,,,,,,,,,,,,,,,,,,,,,,,,,,,,,,,,,,,,,,,,,,,,,,,,,,"[4,9,6,2,8,3,5,7,1]",4,0,4,0,1,,,,,,,,,,,,,,,,,,,,,,,,,,,,,,,,,,,,,,,,,,,,,,,,
,,5dc61208dd2b7747f95b3c9f,2022-09-08_13h57.33.012,CGTgamblingSpanTasks,2022.2.1,Linux x86_64,59.99880002,,,,,,,,,,,,,,,,,,,,,,,,,,,,,,,,,,,,,,,,,,,,,,,,,,,,,,,,,,,,,,,,,,,,,,,,,,,,,,,,,,"[4,9,6,2,8,3,5,7,1]",5,0,5,0,1,,,,,,,,,,,,,,,,,,,,,,,,,,,,,,,,,,,,,,,,,,,,,,,,
,,5dc61208dd2b7747f95b3c9f,2022-09-08_13h57.33.012,CGTgamblingSpanTasks,2022.2.1,Linux x86_64,59.99880002,,,,,,,,,,,,,,,,,,,,,,,,,,,,,,,,,,,,,,,,,,,,,,,,,,,,,,,,,,,,,,,,,,,,,,,,,,,,,,,,,,"[4,9,6,2,8,3,5,7,1]",6,0,6,0,1,,,,,,,,,,,,,,,,,,,,,,,,,,,,,,,,,,,,,,,,,,,,,,,,
,,5dc61208dd2b7747f95b3c9f,2022-09-08_13h57.33.012,CGTgamblingSpanTasks,2022.2.1,Linux x86_64,59.99880002,,,,,,,,,,,,,,,,,,,,,,,,,,,,,,,,,,,,,,,,,,,,,,,,,,,,,,,,,,,,,,,,,,,,,,,,,,,,,,,,,,"[4,9,6,2,8,3,5,7,1]",7,0,7,0,1,,,,,,,,,,,,,,,,,,,,,,,,,,,,,,,,,,,,,,,,,,,,,,,,
,,5dc61208dd2b7747f95b3c9f,2022-09-08_13h57.33.012,CGTgamblingSpanTasks,2022.2.1,Linux x86_64,59.99880002,,,,,,,,,,,,,,,,,,,,,,,,,,,,,,,,,,,,,,,,,,,,,,,,,,,,,,,,,,,,,,,,,,,,,,,,,,,,,,,,,,"[4,9,6,2,8,3,5,7,1]",8,0,8,0,1,,,,,,,,,,,,,,,,,,,,,,,,,,,,,,,,,,,,,,,,,,,,,,,,
,,5dc61208dd2b7747f95b3c9f,2022-09-08_13h57.33.012,CGTgamblingSpanTasks,2022.2.1,Linux x86_64,59.99880002,,,,,,,,,,,,,,,,,,,,,,,,,,,,,,,,,,,,,,,,,,,,,,,,,,,,,,,,,,,,,,,0,,,,,,,,,,,,,,,,,,,,,,,,,21645391,-0.041610161,-0.402134895,1,0,0,cont_button,0,12,12,12,1,13,,,,,,,,,,,,,,,,,,,,,,,,,,,,,,,,,,,
,,5dc61208dd2b7747f95b3c9f,2022-09-08_13h57.33.012,CGTgamblingSpanTasks,2022.2.1,Linux x86_64,59.99880002,,,,,,,,,,,,,,,,,,,,,,,,,,,,,,,,,,,,,,,,,,,,,,,,,,,,,,,,,,,,,,,,,,,,,,,,,,,,,,,,,,"[9,1,3,4,2,7,5,8]",0,0,0,0,1,,,,,,,,,,,,,,,,,,,,,,,,,,,,,,,,,,,,,,,,,,,,,,,,
,,5dc61208dd2b7747f95b3c9f,2022-09-08_13h57.33.012,CGTgamblingSpanTasks,2022.2.1,Linux x86_64,59.99880002,,,,,,,,,,,,,,,,,,,,,,,,,,,,,,,,,,,,,,,,,,,,,,,,,,,,,,,,,,,,,,,,,,,,,,,,,,,,,,,,,,"[9,1,3,4,2,7,5,8]",1,0,1,0,1,,,,,,,,,,,,,,,,,,,,,,,,,,,,,,,,,,,,,,,,,,,,,,,,
,,5dc61208dd2b7747f95b3c9f,2022-09-08_13h57.33.012,CGTgamblingSpanTasks,2022.2.1,Linux x86_64,59.99880002,,,,,,,,,,,,,,,,,,,,,,,,,,,,,,,,,,,,,,,,,,,,,,,,,,,,,,,,,,,,,,,,,,,,,,,,,,,,,,,,,,"[9,1,3,4,2,7,5,8]",2,0,2,0,1,,,,,,,,,,,,,,,,,,,,,,,,,,,,,,,,,,,,,,,,,,,,,,,,
,,5dc61208dd2b7747f95b3c9f,2022-09-08_13h57.33.012,CGTgamblingSpanTasks,2022.2.1,Linux x86_64,59.99880002,,,,,,,,,,,,,,,,,,,,,,,,,,,,,,,,,,,,,,,,,,,,,,,,,,,,,,,,,,,,,,,,,,,,,,,,,,,,,,,,,,"[9,1,3,4,2,7,5,8]",3,0,3,0,1,,,,,,,,,,,,,,,,,,,,,,,,,,,,,,,,,,,,,,,,,,,,,,,,
,,5dc61208dd2b7747f95b3c9f,2022-09-08_13h57.33.012,CGTgamblingSpanTasks,2022.2.1,Linux x86_64,59.99880002,,,,,,,,,,,,,,,,,,,,,,,,,,,,,,,,,,,,,,,,,,,,,,,,,,,,,,,,,,,,,,,,,,,,,,,,,,,,,,,,,,"[9,1,3,4,2,7,5,8]",4,0,4,0,1,,,,,,,,,,,,,,,,,,,,,,,,,,,,,,,,,,,,,,,,,,,,,,,,
,,5dc61208dd2b7747f95b3c9f,2022-09-08_13h57.33.012,CGTgamblingSpanTasks,2022.2.1,Linux x86_64,59.99880002,,,,,,,,,,,,,,,,,,,,,,,,,,,,,,,,,,,,,,,,,,,,,,,,,,,,,,,,,,,,,,,,,,,,,,,,,,,,,,,,,,"[9,1,3,4,2,7,5,8]",5,0,5,0,1,,,,,,,,,,,,,,,,,,,,,,,,,,,,,,,,,,,,,,,,,,,,,,,,
,,5dc61208dd2b7747f95b3c9f,2022-09-08_13h57.33.012,CGTgamblingSpanTasks,2022.2.1,Linux x86_64,59.99880002,,,,,,,,,,,,,,,,,,,,,,,,,,,,,,,,,,,,,,,,,,,,,,,,,,,,,,,,,,,,,,,,,,,,,,,,,,,,,,,,,,"[9,1,3,4,2,7,5,8]",6,0,6,0,1,,,,,,,,,,,,,,,,,,,,,,,,,,,,,,,,,,,,,,,,,,,,,,,,
,,5dc61208dd2b7747f95b3c9f,2022-09-08_13h57.33.012,CGTgamblingSpanTasks,2022.2.1,Linux x86_64,59.99880002,,,,,,,,,,,,,,,,,,,,,,,,,,,,,,,,,,,,,,,,,,,,,,,,,,,,,,,,,,,,,,,,,,,,,,,,,,,,,,,,,,"[9,1,3,4,2,7,5,8]",7,0,7,0,1,,,,,,,,,,,,,,,,,,,,,,,,,,,,,,,,,,,,,,,,,,,,,,,,
,,5dc61208dd2b7747f95b3c9f,2022-09-08_13h57.33.012,CGTgamblingSpanTasks,2022.2.1,Linux x86_64,59.99880002,,,,,,,,,,,,,,,,,,,,,,,,,,,,,,,,,,,,,,,,,,,,,,,,,,,,,,,,,,,,,,,0,,,,,,,,,,,,,,,,,,,,,,,,,9134275,-0.041610161,-0.402134895,1,0,0,cont_button,0,13,13,13,1,14,,,,,,,,,,,,,,,,,,,,,,,,,,,,,,,,,,,
,,5dc61208dd2b7747f95b3c9f,2022-09-08_13h57.33.012,CGTgamblingSpanTasks,2022.2.1,Linux x86_64,59.99880002,,,,,,,,,,,,,,,,,,,,,,,,,,,,,,,,,,,,,,,,,,,,,,,,,,,,,,,,,,,,,,,,,,,,,,,,,,,,,,,,,,,,,,,,,,,,,,,,,,,,,return,2.8788,,,,,,,,,,,,,,,,,,,,,,,,,,,,,,,,,
,,5dc61208dd2b7747f95b3c9f,2022-09-08_13h57.33.012,CGTgamblingSpanTasks,2022.2.1,Linux x86_64,59.99880002,,,,,,,,,,,,,,,,,,,,,,,,,,,,,,,,,,,,,,,,,,,,,,,,,,,,,,,,,,,,,,,,,,,,,,,,,,,,,,,,,,,,,,,,,,,,,,,,,,,,,,,return,5.6917,,,,,,,,,,,,,,,,,,,,,,,,,,,,,,,
,,5dc61208dd2b7747f95b3c9f,2022-09-08_13h57.33.012,CGTgamblingSpanTasks,2022.2.1,Linux x86_64,59.99880002,,,,,,,,,,,,,,,,,,,,,,,,,,,,,,,,,,,,,,,,,,,,,,,,,,,,,,,,,,,,,,,1,,,,,,,,,,,,3,342,24,2,42,,,,,,,,,,,,,,,,,,,,,,,,,,42,-0.041610161,-0.402134895,1,0,0,cont_buttonPractice_2,0,0,0,0,1,,,,,,,,,,,,,,,,,,,
,,5dc61208dd2b7747f95b3c9f,2022-09-08_13h57.33.012,CGTgamblingSpanTasks,2022.2.1,Linux x86_64,59.99880002,,,,,,,,,,,,,,,,,,,,,,,,,,,,,,,,,,,,,,,,,,,,,,,,,,,,,,,,,,,,,,,1,,,,,,,,,,,,3,937,73,2,37,,,,,,,,,,,,,,,,,,,,,,,,,,37,-0.041610161,-0.402134895,1,0,0,cont_buttonPractice_2,0,1,1,1,1,,,,,,,,,,,,,,,,,,,
,,5dc61208dd2b7747f95b3c9f,2022-09-08_13h57.33.012,CGTgamblingSpanTasks,2022.2.1,Linux x86_64,59.99880002,,,,,,,,,,,,,,,,,,,,,,,,,,,,,,,,,,,,,,,,,,,,,,,,,,,,,,,,,,,,,,,,,,,,,,,,,,,,,,,,,,,,,,,,,,,,,,,,,,,,,,,,,,,,,,,,,,,,,return,9.6469,,,,,,,,,,,,,,,,,
,,5dc61208dd2b7747f95b3c9f,2022-09-08_13h57.33.012,CGTgamblingSpanTasks,2022.2.1,Linux x86_64,59.99880002,,,,,,,,,,,,,,,,,,,,,,,,,,,,,,,,,,,,,,,,,,,,,,,,,,,,,,,,,,,,,,,,,,,,,,,,,,,,,,,,,,"[2,5]",,,,,,,,,,,,,,,,,,,,,,,,,,,,,,,,,,,,,0,0,0,0,1,,,,,,,,,,,,
,,5dc61208dd2b7747f95b3c9f,2022-09-08_13h57.33.012,CGTgamblingSpanTasks,2022.2.1,Linux x86_64,59.99880002,,,,,,,,,,,,,,,,,,,,,,,,,,,,,,,,,,,,,,,,,,,,,,,,,,,,,,,,,,,,,,,,,,,,,,,,,,,,,,,,,,"[2,5]",,,,,,,,,,,,,,,,,,,,,,,,,,,,,,,,,,,,,1,0,1,0,1,,,,,,,,,,,,
,,5dc61208dd2b7747f95b3c9f,2022-09-08_13h57.33.012,CGTgamblingSpanTasks,2022.2.1,Linux x86_64,59.99880002,,,,,,,,,,,,,,,,,,,,,,,,,,,,,,,,,,,,,,,,,,,,,,,,,,,,,,,,,,,,,,,1,,,,,,,,,,,,,,,,,,,,,,,,,,,,,,,,,,,,,1,,,,,,,,,,,,,,,,,,,,,,,,52,-0.041610161,-0.402134895,1,0,0,cont_buttonBS,0,0,0,0,1
,,5dc61208dd2b7747f95b3c9f,2022-09-08_13h57.33.012,CGTgamblingSpanTasks,2022.2.1,Linux x86_64,59.99880002,,,,,,,,,,,,,,,,,,,,,,,,,,,,,,,,,,,,,,,,,,,,,,,,,,,,,,,,,,,,,,,,,,,,,,,,,,,,,,,,,,"[4,2,7]",,,,,,,,,,,,,,,,,,,,,,,,,,,,,,,,,,,,,0,0,0,0,1,,,,,,,,,,,,
,,5dc61208dd2b7747f95b3c9f,2022-09-08_13h57.33.012,CGTgamblingSpanTasks,2022.2.1,Linux x86_64,59.99880002,,,,,,,,,,,,,,,,,,,,,,,,,,,,,,,,,,,,,,,,,,,,,,,,,,,,,,,,,,,,,,,,,,,,,,,,,,,,,,,,,,"[4,2,7]",,,,,,,,,,,,,,,,,,,,,,,,,,,,,,,,,,,,,1,0,1,0,1,,,,,,,,,,,,
,,5dc61208dd2b7747f95b3c9f,2022-09-08_13h57.33.012,CGTgamblingSpanTasks,2022.2.1,Linux x86_64,59.99880002,,,,,,,,,,,,,,,,,,,,,,,,,,,,,,,,,,,,,,,,,,,,,,,,,,,,,,,,,,,,,,,,,,,,,,,,,,,,,,,,,,"[4,2,7]",,,,,,,,,,,,,,,,,,,,,,,,,,,,,,,,,,,,,2,0,2,0,1,,,,,,,,,,,,
,,5dc61208dd2b7747f95b3c9f,2022-09-08_13h57.33.012,CGTgamblingSpanTasks,2022.2.1,Linux x86_64,59.99880002,,,,,,,,,,,,,,,,,,,,,,,,,,,,,,,,,,,,,,,,,,,,,,,,,,,,,,,,,,,,,,,1,,,,,,,,,,,,,,,,,,,,,,,,,,,,,,,,,,,,,2,,,,,,,,,,,,,,,,,,,,,,,,724,-0.041610161,-0.402134895,1,0,0,cont_buttonBS,0,1,1,1,1
,,5dc61208dd2b7747f95b3c9f,2022-09-08_13h57.33.012,CGTgamblingSpanTasks,2022.2.1,Linux x86_64,59.99880002,,,,,,,,,,,,,,,,,,,,,,,,,,,,,,,,,,,,,,,,,,,,,,,,,,,,,,,,,,,,,,,,,,,,,,,,,,,,,,,,,,"[9,2,5,1]",,,,,,,,,,,,,,,,,,,,,,,,,,,,,,,,,,,,,0,0,0,0,1,,,,,,,,,,,,
,,5dc61208dd2b7747f95b3c9f,2022-09-08_13h57.33.012,CGTgamblingSpanTasks,2022.2.1,Linux x86_64,59.99880002,,,,,,,,,,,,,,,,,,,,,,,,,,,,,,,,,,,,,,,,,,,,,,,,,,,,,,,,,,,,,,,,,,,,,,,,,,,,,,,,,,"[9,2,5,1]",,,,,,,,,,,,,,,,,,,,,,,,,,,,,,,,,,,,,1,0,1,0,1,,,,,,,,,,,,
,,5dc61208dd2b7747f95b3c9f,2022-09-08_13h57.33.012,CGTgamblingSpanTasks,2022.2.1,Linux x86_64,59.99880002,,,,,,,,,,,,,,,,,,,,,,,,,,,,,,,,,,,,,,,,,,,,,,,,,,,,,,,,,,,,,,,,,,,,,,,,,,,,,,,,,,"[9,2,5,1]",,,,,,,,,,,,,,,,,,,,,,,,,,,,,,,,,,,,,2,0,2,0,1,,,,,,,,,,,,
,,5dc61208dd2b7747f95b3c9f,2022-09-08_13h57.33.012,CGTgamblingSpanTasks,2022.2.1,Linux x86_64,59.99880002,,,,,,,,,,,,,,,,,,,,,,,,,,,,,,,,,,,,,,,,,,,,,,,,,,,,,,,,,,,,,,,,,,,,,,,,,,,,,,,,,,"[9,2,5,1]",,,,,,,,,,,,,,,,,,,,,,,,,,,,,,,,,,,,,3,0,3,0,1,,,,,,,,,,,,
,,5dc61208dd2b7747f95b3c9f,2022-09-08_13h57.33.012,CGTgamblingSpanTasks,2022.2.1,Linux x86_64,59.99880002,,,,,,,,,,,,,,,,,,,,,,,,,,,,,,,,,,,,,,,,,,,,,,,,,,,,,,,,,,,,,,,1,,,,,,,,,,,,,,,,,,,,,,,,,,,,,,,,,,,,,3,,,,,,,,,,,,,,,,,,,,,,,,1529,-0.041610161,-0.402134895,1,0,0,cont_buttonBS,0,2,2,2,1
,,5dc61208dd2b7747f95b3c9f,2022-09-08_13h57.33.012,CGTgamblingSpanTasks,2022.2.1,Linux x86_64,59.99880002,,,,,,,,,,,,,,,,,,,,,,,,,,,,,,,,,,,,,,,,,,,,,,,,,,,,,,,,,,,,,,,,,,,,,,,,,,,,,,,,,,"[7,6,8,5,9]",,,,,,,,,,,,,,,,,,,,,,,,,,,,,,,,,,,,,0,0,0,0,1,,,,,,,,,,,,
,,5dc61208dd2b7747f95b3c9f,2022-09-08_13h57.33.012,CGTgamblingSpanTasks,2022.2.1,Linux x86_64,59.99880002,,,,,,,,,,,,,,,,,,,,,,,,,,,,,,,,,,,,,,,,,,,,,,,,,,,,,,,,,,,,,,,,,,,,,,,,,,,,,,,,,,"[7,6,8,5,9]",,,,,,,,,,,,,,,,,,,,,,,,,,,,,,,,,,,,,1,0,1,0,1,,,,,,,,,,,,
,,5dc61208dd2b7747f95b3c9f,2022-09-08_13h57.33.012,CGTgamblingSpanTasks,2022.2.1,Linux x86_64,59.99880002,,,,,,,,,,,,,,,,,,,,,,,,,,,,,,,,,,,,,,,,,,,,,,,,,,,,,,,,,,,,,,,,,,,,,,,,,,,,,,,,,,"[7,6,8,5,9]",,,,,,,,,,,,,,,,,,,,,,,,,,,,,,,,,,,,,2,0,2,0,1,,,,,,,,,,,,
,,5dc61208dd2b7747f95b3c9f,2022-09-08_13h57.33.012,CGTgamblingSpanTasks,2022.2.1,Linux x86_64,59.99880002,,,,,,,,,,,,,,,,,,,,,,,,,,,,,,,,,,,,,,,,,,,,,,,,,,,,,,,,,,,,,,,,,,,,,,,,,,,,,,,,,,"[7,6,8,5,9]",,,,,,,,,,,,,,,,,,,,,,,,,,,,,,,,,,,,,3,0,3,0,1,,,,,,,,,,,,
,,5dc61208dd2b7747f95b3c9f,2022-09-08_13h57.33.012,CGTgamblingSpanTasks,2022.2.1,Linux x86_64,59.99880002,,,,,,,,,,,,,,,,,,,,,,,,,,,,,,,,,,,,,,,,,,,,,,,,,,,,,,,,,,,,,,,,,,,,,,,,,,,,,,,,,,"[7,6,8,5,9]",,,,,,,,,,,,,,,,,,,,,,,,,,,,,,,,,,,,,4,0,4,0,1,,,,,,,,,,,,
,,5dc61208dd2b7747f95b3c9f,2022-09-08_13h57.33.012,CGTgamblingSpanTasks,2022.2.1,Linux x86_64,59.99880002,,,,,,,,,,,,,,,,,,,,,,,,,,,,,,,,,,,,,,,,,,,,,,,,,,,,,,,,,,,,,,,1,,,,,,,,,,,,,,,,,,,,,,,,,,,,,,,,,,,,,4,,,,,,,,,,,,,,,,,,,,,,,,95867,-0.041610161,-0.402134895,1,0,0,cont_buttonBS,0,3,3,3,1
,,5dc61208dd2b7747f95b3c9f,2022-09-08_13h57.33.012,CGTgamblingSpanTasks,2022.2.1,Linux x86_64,59.99880002,,,,,,,,,,,,,,,,,,,,,,,,,,,,,,,,,,,,,,,,,,,,,,,,,,,,,,,,,,,,,,,,,,,,,,,,,,,,,,,,,,"[5,4,2,8,9,7]",,,,,,,,,,,,,,,,,,,,,,,,,,,,,,,,,,,,,0,0,0,0,1,,,,,,,,,,,,
,,5dc61208dd2b7747f95b3c9f,2022-09-08_13h57.33.012,CGTgamblingSpanTasks,2022.2.1,Linux x86_64,59.99880002,,,,,,,,,,,,,,,,,,,,,,,,,,,,,,,,,,,,,,,,,,,,,,,,,,,,,,,,,,,,,,,,,,,,,,,,,,,,,,,,,,"[5,4,2,8,9,7]",,,,,,,,,,,,,,,,,,,,,,,,,,,,,,,,,,,,,1,0,1,0,1,,,,,,,,,,,,
,,5dc61208dd2b7747f95b3c9f,2022-09-08_13h57.33.012,CGTgamblingSpanTasks,2022.2.1,Linux x86_64,59.99880002,,,,,,,,,,,,,,,,,,,,,,,,,,,,,,,,,,,,,,,,,,,,,,,,,,,,,,,,,,,,,,,,,,,,,,,,,,,,,,,,,,"[5,4,2,8,9,7]",,,,,,,,,,,,,,,,,,,,,,,,,,,,,,,,,,,,,2,0,2,0,1,,,,,,,,,,,,
,,5dc61208dd2b7747f95b3c9f,2022-09-08_13h57.33.012,CGTgamblingSpanTasks,2022.2.1,Linux x86_64,59.99880002,,,,,,,,,,,,,,,,,,,,,,,,,,,,,,,,,,,,,,,,,,,,,,,,,,,,,,,,,,,,,,,,,,,,,,,,,,,,,,,,,,"[5,4,2,8,9,7]",,,,,,,,,,,,,,,,,,,,,,,,,,,,,,,,,,,,,3,0,3,0,1,,,,,,,,,,,,
,,5dc61208dd2b7747f95b3c9f,2022-09-08_13h57.33.012,CGTgamblingSpanTasks,2022.2.1,Linux x86_64,59.99880002,,,,,,,,,,,,,,,,,,,,,,,,,,,,,,,,,,,,,,,,,,,,,,,,,,,,,,,,,,,,,,,,,,,,,,,,,,,,,,,,,,"[5,4,2,8,9,7]",,,,,,,,,,,,,,,,,,,,,,,,,,,,,,,,,,,,,4,0,4,0,1,,,,,,,,,,,,
,,5dc61208dd2b7747f95b3c9f,2022-09-08_13h57.33.012,CGTgamblingSpanTasks,2022.2.1,Linux x86_64,59.99880002,,,,,,,,,,,,,,,,,,,,,,,,,,,,,,,,,,,,,,,,,,,,,,,,,,,,,,,,,,,,,,,,,,,,,,,,,,,,,,,,,,"[5,4,2,8,9,7]",,,,,,,,,,,,,,,,,,,,,,,,,,,,,,,,,,,,,5,0,5,0,1,,,,,,,,,,,,
,,5dc61208dd2b7747f95b3c9f,2022-09-08_13h57.33.012,CGTgamblingSpanTasks,2022.2.1,Linux x86_64,59.99880002,,,,,,,,,,,,,,,,,,,,,,,,,,,,,,,,,,,,,,,,,,,,,,,,,,,,,,,,,,,,,,,0,,,,,,,,,,,,,,,,,,,,,,,,,,,,,,,,,,,,,5,,,,,,,,,,,,,,,,,,,,,,,,79854,-0.041610161,-0.402134895,1,0,0,cont_buttonBS,0,4,4,4,1
,,5dc61208dd2b7747f95b3c9f,2022-09-08_13h57.33.012,CGTgamblingSpanTasks,2022.2.1,Linux x86_64,59.99880002,,,,,,,,,,,,,,,,,,,,,,,,,,,,,,,,,,,,,,,,,,,,,,,,,,,,,,,,,,,,,,,,,,,,,,,,,,,,,,,,,,"[7,9,8,4,6,3]",,,,,,,,,,,,,,,,,,,,,,,,,,,,,,,,,,,,,0,0,0,0,1,,,,,,,,,,,,
,,5dc61208dd2b7747f95b3c9f,2022-09-08_13h57.33.012,CGTgamblingSpanTasks,2022.2.1,Linux x86_64,59.99880002,,,,,,,,,,,,,,,,,,,,,,,,,,,,,,,,,,,,,,,,,,,,,,,,,,,,,,,,,,,,,,,,,,,,,,,,,,,,,,,,,,"[7,9,8,4,6,3]",,,,,,,,,,,,,,,,,,,,,,,,,,,,,,,,,,,,,1,0,1,0,1,,,,,,,,,,,,
,,5dc61208dd2b7747f95b3c9f,2022-09-08_13h57.33.012,CGTgamblingSpanTasks,2022.2.1,Linux x86_64,59.99880002,,,,,,,,,,,,,,,,,,,,,,,,,,,,,,,,,,,,,,,,,,,,,,,,,,,,,,,,,,,,,,,,,,,,,,,,,,,,,,,,,,"[7,9,8,4,6,3]",,,,,,,,,,,,,,,,,,,,,,,,,,,,,,,,,,,,,2,0,2,0,1,,,,,,,,,,,,
,,5dc61208dd2b7747f95b3c9f,2022-09-08_13h57.33.012,CGTgamblingSpanTasks,2022.2.1,Linux x86_64,59.99880002,,,,,,,,,,,,,,,,,,,,,,,,,,,,,,,,,,,,,,,,,,,,,,,,,,,,,,,,,,,,,,,,,,,,,,,,,,,,,,,,,,"[7,9,8,4,6,3]",,,,,,,,,,,,,,,,,,,,,,,,,,,,,,,,,,,,,3,0,3,0,1,,,,,,,,,,,,
,,5dc61208dd2b7747f95b3c9f,2022-09-08_13h57.33.012,CGTgamblingSpanTasks,2022.2.1,Linux x86_64,59.99880002,,,,,,,,,,,,,,,,,,,,,,,,,,,,,,,,,,,,,,,,,,,,,,,,,,,,,,,,,,,,,,,,,,,,,,,,,,,,,,,,,,"[7,9,8,4,6,3]",,,,,,,,,,,,,,,,,,,,,,,,,,,,,,,,,,,,,4,0,4,0,1,,,,,,,,,,,,
,,5dc61208dd2b7747f95b3c9f,2022-09-08_13h57.33.012,CGTgamblingSpanTasks,2022.2.1,Linux x86_64,59.99880002,,,,,,,,,,,,,,,,,,,,,,,,,,,,,,,,,,,,,,,,,,,,,,,,,,,,,,,,,,,,,,,,,,,,,,,,,,,,,,,,,,"[7,9,8,4,6,3]",,,,,,,,,,,,,,,,,,,,,,,,,,,,,,,,,,,,,5,0,5,0,1,,,,,,,,,,,,
,,5dc61208dd2b7747f95b3c9f,2022-09-08_13h57.33.012,CGTgamblingSpanTasks,2022.2.1,Linux x86_64,59.99880002,,,,,,,,,,,,,,,,,,,,,,,,,,,,,,,,,,,,,,,,,,,,,,,,,,,,,,,,,,,,,,,1,,,,,,,,,,,,,,,,,,,,,,,,,,,,,,,,,,,,,6,,,,,,,,,,,,,,,,,,,,,,,,364897,-0.041610161,-0.402134895,1,0,0,cont_buttonBS,0,5,5,5,1
,,5dc61208dd2b7747f95b3c9f,2022-09-08_13h57.33.012,CGTgamblingSpanTasks,2022.2.1,Linux x86_64,59.99880002,,,,,,,,,,,,,,,,,,,,,,,,,,,,,,,,,,,,,,,,,,,,,,,,,,,,,,,,,,,,,,,,,,,,,,,,,,,,,,,,,,"[5,9,6,1,3,2,8]",,,,,,,,,,,,,,,,,,,,,,,,,,,,,,,,,,,,,0,0,0,0,1,,,,,,,,,,,,
,,5dc61208dd2b7747f95b3c9f,2022-09-08_13h57.33.012,CGTgamblingSpanTasks,2022.2.1,Linux x86_64,59.99880002,,,,,,,,,,,,,,,,,,,,,,,,,,,,,,,,,,,,,,,,,,,,,,,,,,,,,,,,,,,,,,,,,,,,,,,,,,,,,,,,,,"[5,9,6,1,3,2,8]",,,,,,,,,,,,,,,,,,,,,,,,,,,,,,,,,,,,,1,0,1,0,1,,,,,,,,,,,,
,,5dc61208dd2b7747f95b3c9f,2022-09-08_13h57.33.012,CGTgamblingSpanTasks,2022.2.1,Linux x86_64,59.99880002,,,,,,,,,,,,,,,,,,,,,,,,,,,,,,,,,,,,,,,,,,,,,,,,,,,,,,,,,,,,,,,,,,,,,,,,,,,,,,,,,,"[5,9,6,1,3,2,8]",,,,,,,,,,,,,,,,,,,,,,,,,,,,,,,,,,,,,2,0,2,0,1,,,,,,,,,,,,
,,5dc61208dd2b7747f95b3c9f,2022-09-08_13h57.33.012,CGTgamblingSpanTasks,2022.2.1,Linux x86_64,59.99880002,,,,,,,,,,,,,,,,,,,,,,,,,,,,,,,,,,,,,,,,,,,,,,,,,,,,,,,,,,,,,,,,,,,,,,,,,,,,,,,,,,"[5,9,6,1,3,2,8]",,,,,,,,,,,,,,,,,,,,,,,,,,,,,,,,,,,,,3,0,3,0,1,,,,,,,,,,,,
,,5dc61208dd2b7747f95b3c9f,2022-09-08_13h57.33.012,CGTgamblingSpanTasks,2022.2.1,Linux x86_64,59.99880002,,,,,,,,,,,,,,,,,,,,,,,,,,,,,,,,,,,,,,,,,,,,,,,,,,,,,,,,,,,,,,,,,,,,,,,,,,,,,,,,,,"[5,9,6,1,3,2,8]",,,,,,,,,,,,,,,,,,,,,,,,,,,,,,,,,,,,,4,0,4,0,1,,,,,,,,,,,,
,,5dc61208dd2b7747f95b3c9f,2022-09-08_13h57.33.012,CGTgamblingSpanTasks,2022.2.1,Linux x86_64,59.99880002,,,,,,,,,,,,,,,,,,,,,,,,,,,,,,,,,,,,,,,,,,,,,,,,,,,,,,,,,,,,,,,,,,,,,,,,,,,,,,,,,,"[5,9,6,1,3,2,8]",,,,,,,,,,,,,,,,,,,,,,,,,,,,,,,,,,,,,5,0,5,0,1,,,,,,,,,,,,
,,5dc61208dd2b7747f95b3c9f,2022-09-08_13h57.33.012,CGTgamblingSpanTasks,2022.2.1,Linux x86_64,59.99880002,,,,,,,,,,,,,,,,,,,,,,,,,,,,,,,,,,,,,,,,,,,,,,,,,,,,,,,,,,,,,,,,,,,,,,,,,,,,,,,,,,"[5,9,6,1,3,2,8]",,,,,,,,,,,,,,,,,,,,,,,,,,,,,,,,,,,,,6,0,6,0,1,,,,,,,,,,,,
,,5dc61208dd2b7747f95b3c9f,2022-09-08_13h57.33.012,CGTgamblingSpanTasks,2022.2.1,Linux x86_64,59.99880002,,,,,,,,,,,,,,,,,,,,,,,,,,,,,,,,,,,,,,,,,,,,,,,,,,,,,,,,,,,,,,,0,,,,,,,,,,,,,,,,,,,,,,,,,,,,,,,,,,,,,7,,,,,,,,,,,,,,,,,,,,,,,,8234895,-0.041610161,-0.402134895,1,0,0,cont_buttonBS,0,6,6,6,1
