initITIstatic,initITIdynamic,participant,date,expName,psychopyVersion,OS,frameRate,inst1.keys,inst1.rt,startPracResp.keys,startPracResp.rt,choice1.keys,choice1.rt,outcome,extraITI,trials.thisRepN,trials.thisTrialN,trials.thisN,trials.thisIndex,trials.ran,riskyGain,riskyLoss,alternative,isi,iti,loc,postPractResp.keys,postPractResp.rt,realloc,realChoice.keys,realChoice.rt,outcomes,choices,actualITI,init ITI,staticRDM.thisRepN,staticRDM.thisTrialN,staticRDM.thisN,staticRDM.thisIndex,staticRDM.ran,riskyoption1,riskyoption2,safeoption,ischecktrial,dynamicChoiceSetName,dynamicChoiceSetPath,bestRho,bestMu,trials_2.thisRepN,trials_2.thisTrialN,trials_2.thisN,trials_2.thisIndex,trials_2.ran,key_resp.keys,key_resp.rt,dynamicRDM.thisRepN,dynamicRDM.thisTrialN,dynamicRDM.thisN,dynamicRDM.thisIndex,dynamicRDM.ran,choiceP,easy0difficult1,stopBreak.keys,stopBreak.rt,movealong.keys,movealong.rt,startPractice.keys,startPractice.rt,textboxPractice.text,correct,mousePractice.x,mousePractice.y,mousePractice.leftButton,mousePractice.midButton,mousePractice.rightButton,mousePractice.clicked_name,trialFSPractice.thisRepN,trialFSPractice.thisTrialN,trialFSPractice.thisN,trialFSPractice.thisIndex,trialFSPractice.ran,digitSpanForward,digits,digitsReverse,digitSpanReverse,digitsReverseCorrAnswer,startFSreal.keys,startFSreal.rt,digitsForTrial,digitLoop.thisRepN,digitLoop.thisTrialN,digitLoop.thisN,digitLoop.thisIndex,digitLoop.ran,textbox.text,mouse_3.x,mouse_3.y,mouse_3.leftButton,mouse_3.midButton,mouse_3.rightButton,mouse_3.clicked_name,trialsFS.thisRepN,trialsFS.thisTrialN,trialsFS.thisN,trialsFS.thisIndex,trialsFS.ran,trialNumber,moveToBS.keys,moveToBS.rt,startBSprac.keys,startBSprac.rt,textboxPractice_2.text,mousePractice_2.x,mousePractice_2.y,mousePractice_2.leftButton,mousePractice_2.midButton,mousePractice_2.rightButton,mousePractice_2.clicked_name,trialsPracticeBS.thisRepN,trialsPracticeBS.thisTrialN,trialsPracticeBS.thisN,trialsPracticeBS.thisIndex,trialsPracticeBS.ran,startBSreal.keys,startBSreal.rt,digitLoopBS.thisRepN,digitLoopBS.thisTrialN,digitLoopBS.thisN,digitLoopBS.thisIndex,digitLoopBS.ran,textboxBS.text,mouseBS.x,mouseBS.y,mouseBS.leftButton,mouseBS.midButton,mouseBS.rightButton,mouseBS.clicked_name,trialsBS.thisRepN,trialsBS.thisTrialN,trialsBS.thisN,trialsBS.thisIndex,trialsBS.ran
"[1.5,1,1,1,1,1.5,1.5,1.5,1.5,1,1,1,1,1,1,1,1,1,1,1.5,1,1.5,1.5,1,1,1,1.5,1.5,1.5,1,1.5,1.5,1.5,1.5,1.5,1,1.5,1,1.5,1.5,1.5,1.5,1.5,1,1,1,1.5,1.5,1.5,1]","[1.5,1.5,1,1,1,1.5,1,1.5,1.5,1,1.5,1,1.5,1,1,1,1.5,1.5,1.5,1.5,1.5,1.5,1,1,1.5,1,1,1.5,1,1.5,1,1.5,1.5,1.5,1.5,1.5,1.5,1,1,1,1.5,1,1.5,1,1,1,1.5,1.5,1,1,1.5,1.5,1,1,1.5,1.5,1.5,1,1.5,1.5,1,1.5,1.5,1,1,1,1,1.5,1.5,1.5,1,1,1.5,1,1.5,1,1.5,1,1,1.5,1.5,1,1.5,1.5,1,1,1.5,1,1,1,1.5,1,1.5,1.5,1.5,1,1.5,1,1,1,1,1,1.5,1.5,1.5,1.5,1,1,1,1,1.5,1,1.5,1,1,1.5,1.5,1,1,1.5]",600be42e32909325b20ab5f0,2022-09-08_14h07.32.424,CGTgamblingSpanTasks,2022.2.1,Linux x86_64,60.01680471,,,,,,,,,,,,,,,,,,,,,,,,,,,,,,,,,,,,,,,,,,,,,,,,,,,,,,,,,,,,,,,,,,,,,,,,,,,,,,,,,,,,,,,,,,,,,,,,,,,,,,,,,,,,,,,,,,,,,,,,,,,,,,,,,,,,,,,
,,600be42e32909325b20ab5f0,2022-09-08_14h07.32.424,CGTgamblingSpanTasks,2022.2.1,Linux x86_64,60.01680471,return,0.6119,,,,,,,,,,,,,,,,,,,,,,,,,,,,,,,,,,,,,,,,,,,,,,,,,,,,,,,,,,,,,,,,,,,,,,,,,,,,,,,,,,,,,,,,,,,,,,,,,,,,,,,,,,,,,,,,,,,,,,,,,,,,,,,,,,,,,
,,600be42e32909325b20ab5f0,2022-09-08_14h07.32.424,CGTgamblingSpanTasks,2022.2.1,Linux x86_64,60.01680471,,,v,1.553,,,,,,,,,,,,,,,,,,,,,,,,,,,,,,,,,,,,,,,,,,,,,,,,,,,,,,,,,,,,,,,,,,,,,,,,,,,,,,,,,,,,,,,,,,,,,,,,,,,,,,,,,,,,,,,,,,,,,,,,,,,,,,,,,,,
,,600be42e32909325b20ab5f0,2022-09-08_14h07.32.424,CGTgamblingSpanTasks,2022.2.1,Linux x86_64,60.01680471,,,,,n,0.0347,9.45,3.9653,0,0,0,0,1,18.23,0,9.45,2,1,1,,,,,,,,,,,,,,,,,,,,,,,,,,,,,,,,,,,,,,,,,,,,,,,,,,,,,,,,,,,,,,,,,,,,,,,,,,,,,,,,,,,,,,,,,,,,,,,,,,,,,,,,,,,,,,,,,,,,
,,600be42e32909325b20ab5f0,2022-09-08_14h07.32.424,CGTgamblingSpanTasks,2022.2.1,Linux x86_64,60.01680471,,,,,n,1.5701,35.16,2.4299,0,1,1,1,1,53.27,0,35.16,1,1.5,1,,,,,,,,,,,,,,,,,,,,,,,,,,,,,,,,,,,,,,,,,,,,,,,,,,,,,,,,,,,,,,,,,,,,,,,,,,,,,,,,,,,,,,,,,,,,,,,,,,,,,,,,,,,,,,,,,,,,
,,600be42e32909325b20ab5f0,2022-09-08_14h07.32.424,CGTgamblingSpanTasks,2022.2.1,Linux x86_64,60.01680471,,,,,n,1.0635,8.27,2.9365,0,2,2,2,1,8.27,0,1.15,1,1.5,2,,,,,,,,,,,,,,,,,,,,,,,,,,,,,,,,,,,,,,,,,,,,,,,,,,,,,,,,,,,,,,,,,,,,,,,,,,,,,,,,,,,,,,,,,,,,,,,,,,,,,,,,,,,,,,,,,,,,
,,600be42e32909325b20ab5f0,2022-09-08_14h07.32.424,CGTgamblingSpanTasks,2022.2.1,Linux x86_64,60.01680471,,,,,n,0.9061,40.41,3.0939,0,3,3,3,1,45.88,0,40.41,3,1,1,,,,,,,,,,,,,,,,,,,,,,,,,,,,,,,,,,,,,,,,,,,,,,,,,,,,,,,,,,,,,,,,,,,,,,,,,,,,,,,,,,,,,,,,,,,,,,,,,,,,,,,,,,,,,,,,,,,,
,,600be42e32909325b20ab5f0,2022-09-08_14h07.32.424,CGTgamblingSpanTasks,2022.2.1,Linux x86_64,60.01680471,,,,,v,0.7238,11.96,3.2762,0,4,4,4,1,21.56,0,11.96,1,1.5,2,,,,,,,,,,,,,,,,,,,,,,,,,,,,,,,,,,,,,,,,,,,,,,,,,,,,,,,,,,,,,,,,,,,,,,,,,,,,,,,,,,,,,,,,,,,,,,,,,,,,,,,,,,,,,,,,,,,,
,,600be42e32909325b20ab5f0,2022-09-08_14h07.32.424,CGTgamblingSpanTasks,2022.2.1,Linux x86_64,60.01680471,,,,,,,,,,,,,,,,,,,,n,1.1535,,,,,,,,,,,,,,,,,,,,,,,,,,,,,,,,,,,,,,,,,,,,,,,,,,,,,,,,,,,,,,,,,,,,,,,,,,,,,,,,,,,,,,,,,,,,,,,,,,,,,,,,,,,,,,,,,,
,,600be42e32909325b20ab5f0,2022-09-08_14h07.32.424,CGTgamblingSpanTasks,2022.2.1,Linux x86_64,60.01680471,,,,,,,,3.0425,,,,,,,,,,,,,,1,n,0.9575,9.5,0,4.5425,1.5,0,0,0,25,1,17,0,9.5,0,,,,,,,,,,,,,,,,,,,,,,,,,,,,,,,,,,,,,,,,,,,,,,,,,,,,,,,,,,,,,,,,,,,,,,,,,,,,,,,,,,,,,,,,,,,,,,,,,,
,,600be42e32909325b20ab5f0,2022-09-08_14h07.32.424,CGTgamblingSpanTasks,2022.2.1,Linux x86_64,60.01680471,,,,,,,,2.6066,,,,,,,,,,,,,,2,n,1.3934,7.73,1,3.6066,1,0,1,1,44,1,13.1,7.73,4.68,1,,,,,,,,,,,,,,,,,,,,,,,,,,,,,,,,,,,,,,,,,,,,,,,,,,,,,,,,,,,,,,,,,,,,,,,,,,,,,,,,,,,,,,,,,,,,,,,,,,
,,600be42e32909325b20ab5f0,2022-09-08_14h07.32.424,CGTgamblingSpanTasks,2022.2.1,Linux x86_64,60.01680471,,,,,,,,2.6457,,,,,,,,,,,,,,2,n,1.3543,15.7,1,3.6457,1,0,2,2,33,1,15.7,0,10.15,0,,,,,,,,,,,,,,,,,,,,,,,,,,,,,,,,,,,,,,,,,,,,,,,,,,,,,,,,,,,,,,,,,,,,,,,,,,,,,,,,,,,,,,,,,,,,,,,,,,
,,600be42e32909325b20ab5f0,2022-09-08_14h07.32.424,CGTgamblingSpanTasks,2022.2.1,Linux x86_64,60.01680471,,,,,,,,2.9289,,,,,,,,,,,,,,2,n,1.0711,0,1,3.9289,1,0,3,3,4,1,16,0,4,0,,,,,,,,,,,,,,,,,,,,,,,,,,,,,,,,,,,,,,,,,,,,,,,,,,,,,,,,,,,,,,,,,,,,,,,,,,,,,,,,,,,,,,,,,,,,,,,,,,
,,600be42e32909325b20ab5f0,2022-09-08_14h07.32.424,CGTgamblingSpanTasks,2022.2.1,Linux x86_64,60.01680471,,,,,,,,2.8059,,,,,,,,,,,,,,1,n,1.1941,6.73,0,3.8059,1,0,4,4,32,1,10.55,0,6.73,0,,,,,,,,,,,,,,,,,,,,,,,,,,,,,,,,,,,,,,,,,,,,,,,,,,,,,,,,,,,,,,,,,,,,,,,,,,,,,,,,,,,,,,,,,,,,,,,,,,
,,600be42e32909325b20ab5f0,2022-09-08_14h07.32.424,CGTgamblingSpanTasks,2022.2.1,Linux x86_64,60.01680471,,,,,,,,2.8026,,,,,,,,,,,,,,2,v,1.1974,5.27,0,4.3026,1.5,0,5,5,10,1,13.45,0,5.27,0,,,,,,,,,,,,,,,,,,,,,,,,,,,,,,,,,,,,,,,,,,,,,,,,,,,,,,,,,,,,,,,,,,,,,,,,,,,,,,,,,,,,,,,,,,,,,,,,,,
,,600be42e32909325b20ab5f0,2022-09-08_14h07.32.424,CGTgamblingSpanTasks,2022.2.1,Linux x86_64,60.01680471,,,,,,,,2.9382,,,,,,,,,,,,,,1,v,1.0618,20.53,1,4.4382,1.5,0,6,6,9,1,20.53,0,7.73,0,,,,,,,,,,,,,,,,,,,,,,,,,,,,,,,,,,,,,,,,,,,,,,,,,,,,,,,,,,,,,,,,,,,,,,,,,,,,,,,,,,,,,,,,,,,,,,,,,,
,,600be42e32909325b20ab5f0,2022-09-08_14h07.32.424,CGTgamblingSpanTasks,2022.2.1,Linux x86_64,60.01680471,,,,,,,,2.7655,,,,,,,,,,,,,,2,v,1.2345,6.4,0,4.2655,1.5,0,7,7,26,1,11.2,0,6.4,0,,,,,,,,,,,,,,,,,,,,,,,,,,,,,,,,,,,,,,,,,,,,,,,,,,,,,,,,,,,,,,,,,,,,,,,,,,,,,,,,,,,,,,,,,,,,,,,,,,
,,600be42e32909325b20ab5f0,2022-09-08_14h07.32.424,CGTgamblingSpanTasks,2022.2.1,Linux x86_64,60.01680471,,,,,,,,3.4491,,,,,,,,,,,,,,1,v,0.5509,0,1,4.9491,1.5,0,8,8,40,1,10.35,0,0,1,,,,,,,,,,,,,,,,,,,,,,,,,,,,,,,,,,,,,,,,,,,,,,,,,,,,,,,,,,,,,,,,,,,,,,,,,,,,,,,,,,,,,,,,,,,,,,,,,,
,,600be42e32909325b20ab5f0,2022-09-08_14h07.32.424,CGTgamblingSpanTasks,2022.2.1,Linux x86_64,60.01680471,,,,,,,,3.2849,,,,,,,,,,,,,,2,n,0.7151,0,1,4.2849,1,0,9,9,2,1,17.73,0,3.13,0,,,,,,,,,,,,,,,,,,,,,,,,,,,,,,,,,,,,,,,,,,,,,,,,,,,,,,,,,,,,,,,,,,,,,,,,,,,,,,,,,,,,,,,,,,,,,,,,,,
,,600be42e32909325b20ab5f0,2022-09-08_14h07.32.424,CGTgamblingSpanTasks,2022.2.1,Linux x86_64,60.01680471,,,,,,,,3.1357,,,,,,,,,,,,,,2,v,0.8643,5.82,0,4.1357,1,0,10,10,16,1,12.36,0,5.82,0,,,,,,,,,,,,,,,,,,,,,,,,,,,,,,,,,,,,,,,,,,,,,,,,,,,,,,,,,,,,,,,,,,,,,,,,,,,,,,,,,,,,,,,,,,,,,,,,,,
,,600be42e32909325b20ab5f0,2022-09-08_14h07.32.424,CGTgamblingSpanTasks,2022.2.1,Linux x86_64,60.01680471,,,,,,,,3.2792,,,,,,,,,,,,,,1,n,0.7208,6.53,0,4.2792,1,0,11,11,28,1,10.95,0,6.53,0,,,,,,,,,,,,,,,,,,,,,,,,,,,,,,,,,,,,,,,,,,,,,,,,,,,,,,,,,,,,,,,,,,,,,,,,,,,,,,,,,,,,,,,,,,,,,,,,,,
,,600be42e32909325b20ab5f0,2022-09-08_14h07.32.424,CGTgamblingSpanTasks,2022.2.1,Linux x86_64,60.01680471,,,,,,,,2.9771,,,,,,,,,,,,,,1,n,1.0229,5.96,0,3.9771,1,0,12,12,18,1,12.08,0,5.96,0,,,,,,,,,,,,,,,,,,,,,,,,,,,,,,,,,,,,,,,,,,,,,,,,,,,,,,,,,,,,,,,,,,,,,,,,,,,,,,,,,,,,,,,,,,,,,,,,,,
,,600be42e32909325b20ab5f0,2022-09-08_14h07.32.424,CGTgamblingSpanTasks,2022.2.1,Linux x86_64,60.01680471,,,,,,,,3.2652,,,,,,,,,,,,,,1,n,0.7348,8.84,0,4.2652,1,0,13,13,17,1,18.33,0,8.84,0,,,,,,,,,,,,,,,,,,,,,,,,,,,,,,,,,,,,,,,,,,,,,,,,,,,,,,,,,,,,,,,,,,,,,,,,,,,,,,,,,,,,,,,,,,,,,,,,,,
,,600be42e32909325b20ab5f0,2022-09-08_14h07.32.424,CGTgamblingSpanTasks,2022.2.1,Linux x86_64,60.01680471,,,,,,,,2.9676,,,,,,,,,,,,,,2,v,1.0324,10.25,0,3.9676,1,0,14,14,46,1,0,0,10.25,1,,,,,,,,,,,,,,,,,,,,,,,,,,,,,,,,,,,,,,,,,,,,,,,,,,,,,,,,,,,,,,,,,,,,,,,,,,,,,,,,,,,,,,,,,,,,,,,,,,
,,600be42e32909325b20ab5f0,2022-09-08_14h07.32.424,CGTgamblingSpanTasks,2022.2.1,Linux x86_64,60.01680471,,,,,,,,2.8256,,,,,,,,,,,,,,1,n,1.1744,10.27,0,3.8256,1,0,15,15,35,1,15.47,0,10.27,0,,,,,,,,,,,,,,,,,,,,,,,,,,,,,,,,,,,,,,,,,,,,,,,,,,,,,,,,,,,,,,,,,,,,,,,,,,,,,,,,,,,,,,,,,,,,,,,,,,
,,600be42e32909325b20ab5f0,2022-09-08_14h07.32.424,CGTgamblingSpanTasks,2022.2.1,Linux x86_64,60.01680471,,,,,,,,3.2316,,,,,,,,,,,,,,2,v,0.7684,9.2,0,4.2316,1,0,16,16,21,1,17.59,0,9.2,0,,,,,,,,,,,,,,,,,,,,,,,,,,,,,,,,,,,,,,,,,,,,,,,,,,,,,,,,,,,,,,,,,,,,,,,,,,,,,,,,,,,,,,,,,,,,,,,,,,
,,600be42e32909325b20ab5f0,2022-09-08_14h07.32.424,CGTgamblingSpanTasks,2022.2.1,Linux x86_64,60.01680471,,,,,,,,3.3185,,,,,,,,,,,,,,2,v,0.6815,6.63,0,4.3185,1,0,17,17,30,1,10.73,0,6.63,0,,,,,,,,,,,,,,,,,,,,,,,,,,,,,,,,,,,,,,,,,,,,,,,,,,,,,,,,,,,,,,,,,,,,,,,,,,,,,,,,,,,,,,,,,,,,,,,,,,
,,600be42e32909325b20ab5f0,2022-09-08_14h07.32.424,CGTgamblingSpanTasks,2022.2.1,Linux x86_64,60.01680471,,,,,,,,3.2436,,,,,,,,,,,,,,2,v,0.7564,6.19,0,4.2436,1,0,18,18,22,1,11.62,0,6.19,0,,,,,,,,,,,,,,,,,,,,,,,,,,,,,,,,,,,,,,,,,,,,,,,,,,,,,,,,,,,,,,,,,,,,,,,,,,,,,,,,,,,,,,,,,,,,,,,,,,
,,600be42e32909325b20ab5f0,2022-09-08_14h07.32.424,CGTgamblingSpanTasks,2022.2.1,Linux x86_64,60.01680471,,,,,,,,3.137,,,,,,,,,,,,,,1,n,0.863,10.68,0,4.637,1.5,0,19,19,48,1,10.68,0,10.68,1,,,,,,,,,,,,,,,,,,,,,,,,,,,,,,,,,,,,,,,,,,,,,,,,,,,,,,,,,,,,,,,,,,,,,,,,,,,,,,,,,,,,,,,,,,,,,,,,,,
,,600be42e32909325b20ab5f0,2022-09-08_14h07.32.424,CGTgamblingSpanTasks,2022.2.1,Linux x86_64,60.01680471,,,,,,,,2.9814,,,,,,,,,,,,,,2,n,1.0186,0,1,3.9814,1,0,20,20,0,1,20.03,0,1.99,0,,,,,,,,,,,,,,,,,,,,,,,,,,,,,,,,,,,,,,,,,,,,,,,,,,,,,,,,,,,,,,,,,,,,,,,,,,,,,,,,,,,,,,,,,,,,,,,,,,
,,600be42e32909325b20ab5f0,2022-09-08_14h07.32.424,CGTgamblingSpanTasks,2022.2.1,Linux x86_64,60.01680471,,,,,,,,2.3084,,,,,,,,,,,,,,1,v,1.6916,14.26,1,3.8084,1.5,0,21,21,41,1,14.26,0,0,1,,,,,,,,,,,,,,,,,,,,,,,,,,,,,,,,,,,,,,,,,,,,,,,,,,,,,,,,,,,,,,,,,,,,,,,,,,,,,,,,,,,,,,,,,,,,,,,,,,
,,600be42e32909325b20ab5f0,2022-09-08_14h07.32.424,CGTgamblingSpanTasks,2022.2.1,Linux x86_64,60.01680471,,,,,,,,3.2141,,,,,,,,,,,,,,2,v,0.7859,6.94,0,4.7141,1.5,0,22,22,38,1,10.12,0,6.94,0,,,,,,,,,,,,,,,,,,,,,,,,,,,,,,,,,,,,,,,,,,,,,,,,,,,,,,,,,,,,,,,,,,,,,,,,,,,,,,,,,,,,,,,,,,,,,,,,,,
,,600be42e32909325b20ab5f0,2022-09-08_14h07.32.424,CGTgamblingSpanTasks,2022.2.1,Linux x86_64,60.01680471,,,,,,,,1.7721,,,,,,,,,,,,,,1,n,2.2279,9.36,0,2.7721,1,0,23,23,23,1,17.28,0,9.36,0,,,,,,,,,,,,,,,,,,,,,,,,,,,,,,,,,,,,,,,,,,,,,,,,,,,,,,,,,,,,,,,,,,,,,,,,,,,,,,,,,,,,,,,,,,,,,,,,,,
,,600be42e32909325b20ab5f0,2022-09-08_14h07.32.424,CGTgamblingSpanTasks,2022.2.1,Linux x86_64,60.01680471,,,,,,,,2.814,,,,,,,,,,,,,,1,v,1.186,25.2,1,3.814,1,0,24,24,3,1,25.2,0,5.4,0,,,,,,,,,,,,,,,,,,,,,,,,,,,,,,,,,,,,,,,,,,,,,,,,,,,,,,,,,,,,,,,,,,,,,,,,,,,,,,,,,,,,,,,,,,,,,,,,,,
,,600be42e32909325b20ab5f0,2022-09-08_14h07.32.424,CGTgamblingSpanTasks,2022.2.1,Linux x86_64,60.01680471,,,,,,,,3.1185,,,,,,,,,,,,,,2,v,0.8815,3.13,0,4.1185,1,0,25,25,47,1,0,0,3.13,1,,,,,,,,,,,,,,,,,,,,,,,,,,,,,,,,,,,,,,,,,,,,,,,,,,,,,,,,,,,,,,,,,,,,,,,,,,,,,,,,,,,,,,,,,,,,,,,,,,
,,600be42e32909325b20ab5f0,2022-09-08_14h07.32.424,CGTgamblingSpanTasks,2022.2.1,Linux x86_64,60.01680471,,,,,,,,3.0611,,,,,,,,,,,,,,2,v,0.9389,9.87,0,4.5611,1.5,0,26,26,29,1,16.26,0,9.87,0,,,,,,,,,,,,,,,,,,,,,,,,,,,,,,,,,,,,,,,,,,,,,,,,,,,,,,,,,,,,,,,,,,,,,,,,,,,,,,,,,,,,,,,,,,,,,,,,,,
,,600be42e32909325b20ab5f0,2022-09-08_14h07.32.424,CGTgamblingSpanTasks,2022.2.1,Linux x86_64,60.01680471,,,,,,,,3.2337,,,,,,,,,,,,,,1,n,0.7663,5.03,0,4.7337,1.5,0,27,27,8,1,13.94,0,5.03,0,,,,,,,,,,,,,,,,,,,,,,,,,,,,,,,,,,,,,,,,,,,,,,,,,,,,,,,,,,,,,,,,,,,,,,,,,,,,,,,,,,,,,,,,,,,,,,,,,,
,,600be42e32909325b20ab5f0,2022-09-08_14h07.32.424,CGTgamblingSpanTasks,2022.2.1,Linux x86_64,60.01680471,,,,,,,,2.8802,,,,,,,,,,,,,,2,n,1.1198,22.97,1,4.3802,1.5,0,28,28,5,1,22.97,0,6.51,0,,,,,,,,,,,,,,,,,,,,,,,,,,,,,,,,,,,,,,,,,,,,,,,,,,,,,,,,,,,,,,,,,,,,,,,,,,,,,,,,,,,,,,,,,,,,,,,,,,
,,600be42e32909325b20ab5f0,2022-09-08_14h07.32.424,CGTgamblingSpanTasks,2022.2.1,Linux x86_64,60.01680471,,,,,,,,3.1272,,,,,,,,,,,,,,2,v,0.8728,6.88,0,4.1272,1,0,29,29,36,1,10.24,0,6.88,0,,,,,,,,,,,,,,,,,,,,,,,,,,,,,,,,,,,,,,,,,,,,,,,,,,,,,,,,,,,,,,,,,,,,,,,,,,,,,,,,,,,,,,,,,,,,,,,,,,
,,600be42e32909325b20ab5f0,2022-09-08_14h07.32.424,CGTgamblingSpanTasks,2022.2.1,Linux x86_64,60.01680471,,,,,,,,2.614,,,,,,,,,,,,,,2,v,1.386,9.03,0,4.114,1.5,0,30,30,19,1,17.94,0,9.03,0,,,,,,,,,,,,,,,,,,,,,,,,,,,,,,,,,,,,,,,,,,,,,,,,,,,,,,,,,,,,,,,,,,,,,,,,,,,,,,,,,,,,,,,,,,,,,,,,,,
,,600be42e32909325b20ab5f0,2022-09-08_14h07.32.424,CGTgamblingSpanTasks,2022.2.1,Linux x86_64,60.01680471,,,,,,,,3.0131,,,,,,,,,,,,,,1,v,0.9869,19.28,1,4.5131,1.5,0,31,31,13,1,19.28,0,8.36,0,,,,,,,,,,,,,,,,,,,,,,,,,,,,,,,,,,,,,,,,,,,,,,,,,,,,,,,,,,,,,,,,,,,,,,,,,,,,,,,,,,,,,,,,,,,,,,,,,,
,,600be42e32909325b20ab5f0,2022-09-08_14h07.32.424,CGTgamblingSpanTasks,2022.2.1,Linux x86_64,60.01680471,,,,,,,,3.0338,,,,,,,,,,,,,,2,v,0.9662,9.7,0,4.5338,1.5,0,32,32,27,1,16.6,0,9.7,0,,,,,,,,,,,,,,,,,,,,,,,,,,,,,,,,,,,,,,,,,,,,,,,,,,,,,,,,,,,,,,,,,,,,,,,,,,,,,,,,,,,,,,,,,,,,,,,,,,
,,600be42e32909325b20ab5f0,2022-09-08_14h07.32.424,CGTgamblingSpanTasks,2022.2.1,Linux x86_64,60.01680471,,,,,,,,3.1948,,,,,,,,,,,,,,1,n,0.8052,10.46,0,4.6948,1.5,0,33,33,39,1,15.09,0,10.46,0,,,,,,,,,,,,,,,,,,,,,,,,,,,,,,,,,,,,,,,,,,,,,,,,,,,,,,,,,,,,,,,,,,,,,,,,,,,,,,,,,,,,,,,,,,,,,,,,,,
,,600be42e32909325b20ab5f0,2022-09-08_14h07.32.424,CGTgamblingSpanTasks,2022.2.1,Linux x86_64,60.01680471,,,,,,,,2.9029,,,,,,,,,,,,,,1,n,1.0971,9.92,0,4.4029,1.5,0,34,34,49,1,6.79,0,9.92,1,,,,,,,,,,,,,,,,,,,,,,,,,,,,,,,,,,,,,,,,,,,,,,,,,,,,,,,,,,,,,,,,,,,,,,,,,,,,,,,,,,,,,,,,,,,,,,,,,,
,,600be42e32909325b20ab5f0,2022-09-08_14h07.32.424,CGTgamblingSpanTasks,2022.2.1,Linux x86_64,60.01680471,,,,,,,,3.3083,,,,,,,,,,,,,,2,v,0.6917,10.02,0,4.3083,1,0,35,35,31,1,15.96,0,10.02,0,,,,,,,,,,,,,,,,,,,,,,,,,,,,,,,,,,,,,,,,,,,,,,,,,,,,,,,,,,,,,,,,,,,,,,,,,,,,,,,,,,,,,,,,,,,,,,,,,,
,,600be42e32909325b20ab5f0,2022-09-08_14h07.32.424,CGTgamblingSpanTasks,2022.2.1,Linux x86_64,60.01680471,,,,,,,,3.3138,,,,,,,,,,,,,,2,v,0.6862,8.07,0,4.8138,1.5,0,36,36,11,1,19.86,0,8.07,0,,,,,,,,,,,,,,,,,,,,,,,,,,,,,,,,,,,,,,,,,,,,,,,,,,,,,,,,,,,,,,,,,,,,,,,,,,,,,,,,,,,,,,,,,,,,,,,,,,
,,600be42e32909325b20ab5f0,2022-09-08_14h07.32.424,CGTgamblingSpanTasks,2022.2.1,Linux x86_64,60.01680471,,,,,,,,2.5758,,,,,,,,,,,,,,1,v,1.4242,16.11,1,3.5758,1,0,37,37,43,1,16.11,6.99,6.99,1,,,,,,,,,,,,,,,,,,,,,,,,,,,,,,,,,,,,,,,,,,,,,,,,,,,,,,,,,,,,,,,,,,,,,,,,,,,,,,,,,,,,,,,,,,,,,,,,,,
,,600be42e32909325b20ab5f0,2022-09-08_14h07.32.424,CGTgamblingSpanTasks,2022.2.1,Linux x86_64,60.01680471,,,,,,,,3.2538,,,,,,,,,,,,,,2,v,0.7462,6.81,0,4.7538,1.5,0,38,38,34,1,10.39,0,6.81,0,,,,,,,,,,,,,,,,,,,,,,,,,,,,,,,,,,,,,,,,,,,,,,,,,,,,,,,,,,,,,,,,,,,,,,,,,,,,,,,,,,,,,,,,,,,,,,,,,,
,,600be42e32909325b20ab5f0,2022-09-08_14h07.32.424,CGTgamblingSpanTasks,2022.2.1,Linux x86_64,60.01680471,,,,,,,,3.0618,,,,,,,,,,,,,,2,v,0.9382,10.37,0,4.5618,1.5,0,39,39,37,1,15.27,0,10.37,0,,,,,,,,,,,,,,,,,,,,,,,,,,,,,,,,,,,,,,,,,,,,,,,,,,,,,,,,,,,,,,,,,,,,,,,,,,,,,,,,,,,,,,,,,,,,,,,,,,
,,600be42e32909325b20ab5f0,2022-09-08_14h07.32.424,CGTgamblingSpanTasks,2022.2.1,Linux x86_64,60.01680471,,,,,,,,3.2298,,,,,,,,,,,,,,2,n,0.7702,19.86,1,4.7298,1.5,0,40,40,42,1,19.86,0,0,1,,,,,,,,,,,,,,,,,,,,,,,,,,,,,,,,,,,,,,,,,,,,,,,,,,,,,,,,,,,,,,,,,,,,,,,,,,,,,,,,,,,,,,,,,,,,,,,,,,
,,600be42e32909325b20ab5f0,2022-09-08_14h07.32.424,CGTgamblingSpanTasks,2022.2.1,Linux x86_64,60.01680471,,,,,,,,2.7677,,,,,,,,,,,,,,2,n,1.2323,14.72,1,4.2677,1.5,0,41,41,6,1,14.72,0,4.64,0,,,,,,,,,,,,,,,,,,,,,,,,,,,,,,,,,,,,,,,,,,,,,,,,,,,,,,,,,,,,,,,,,,,,,,,,,,,,,,,,,,,,,,,,,,,,,,,,,,
,,600be42e32909325b20ab5f0,2022-09-08_14h07.32.424,CGTgamblingSpanTasks,2022.2.1,Linux x86_64,60.01680471,,,,,,,,3.0987,,,,,,,,,,,,,,2,v,0.9013,5.66,0,4.5987,1.5,0,42,42,14,1,12.68,0,5.66,0,,,,,,,,,,,,,,,,,,,,,,,,,,,,,,,,,,,,,,,,,,,,,,,,,,,,,,,,,,,,,,,,,,,,,,,,,,,,,,,,,,,,,,,,,,,,,,,,,,
,,600be42e32909325b20ab5f0,2022-09-08_14h07.32.424,CGTgamblingSpanTasks,2022.2.1,Linux x86_64,60.01680471,,,,,,,,3.1448,,,,,,,,,,,,,,1,n,0.8552,5.48,0,4.1448,1,0,43,43,12,1,13.04,0,5.48,0,,,,,,,,,,,,,,,,,,,,,,,,,,,,,,,,,,,,,,,,,,,,,,,,,,,,,,,,,,,,,,,,,,,,,,,,,,,,,,,,,,,,,,,,,,,,,,,,,,
,,600be42e32909325b20ab5f0,2022-09-08_14h07.32.424,CGTgamblingSpanTasks,2022.2.1,Linux x86_64,60.01680471,,,,,,,,3.4694,,,,,,,,,,,,,,2,v,0.5306,7.55,0,4.4694,1,0,44,44,45,1,0,0,7.55,1,,,,,,,,,,,,,,,,,,,,,,,,,,,,,,,,,,,,,,,,,,,,,,,,,,,,,,,,,,,,,,,,,,,,,,,,,,,,,,,,,,,,,,,,,,,,,,,,,,
,,600be42e32909325b20ab5f0,2022-09-08_14h07.32.424,CGTgamblingSpanTasks,2022.2.1,Linux x86_64,60.01680471,,,,,,,,3.3541,,,,,,,,,,,,,,1,n,0.6459,6.29,0,4.3541,1,0,45,45,24,1,11.43,0,6.29,0,,,,,,,,,,,,,,,,,,,,,,,,,,,,,,,,,,,,,,,,,,,,,,,,,,,,,,,,,,,,,,,,,,,,,,,,,,,,,,,,,,,,,,,,,,,,,,,,,,
,,600be42e32909325b20ab5f0,2022-09-08_14h07.32.424,CGTgamblingSpanTasks,2022.2.1,Linux x86_64,60.01680471,,,,,,,,3.0157,,,,,,,,,,,,,,2,n,0.9843,0,1,4.5157,1.5,0,46,46,1,1,28.21,0,3.89,0,,,,,,,,,,,,,,,,,,,,,,,,,,,,,,,,,,,,,,,,,,,,,,,,,,,,,,,,,,,,,,,,,,,,,,,,,,,,,,,,,,,,,,,,,,,,,,,,,,
,,600be42e32909325b20ab5f0,2022-09-08_14h07.32.424,CGTgamblingSpanTasks,2022.2.1,Linux x86_64,60.01680471,,,,,,,,2.5758,,,,,,,,,,,,,,1,n,1.4242,8.61,0,4.0758,1.5,0,47,47,15,1,18.77,0,8.61,0,,,,,,,,,,,,,,,,,,,,,,,,,,,,,,,,,,,,,,,,,,,,,,,,,,,,,,,,,,,,,,,,,,,,,,,,,,,,,,,,,,,,,,,,,,,,,,,,,,
,,600be42e32909325b20ab5f0,2022-09-08_14h07.32.424,CGTgamblingSpanTasks,2022.2.1,Linux x86_64,60.01680471,,,,,,,,3.2523,,,,,,,,,,,,,,2,v,0.7477,6.08,0,4.7523,1.5,0,48,48,20,1,11.84,0,6.08,0,,,,,,,,,,,,,,,,,,,,,,,,,,,,,,,,,,,,,,,,,,,,,,,,,,,,,,,,,,,,,,,,,,,,,,,,,,,,,,,,,,,,,,,,,,,,,,,,,,
,,600be42e32909325b20ab5f0,2022-09-08_14h07.32.424,CGTgamblingSpanTasks,2022.2.1,Linux x86_64,60.01680471,,,,,,,,3.0946,,,,,,,,,,,,,,2,n,0.9054,21.32,1,4.0946,1,0,49,49,7,1,21.32,0,7.34,0,,,,,,,,,,,,,,,,,,,,,,,,,,,,,,,,,,,,,,,,,,,,,,,,,,,,,,,,,,,,,,,,,,,,,,,,,,,,,,,,,,,,,,,,,,,,,,,,,,
,,600be42e32909325b20ab5f0,2022-09-08_14h07.32.424,CGTgamblingSpanTasks,2022.2.1,Linux x86_64,60.01680471,,,,,,,,,,,,,,,,,,,,,,,,,,,,,,,,,,,,,,bespoke_choiceset_rhoInd044_muInd062.csv,bespoke_choicesets/bespoke_choiceset_rhoInd044_muInd062.csv,44,62,0,0,0,0,1,,,,,,,,,,,,,,,,,,,,,,,,,,,,,,,,,,,,,,,,,,,,,,,,,,,,,,,,,,,,,,,,,,,,,,,,,,,,,,,,,,,,,,,,,
,,600be42e32909325b20ab5f0,2022-09-08_14h07.32.424,CGTgamblingSpanTasks,2022.2.1,Linux x86_64,60.01680471,,,,,,,,,,,,,,,,,,,,,,,,,,,,,,,,,,,,,,,,,,,,,,,,,,,,,,,,,,,,,,,,,,,,,,,,,,,,,,,,,,,,,,,,,,,,,,,,,,,,,,,,,,,,,,,,,,,,,,,,,,,,,,,,,,,,,,,
,,600be42e32909325b20ab5f0,2022-09-08_14h07.32.424,CGTgamblingSpanTasks,2022.2.1,Linux x86_64,60.01680471,,,,,,,,,,,,,,,,,,,,,,,,,,,,,,,,,,,,,,,,,,,,,,,v,44.3495,,,,,,,,,,,,,,,,,,,,,,,,,,,,,,,,,,,,,,,,,,,,,,,,,,,,,,,,,,,,,,,,,,,,,,,,,,,,,,,,,,,,,,,
,,600be42e32909325b20ab5f0,2022-09-08_14h07.32.424,CGTgamblingSpanTasks,2022.2.1,Linux x86_64,60.01680471,,,,,,,,2.7497,,,,,,,,,,,,,,2,v,1.2503,11.61882862,0,4.2497,1.5,,,,,,4.022743614,0,11.61882862,,,,,,,,,,,,,0,0,0,38,1,0.011499376,0,,,,,,,,,,,,,,,,,,,,,,,,,,,,,,,,,,,,,,,,,,,,,,,,,,,,,,,,,,,,,,,,,,,,,,,,,,,,,,,,
,,600be42e32909325b20ab5f0,2022-09-08_14h07.32.424,CGTgamblingSpanTasks,2022.2.1,Linux x86_64,60.01680471,,,,,,,,2.5828,,,,,,,,,,,,,,2,n,1.4172,21.00799273,1,4.0828,1.5,,,,,,21.00799273,0,0.067969053,,,,,,,,,,,,,0,1,1,92,1,0.904360262,0,,,,,,,,,,,,,,,,,,,,,,,,,,,,,,,,,,,,,,,,,,,,,,,,,,,,,,,,,,,,,,,,,,,,,,,,,,,,,,,,
,,600be42e32909325b20ab5f0,2022-09-08_14h07.32.424,CGTgamblingSpanTasks,2022.2.1,Linux x86_64,60.01680471,,,,,,,,1.16,,,,,,,,,,,,,,2,n,2.84,0,1,2.16,1,,,,,,17.92584289,0,1.878232496,,,,,,,,,,,,,0,2,2,5,1,0.485559263,1,,,,,,,,,,,,,,,,,,,,,,,,,,,,,,,,,,,,,,,,,,,,,,,,,,,,,,,,,,,,,,,,,,,,,,,,,,,,,,,,
,,600be42e32909325b20ab5f0,2022-09-08_14h07.32.424,CGTgamblingSpanTasks,2022.2.1,Linux x86_64,60.01680471,,,,,,,,2.7954,,,,,,,,,,,,,,2,n,1.2046,0,1,3.7954,1,,,,,,7.534278541,0,0.747140182,,,,,,,,,,,,,0,3,3,37,1,0.50012466,1,,,,,,,,,,,,,,,,,,,,,,,,,,,,,,,,,,,,,,,,,,,,,,,,,,,,,,,,,,,,,,,,,,,,,,,,,,,,,,,,
,,600be42e32909325b20ab5f0,2022-09-08_14h07.32.424,CGTgamblingSpanTasks,2022.2.1,Linux x86_64,60.01680471,,,,,,,,2.8932,,,,,,,,,,,,,,2,n,1.1068,0,1,3.8932,1,,,,,,28.14876717,0,3.117906378,,,,,,,,,,,,,0,4,4,76,1,0.470636736,1,,,,,,,,,,,,,,,,,,,,,,,,,,,,,,,,,,,,,,,,,,,,,,,,,,,,,,,,,,,,,,,,,,,,,,,,,,,,,,,,
,,600be42e32909325b20ab5f0,2022-09-08_14h07.32.424,CGTgamblingSpanTasks,2022.2.1,Linux x86_64,60.01680471,,,,,,,,2.7798,,,,,,,,,,,,,,1,v,1.2202,0,1,4.2798,1.5,,,,,,19.3050342,0,2.030232342,,,,,,,,,,,,,0,5,5,73,1,0.484573227,1,,,,,,,,,,,,,,,,,,,,,,,,,,,,,,,,,,,,,,,,,,,,,,,,,,,,,,,,,,,,,,,,,,,,,,,,,,,,,,,,
,,600be42e32909325b20ab5f0,2022-09-08_14h07.32.424,CGTgamblingSpanTasks,2022.2.1,Linux x86_64,60.01680471,,,,,,,,2.9174,,,,,,,,,,,,,,2,v,1.0826,7.850775577,0,3.9174,1,,,,,,4.622707531,0,7.850775577,,,,,,,,,,,,,0,6,6,6,1,0.017737407,0,,,,,,,,,,,,,,,,,,,,,,,,,,,,,,,,,,,,,,,,,,,,,,,,,,,,,,,,,,,,,,,,,,,,,,,,,,,,,,,,
,,600be42e32909325b20ab5f0,2022-09-08_14h07.32.424,CGTgamblingSpanTasks,2022.2.1,Linux x86_64,60.01680471,,,,,,,,2.2965,,,,,,,,,,,,,,1,v,1.7035,0,1,3.7965,1.5,,,,,,25.26994993,0,2.78925142,,,,,,,,,,,,,0,7,7,108,1,0.471582922,1,,,,,,,,,,,,,,,,,,,,,,,,,,,,,,,,,,,,,,,,,,,,,,,,,,,,,,,,,,,,,,,,,,,,,,,,,,,,,,,,
,,600be42e32909325b20ab5f0,2022-09-08_14h07.32.424,CGTgamblingSpanTasks,2022.2.1,Linux x86_64,60.01680471,,,,,,,,2.9337,,,,,,,,,,,,,,1,v,1.0663,0,1,4.4337,1.5,,,,,,18.51345298,0,1.932334278,,,,,,,,,,,,,0,8,8,31,1,0.48658696,1,,,,,,,,,,,,,,,,,,,,,,,,,,,,,,,,,,,,,,,,,,,,,,,,,,,,,,,,,,,,,,,,,,,,,,,,,,,,,,,,
,,600be42e32909325b20ab5f0,2022-09-08_14h07.32.424,CGTgamblingSpanTasks,2022.2.1,Linux x86_64,60.01680471,,,,,,,,3.062,,,,,,,,,,,,,,2,n,0.938,0,1,4.062,1,,,,,,24.8002852,0,0.071848086,,,,,,,,,,,,,0,9,9,16,1,0.90783559,0,,,,,,,,,,,,,,,,,,,,,,,,,,,,,,,,,,,,,,,,,,,,,,,,,,,,,,,,,,,,,,,,,,,,,,,,,,,,,,,,
,,600be42e32909325b20ab5f0,2022-09-08_14h07.32.424,CGTgamblingSpanTasks,2022.2.1,Linux x86_64,60.01680471,,,,,,,,2.679,,,,,,,,,,,,,,1,v,1.321,29.77342428,1,4.179,1.5,,,,,,29.77342428,0,2.838865588,,,,,,,,,,,,,0,10,10,57,1,0.510363415,1,,,,,,,,,,,,,,,,,,,,,,,,,,,,,,,,,,,,,,,,,,,,,,,,,,,,,,,,,,,,,,,,,,,,,,,,,,,,,,,,
,,600be42e32909325b20ab5f0,2022-09-08_14h07.32.424,CGTgamblingSpanTasks,2022.2.1,Linux x86_64,60.01680471,,,,,,,,2.796,,,,,,,,,,,,,,1,v,1.204,19.36415485,1,3.796,1,,,,,,19.36415485,0,1.966229494,,,,,,,,,,,,,0,11,11,96,1,0.493893111,1,,,,,,,,,,,,,,,,,,,,,,,,,,,,,,,,,,,,,,,,,,,,,,,,,,,,,,,,,,,,,,,,,,,,,,,,,,,,,,,,
,,600be42e32909325b20ab5f0,2022-09-08_14h07.32.424,CGTgamblingSpanTasks,2022.2.1,Linux x86_64,60.01680471,,,,,,,,3.1473,,,,,,,,,,,,,,2,n,0.8527,20.31034258,1,4.6473,1.5,,,,,,20.31034258,0,1.870404296,,,,,,,,,,,,,0,12,12,85,1,0.519325853,1,,,,,,,,,,,,,,,,,,,,,,,,,,,,,,,,,,,,,,,,,,,,,,,,,,,,,,,,,,,,,,,,,,,,,,,,,,,,,,,,
,,600be42e32909325b20ab5f0,2022-09-08_14h07.32.424,CGTgamblingSpanTasks,2022.2.1,Linux x86_64,60.01680471,,,,,,,,3.2194,,,,,,,,,,,,,,2,v,0.7806,11.39288827,0,4.2194,1,,,,,,20.97851654,0,11.39288827,,,,,,,,,,,,,0,13,13,2,1,0.088791079,0,,,,,,,,,,,,,,,,,,,,,,,,,,,,,,,,,,,,,,,,,,,,,,,,,,,,,,,,,,,,,,,,,,,,,,,,,,,,,,,,
,,600be42e32909325b20ab5f0,2022-09-08_14h07.32.424,CGTgamblingSpanTasks,2022.2.1,Linux x86_64,60.01680471,,,,,,,,2.1367,,,,,,,,,,,,,,1,n,1.8633,11.19311486,0,3.1367,1,,,,,,8.17598802,0,11.19311486,,,,,,,,,,,,,0,14,14,110,1,0.021568003,0,,,,,,,,,,,,,,,,,,,,,,,,,,,,,,,,,,,,,,,,,,,,,,,,,,,,,,,,,,,,,,,,,,,,,,,,,,,,,,,,
,,600be42e32909325b20ab5f0,2022-09-08_14h07.32.424,CGTgamblingSpanTasks,2022.2.1,Linux x86_64,60.01680471,,,,,,,,3.1268,,,,,,,,,,,,,,1,v,0.8732,17.30137174,1,4.1268,1,,,,,,17.30137174,0,1.716380842,,,,,,,,,,,,,0,15,15,20,1,0.500020285,1,,,,,,,,,,,,,,,,,,,,,,,,,,,,,,,,,,,,,,,,,,,,,,,,,,,,,,,,,,,,,,,,,,,,,,,,,,,,,,,,
,,600be42e32909325b20ab5f0,2022-09-08_14h07.32.424,CGTgamblingSpanTasks,2022.2.1,Linux x86_64,60.01680471,,,,,,,,2.9299,,,,,,,,,,,,,,2,v,1.0701,4.251676631,0,4.4299,1.5,,,,,,3.395192929,0,4.251676631,,,,,,,,,,,,,0,16,16,7,1,0.023467153,0,,,,,,,,,,,,,,,,,,,,,,,,,,,,,,,,,,,,,,,,,,,,,,,,,,,,,,,,,,,,,,,,,,,,,,,,,,,,,,,,
,,600be42e32909325b20ab5f0,2022-09-08_14h07.32.424,CGTgamblingSpanTasks,2022.2.1,Linux x86_64,60.01680471,,,,,,,,3.2374,,,,,,,,,,,,,,2,n,0.7626,0,1,4.7374,1.5,,,,,,27.88092897,0,2.771762788,,,,,,,,,,,,,0,17,17,117,1,0.499466648,1,,,,,,,,,,,,,,,,,,,,,,,,,,,,,,,,,,,,,,,,,,,,,,,,,,,,,,,,,,,,,,,,,,,,,,,,,,,,,,,,
,,600be42e32909325b20ab5f0,2022-09-08_14h07.32.424,CGTgamblingSpanTasks,2022.2.1,Linux x86_64,60.01680471,,,,,,,,3.0834,,,,,,,,,,,,,,1,v,0.9166,21.48443242,1,4.5834,1.5,,,,,,21.48443242,0,2.229247341,,,,,,,,,,,,,0,18,18,63,1,0.488155912,1,,,,,,,,,,,,,,,,,,,,,,,,,,,,,,,,,,,,,,,,,,,,,,,,,,,,,,,,,,,,,,,,,,,,,,,,,,,,,,,,
,,600be42e32909325b20ab5f0,2022-09-08_14h07.32.424,CGTgamblingSpanTasks,2022.2.1,Linux x86_64,60.01680471,,,,,,,,3.1285,,,,,,,,,,,,,,1,n,0.8715,8.579385201,0,4.6285,1.5,,,,,,14.11762686,0,8.579385201,,,,,,,,,,,,,0,19,19,60,1,0.073886959,0,,,,,,,,,,,,,,,,,,,,,,,,,,,,,,,,,,,,,,,,,,,,,,,,,,,,,,,,,,,,,,,,,,,,,,,,,,,,,,,,
,,600be42e32909325b20ab5f0,2022-09-08_14h07.32.424,CGTgamblingSpanTasks,2022.2.1,Linux x86_64,60.01680471,,,,,,,,3.1545,,,,,,,,,,,,,,1,v,0.8455,0,1,4.6545,1.5,,,,,,23.24777057,0,2.003482335,,,,,,,,,,,,,0,20,20,59,1,0.536135174,1,,,,,,,,,,,,,,,,,,,,,,,,,,,,,,,,,,,,,,,,,,,,,,,,,,,,,,,,,,,,,,,,,,,,,,,,,,,,,,,,
,,600be42e32909325b20ab5f0,2022-09-08_14h07.32.424,CGTgamblingSpanTasks,2022.2.1,Linux x86_64,60.01680471,,,,,,,,2.7451,,,,,,,,,,,,,,1,v,1.2549,0,1,4.2451,1.5,,,,,,27.12325385,0,0.080932047,,,,,,,,,,,,,0,21,21,14,1,0.906929184,0,,,,,,,,,,,,,,,,,,,,,,,,,,,,,,,,,,,,,,,,,,,,,,,,,,,,,,,,,,,,,,,,,,,,,,,,,,,,,,,,
,,600be42e32909325b20ab5f0,2022-09-08_14h07.32.424,CGTgamblingSpanTasks,2022.2.1,Linux x86_64,60.01680471,,,,,,,,2.9362,,,,,,,,,,,,,,1,v,1.0638,29.76099779,1,3.9362,1,,,,,,29.76099779,0,0.095763086,,,,,,,,,,,,,0,22,22,35,1,0.904537896,0,,,,,,,,,,,,,,,,,,,,,,,,,,,,,,,,,,,,,,,,,,,,,,,,,,,,,,,,,,,,,,,,,,,,,,,,,,,,,,,,
,,600be42e32909325b20ab5f0,2022-09-08_14h07.32.424,CGTgamblingSpanTasks,2022.2.1,Linux x86_64,60.01680471,,,,,,,,2.3618,,,,,,,,,,,,,,1,v,1.6382,0,1,3.3618,1,,,,,,8.217594828,0,0.951019374,,,,,,,,,,,,,0,23,23,87,1,0.458722936,1,,,,,,,,,,,,,,,,,,,,,,,,,,,,,,,,,,,,,,,,,,,,,,,,,,,,,,,,,,,,,,,,,,,,,,,,,,,,,,,,
,,600be42e32909325b20ab5f0,2022-09-08_14h07.32.424,CGTgamblingSpanTasks,2022.2.1,Linux x86_64,60.01680471,,,,,,,,3.2931,,,,,,,,,,,,,,1,v,0.7069,26.36733703,1,4.7931,1.5,,,,,,26.36733703,0,2.201057101,,,,,,,,,,,,,0,24,24,90,1,0.544064207,1,,,,,,,,,,,,,,,,,,,,,,,,,,,,,,,,,,,,,,,,,,,,,,,,,,,,,,,,,,,,,,,,,,,,,,,,,,,,,,,,
,,600be42e32909325b20ab5f0,2022-09-08_14h07.32.424,CGTgamblingSpanTasks,2022.2.1,Linux x86_64,60.01680471,,,,,,,,3.3424,,,,,,,,,,,,,,2,n,0.6576,29.30724159,1,4.3424,1,,,,,,29.30724159,0,3.247012935,,,,,,,,,,,,,0,25,25,71,1,0.470571125,1,,,,,,,,,,,,,,,,,,,,,,,,,,,,,,,,,,,,,,,,,,,,,,,,,,,,,,,,,,,,,,,,,,,,,,,,,,,,,,,,
,,600be42e32909325b20ab5f0,2022-09-08_14h07.32.424,CGTgamblingSpanTasks,2022.2.1,Linux x86_64,60.01680471,,,,,,,,3.2061,,,,,,,,,,,,,,2,n,0.7939,0,1,4.2061,1,,,,,,25.76582409,0,2.393193076,,,,,,,,,,,,,0,26,26,46,1,0.517129855,1,,,,,,,,,,,,,,,,,,,,,,,,,,,,,,,,,,,,,,,,,,,,,,,,,,,,,,,,,,,,,,,,,,,,,,,,,,,,,,,,
,,600be42e32909325b20ab5f0,2022-09-08_14h07.32.424,CGTgamblingSpanTasks,2022.2.1,Linux x86_64,60.01680471,,,,,,,,3.3104,,,,,,,,,,,,,,1,v,0.6896,0,1,4.8104,1.5,,,,,,25.21882231,0,0.085746782,,,,,,,,,,,,,0,27,27,64,1,0.90272076,0,,,,,,,,,,,,,,,,,,,,,,,,,,,,,,,,,,,,,,,,,,,,,,,,,,,,,,,,,,,,,,,,,,,,,,,,,,,,,,,,
,,600be42e32909325b20ab5f0,2022-09-08_14h07.32.424,CGTgamblingSpanTasks,2022.2.1,Linux x86_64,60.01680471,,,,,,,,3.0059,,,,,,,,,,,,,,1,n,0.9941,5.683635938,0,4.0059,1,,,,,,4.941039335,0,5.683635938,,,,,,,,,,,,,0,28,28,9,1,0.025481984,0,,,,,,,,,,,,,,,,,,,,,,,,,,,,,,,,,,,,,,,,,,,,,,,,,,,,,,,,,,,,,,,,,,,,,,,,,,,,,,,,
,,600be42e32909325b20ab5f0,2022-09-08_14h07.32.424,CGTgamblingSpanTasks,2022.2.1,Linux x86_64,60.01680471,,,,,,,,2.8871,,,,,,,,,,,,,,1,n,1.1129,11.41737518,0,4.3871,1.5,,,,,,18.11029021,0,11.41737518,,,,,,,,,,,,,0,29,29,48,1,0.069445859,0,,,,,,,,,,,,,,,,,,,,,,,,,,,,,,,,,,,,,,,,,,,,,,,,,,,,,,,,,,,,,,,,,,,,,,,,,,,,,,,,
,,600be42e32909325b20ab5f0,2022-09-08_14h07.32.424,CGTgamblingSpanTasks,2022.2.1,Linux x86_64,60.01680471,,,,,,,,2.2245,,,,,,,,,,,,,,2,v,1.7755,7.646213173,0,3.2245,1,,,,,,2.042350179,0,7.646213173,,,,,,,,,,,,,0,30,30,53,1,0.009522273,0,,,,,,,,,,,,,,,,,,,,,,,,,,,,,,,,,,,,,,,,,,,,,,,,,,,,,,,,,,,,,,,,,,,,,,,,,,,,,,,,
,,600be42e32909325b20ab5f0,2022-09-08_14h07.32.424,CGTgamblingSpanTasks,2022.2.1,Linux x86_64,60.01680471,,,,,,,,3.0894,,,,,,,,,,,,,,1,v,0.9106,0,1,4.5894,1.5,,,,,,24.35708027,0,2.738695417,,,,,,,,,,,,,0,31,31,114,1,0.466573634,1,,,,,,,,,,,,,,,,,,,,,,,,,,,,,,,,,,,,,,,,,,,,,,,,,,,,,,,,,,,,,,,,,,,,,,,,,,,,,,,,
,,600be42e32909325b20ab5f0,2022-09-08_14h07.32.424,CGTgamblingSpanTasks,2022.2.1,Linux x86_64,60.01680471,,,,,,,,3.3413,,,,,,,,,,,,,,2,v,0.6587,10.3417501,0,4.8413,1.5,,,,,,15.21435748,0,10.3417501,,,,,,,,,,,,,0,32,32,72,1,0.060969226,0,,,,,,,,,,,,,,,,,,,,,,,,,,,,,,,,,,,,,,,,,,,,,,,,,,,,,,,,,,,,,,,,,,,,,,,,,,,,,,,,
,,600be42e32909325b20ab5f0,2022-09-08_14h07.32.424,CGTgamblingSpanTasks,2022.2.1,Linux x86_64,60.01680471,,,,,,,,3.2012,,,,,,,,,,,,,,1,v,0.7988,28.68598705,1,4.7012,1.5,,,,,,28.68598705,0,0.050674956,,,,,,,,,,,,,0,33,33,62,1,0.920905497,0,,,,,,,,,,,,,,,,,,,,,,,,,,,,,,,,,,,,,,,,,,,,,,,,,,,,,,,,,,,,,,,,,,,,,,,,,,,,,,,,
,,600be42e32909325b20ab5f0,2022-09-08_14h07.32.424,CGTgamblingSpanTasks,2022.2.1,Linux x86_64,60.01680471,,,,,,,,2.7276,,,,,,,,,,,,,,1,n,1.2724,6.091504705,0,4.2276,1.5,,,,,,6.662965216,0,6.091504705,,,,,,,,,,,,,0,34,34,102,1,0.035087099,0,,,,,,,,,,,,,,,,,,,,,,,,,,,,,,,,,,,,,,,,,,,,,,,,,,,,,,,,,,,,,,,,,,,,,,,,,,,,,,,,
,,600be42e32909325b20ab5f0,2022-09-08_14h07.32.424,CGTgamblingSpanTasks,2022.2.1,Linux x86_64,60.01680471,,,,,,,,3.2722,,,,,,,,,,,,,,1,n,0.7278,11.42134125,0,4.7722,1.5,,,,,,12.9904115,0,11.42134125,,,,,,,,,,,,,0,35,35,118,1,0.037876033,0,,,,,,,,,,,,,,,,,,,,,,,,,,,,,,,,,,,,,,,,,,,,,,,,,,,,,,,,,,,,,,,,,,,,,,,,,,,,,,,,
,,600be42e32909325b20ab5f0,2022-09-08_14h07.32.424,CGTgamblingSpanTasks,2022.2.1,Linux x86_64,60.01680471,,,,,,,,3.3113,,,,,,,,,,,,,,2,v,0.6887,11.93550497,0,4.8113,1.5,,,,,,14.20587264,0,11.93550497,,,,,,,,,,,,,0,36,36,21,1,0.041340301,0,,,,,,,,,,,,,,,,,,,,,,,,,,,,,,,,,,,,,,,,,,,,,,,,,,,,,,,,,,,,,,,,,,,,,,,,,,,,,,,,
,,600be42e32909325b20ab5f0,2022-09-08_14h07.32.424,CGTgamblingSpanTasks,2022.2.1,Linux x86_64,60.01680471,,,,,,,,3.0461,,,,,,,,,,,,,,2,n,0.9539,0,1,4.0461,1,,,,,,21.39646914,0,0.072474078,,,,,,,,,,,,,0,37,37,3,1,0.902848133,0,,,,,,,,,,,,,,,,,,,,,,,,,,,,,,,,,,,,,,,,,,,,,,,,,,,,,,,,,,,,,,,,,,,,,,,,,,,,,,,,
,,600be42e32909325b20ab5f0,2022-09-08_14h07.32.424,CGTgamblingSpanTasks,2022.2.1,Linux x86_64,60.01680471,,,,,,,,3.1845,,,,,,,,,,,,,,2,n,0.8155,15.43649625,1,4.1845,1,,,,,,15.43649625,0,1.65459324,,,,,,,,,,,,,0,38,38,33,1,0.479480163,1,,,,,,,,,,,,,,,,,,,,,,,,,,,,,,,,,,,,,,,,,,,,,,,,,,,,,,,,,,,,,,,,,,,,,,,,,,,,,,,,
,,600be42e32909325b20ab5f0,2022-09-08_14h07.32.424,CGTgamblingSpanTasks,2022.2.1,Linux x86_64,60.01680471,,,,,,,,3.2665,,,,,,,,,,,,,,1,v,0.7335,0,1,4.2665,1,,,,,,17.5608285,0,1.825111303,,,,,,,,,,,,,0,39,39,104,1,0.487721116,1,,,,,,,,,,,,,,,,,,,,,,,,,,,,,,,,,,,,,,,,,,,,,,,,,,,,,,,,,,,,,,,,,,,,,,,,,,,,,,,,
,,600be42e32909325b20ab5f0,2022-09-08_14h07.32.424,CGTgamblingSpanTasks,2022.2.1,Linux x86_64,60.01680471,,,,,,,,3.244,,,,,,,,,,,,,,2,v,0.756,6.833409611,0,4.744,1.5,,,,,,6.325091157,0,6.833409611,,,,,,,,,,,,,0,40,40,58,1,0.027113638,0,,,,,,,,,,,,,,,,,,,,,,,,,,,,,,,,,,,,,,,,,,,,,,,,,,,,,,,,,,,,,,,,,,,,,,,,,,,,,,,,
,,600be42e32909325b20ab5f0,2022-09-08_14h07.32.424,CGTgamblingSpanTasks,2022.2.1,Linux x86_64,60.01680471,,,,,,,,3.4084,,,,,,,,,,,,,,1,v,0.5916,17.85020524,1,4.4084,1,,,,,,17.85020524,0,2.058701084,,,,,,,,,,,,,0,41,41,25,1,0.459662216,1,,,,,,,,,,,,,,,,,,,,,,,,,,,,,,,,,,,,,,,,,,,,,,,,,,,,,,,,,,,,,,,,,,,,,,,,,,,,,,,,
,,600be42e32909325b20ab5f0,2022-09-08_14h07.32.424,CGTgamblingSpanTasks,2022.2.1,Linux x86_64,60.01680471,,,,,,,,3.1814,,,,,,,,,,,,,,2,n,0.8186,27.77179191,1,4.6814,1.5,,,,,,27.77179191,0,0.074524436,,,,,,,,,,,,,0,42,42,99,1,0.910114387,0,,,,,,,,,,,,,,,,,,,,,,,,,,,,,,,,,,,,,,,,,,,,,,,,,,,,,,,,,,,,,,,,,,,,,,,,,,,,,,,,
,,600be42e32909325b20ab5f0,2022-09-08_14h07.32.424,CGTgamblingSpanTasks,2022.2.1,Linux x86_64,60.01680471,,,,,,,,3.3974,,,,,,,,,,,,,,1,v,0.6026,0,1,4.3974,1,,,,,,27.60724521,0,0.088432325,,,,,,,,,,,,,0,43,43,17,1,0.904684186,0,,,,,,,,,,,,,,,,,,,,,,,,,,,,,,,,,,,,,,,,,,,,,,,,,,,,,,,,,,,,,,,,,,,,,,,,,,,,,,,,
,,600be42e32909325b20ab5f0,2022-09-08_14h07.32.424,CGTgamblingSpanTasks,2022.2.1,Linux x86_64,60.01680471,,,,,,,,3.3963,,,,,,,,,,,,,,1,v,0.6037,0,1,4.3963,1,,,,,,13.84410806,0,1.535873964,,,,,,,,,,,,,0,44,44,88,1,0.470209002,1,,,,,,,,,,,,,,,,,,,,,,,,,,,,,,,,,,,,,,,,,,,,,,,,,,,,,,,,,,,,,,,,,,,,,,,,,,,,,,,,
,,600be42e32909325b20ab5f0,2022-09-08_14h07.32.424,CGTgamblingSpanTasks,2022.2.1,Linux x86_64,60.01680471,,,,,,,,3.3958,,,,,,,,,,,,,,1,v,0.6042,25.65316415,1,4.3958,1,,,,,,25.65316415,0,0.079652925,,,,,,,,,,,,,0,45,45,109,1,0.90568168,0,,,,,,,,,,,,,,,,,,,,,,,,,,,,,,,,,,,,,,,,,,,,,,,,,,,,,,,,,,,,,,,,,,,,,,,,,,,,,,,,
,,600be42e32909325b20ab5f0,2022-09-08_14h07.32.424,CGTgamblingSpanTasks,2022.2.1,Linux x86_64,60.01680471,,,,,,,,3.3326,,,,,,,,,,,,,,2,n,0.6674,0,1,4.8326,1.5,,,,,,22.0050376,0,2.257683666,,,,,,,,,,,,,0,46,46,4,1,0.491147312,1,,,,,,,,,,,,,,,,,,,,,,,,,,,,,,,,,,,,,,,,,,,,,,,,,,,,,,,,,,,,,,,,,,,,,,,,,,,,,,,,
,,600be42e32909325b20ab5f0,2022-09-08_14h07.32.424,CGTgamblingSpanTasks,2022.2.1,Linux x86_64,60.01680471,,,,,,,,3.3494,,,,,,,,,,,,,,1,v,0.6506,0,1,4.8494,1.5,,,,,,17.23907308,0,2.055848574,,,,,,,,,,,,,0,47,47,66,1,0.450504458,1,,,,,,,,,,,,,,,,,,,,,,,,,,,,,,,,,,,,,,,,,,,,,,,,,,,,,,,,,,,,,,,,,,,,,,,,,,,,,,,,
,,600be42e32909325b20ab5f0,2022-09-08_14h07.32.424,CGTgamblingSpanTasks,2022.2.1,Linux x86_64,60.01680471,,,,,,,,3.3479,,,,,,,,,,,,,,1,v,0.6521,13.4287264,1,4.3479,1,,,,,,13.4287264,0,1.317368801,,,,,,,,,,,,,0,48,48,100,1,0.502953125,1,,,,,,,,,,,,,,,,,,,,,,,,,,,,,,,,,,,,,,,,,,,,,,,,,,,,,,,,,,,,,,,,,,,,,,,,,,,,,,,,
,,600be42e32909325b20ab5f0,2022-09-08_14h07.32.424,CGTgamblingSpanTasks,2022.2.1,Linux x86_64,60.01680471,,,,,,,,1.9188,,,,,,,,,,,,,,1,v,2.0812,0,1,2.9188,1,,,,,,22.86604061,0,2.293289792,,,,,,,,,,,,,0,49,49,51,1,0.49715382,1,,,,,,,,,,,,,,,,,,,,,,,,,,,,,,,,,,,,,,,,,,,,,,,,,,,,,,,,,,,,,,,,,,,,,,,,,,,,,,,,
,,600be42e32909325b20ab5f0,2022-09-08_14h07.32.424,CGTgamblingSpanTasks,2022.2.1,Linux x86_64,60.01680471,,,,,,,,2.2835,,,,,,,,,,,,,,2,v,1.7165,4.462262453,0,3.7835,1.5,,,,,,0.192759042,0,4.462262453,,,,,,,,,,,,,0,50,50,52,1,0.003553223,0,,,,,,,,,,,,,,,,,,,,,,,,,,,,,,,,,,,,,,,,,,,,,,,,,,,,,,,,,,,,,,,,,,,,,,,,,,,,,,,,
,,600be42e32909325b20ab5f0,2022-09-08_14h07.32.424,CGTgamblingSpanTasks,2022.2.1,Linux x86_64,60.01680471,,,,,,,,2.2459,,,,,,,,,,,,,,1,v,1.7541,0,1,3.7459,1.5,,,,,,27.93093084,0,0.050207531,,,,,,,,,,,,,0,51,51,83,1,0.920505936,0,,,,,,,,,,,,,,,,,,,,,,,,,,,,,,,,,,,,,,,,,,,,,,,,,,,,,,,,,,,,,,,,,,,,,,,,,,,,,,,,
,,600be42e32909325b20ab5f0,2022-09-08_14h07.32.424,CGTgamblingSpanTasks,2022.2.1,Linux x86_64,60.01680471,,,,,,,,1.4847,,,,,,,,,,,,,,2,n,2.5153,0,1,2.4847,1,,,,,,27.38828234,0,0.0639233,,,,,,,,,,,,,0,52,52,43,1,0.914010176,0,,,,,,,,,,,,,,,,,,,,,,,,,,,,,,,,,,,,,,,,,,,,,,,,,,,,,,,,,,,,,,,,,,,,,,,,,,,,,,,,
,,600be42e32909325b20ab5f0,2022-09-08_14h07.32.424,CGTgamblingSpanTasks,2022.2.1,Linux x86_64,60.01680471,,,,,,,,2.1638,,,,,,,,,,,,,,2,n,1.8362,19.58698544,1,3.1638,1,,,,,,19.58698544,0,9.936178001,,,,,,,,,,,,,0,53,53,77,1,0.098812204,0,,,,,,,,,,,,,,,,,,,,,,,,,,,,,,,,,,,,,,,,,,,,,,,,,,,,,,,,,,,,,,,,,,,,,,,,,,,,,,,,
,,600be42e32909325b20ab5f0,2022-09-08_14h07.32.424,CGTgamblingSpanTasks,2022.2.1,Linux x86_64,60.01680471,,,,,,,,3.0849,,,,,,,,,,,,,,2,v,0.9151,10.31611309,0,4.5849,1.5,,,,,,19.30622782,0,10.31611309,,,,,,,,,,,,,0,54,54,1,1,0.091105656,0,,,,,,,,,,,,,,,,,,,,,,,,,,,,,,,,,,,,,,,,,,,,,,,,,,,,,,,,,,,,,,,,,,,,,,,,,,,,,,,,
,,600be42e32909325b20ab5f0,2022-09-08_14h07.32.424,CGTgamblingSpanTasks,2022.2.1,Linux x86_64,60.01680471,,,,,,,,3.4155,,,,,,,,,,,,,,2,n,0.5845,0,1,4.9155,1.5,,,,,,24.479109,0,0.089582697,,,,,,,,,,,,,0,55,55,89,1,0.900200232,0,,,,,,,,,,,,,,,,,,,,,,,,,,,,,,,,,,,,,,,,,,,,,,,,,,,,,,,,,,,,,,,,,,,,,,,,,,,,,,,,
,,600be42e32909325b20ab5f0,2022-09-08_14h07.32.424,CGTgamblingSpanTasks,2022.2.1,Linux x86_64,60.01680471,,,,,,,,3.3654,,,,,,,,,,,,,,1,v,0.6346,26.11188619,1,4.8654,1.5,,,,,,26.11188619,0,0.081942421,,,,,,,,,,,,,0,56,56,105,1,0.905343856,0,,,,,,,,,,,,,,,,,,,,,,,,,,,,,,,,,,,,,,,,,,,,,,,,,,,,,,,,,,,,,,,,,,,,,,,,,,,,,,,,
,,600be42e32909325b20ab5f0,2022-09-08_14h07.32.424,CGTgamblingSpanTasks,2022.2.1,Linux x86_64,60.01680471,,,,,,,,3.3947,,,,,,,,,,,,,,2,n,0.6053,0,1,4.3947,1,,,,,,17.67865084,0,11.35147481,,,,,,,,,,,,,0,57,57,91,1,0.067304606,0,,,,,,,,,,,,,,,,,,,,,,,,,,,,,,,,,,,,,,,,,,,,,,,,,,,,,,,,,,,,,,,,,,,,,,,,,,,,,,,,
,,600be42e32909325b20ab5f0,2022-09-08_14h07.32.424,CGTgamblingSpanTasks,2022.2.1,Linux x86_64,60.01680471,,,,,,,,3.2141,,,,,,,,,,,,,,1,v,0.7859,0,1,4.7141,1.5,,,,,,20.5726842,0,0.073558523,,,,,,,,,,,,,0,58,58,26,1,0.901008565,0,,,,,,,,,,,,,,,,,,,,,,,,,,,,,,,,,,,,,,,,,,,,,,,,,,,,,,,,,,,,,,,,,,,,,,,,,,,,,,,,
,,600be42e32909325b20ab5f0,2022-09-08_14h07.32.424,CGTgamblingSpanTasks,2022.2.1,Linux x86_64,60.01680471,,,,,,,,3.2587,,,,,,,,,,,,,,2,n,0.7413,0,1,4.7587,1.5,,,,,,24.66627941,0,2.765426402,,,,,,,,,,,,,0,59,59,24,1,0.467360588,1,,,,,,,,,,,,,,,,,,,,,,,,,,,,,,,,,,,,,,,,,,,,,,,,,,,,,,,,,,,,,,,,,,,,,,,,,,,,,,,,
,,600be42e32909325b20ab5f0,2022-09-08_14h07.32.424,CGTgamblingSpanTasks,2022.2.1,Linux x86_64,60.01680471,,,,,,,,3.275,,,,,,,,,,,,,,2,n,0.725,0,1,4.275,1,,,,,,26.4985979,0,0.051324376,,,,,,,,,,,,,0,60,60,106,1,0.918747215,0,,,,,,,,,,,,,,,,,,,,,,,,,,,,,,,,,,,,,,,,,,,,,,,,,,,,,,,,,,,,,,,,,,,,,,,,,,,,,,,,
,,600be42e32909325b20ab5f0,2022-09-08_14h07.32.424,CGTgamblingSpanTasks,2022.2.1,Linux x86_64,60.01680471,,,,,,,,3.2471,,,,,,,,,,,,,,1,v,0.7529,0,1,4.7471,1.5,,,,,,21.7711579,0,2.502728921,,,,,,,,,,,,,0,61,61,101,1,0.460552621,1,,,,,,,,,,,,,,,,,,,,,,,,,,,,,,,,,,,,,,,,,,,,,,,,,,,,,,,,,,,,,,,,,,,,,,,,,,,,,,,,
,,600be42e32909325b20ab5f0,2022-09-08_14h07.32.424,CGTgamblingSpanTasks,2022.2.1,Linux x86_64,60.01680471,,,,,,,,2.1789,,,,,,,,,,,,,,1,v,1.8211,7.066129113,1,3.6789,1.5,,,,,,7.066129113,0,0.585581699,,,,,,,,,,,,,0,62,62,19,1,0.545860632,1,,,,,,,,,,,,,,,,,,,,,,,,,,,,,,,,,,,,,,,,,,,,,,,,,,,,,,,,,,,,,,,,,,,,,,,,,,,,,,,,
,,600be42e32909325b20ab5f0,2022-09-08_14h07.32.424,CGTgamblingSpanTasks,2022.2.1,Linux x86_64,60.01680471,,,,,,,,2.9769,,,,,,,,,,,,,,1,n,1.0231,11.6744431,0,3.9769,1,,,,,,10.43004651,0,11.6744431,,,,,,,,,,,,,0,63,63,15,1,0.026176489,0,,,,,,,,,,,,,,,,,,,,,,,,,,,,,,,,,,,,,,,,,,,,,,,,,,,,,,,,,,,,,,,,,,,,,,,,,,,,,,,,
,,600be42e32909325b20ab5f0,2022-09-08_14h07.32.424,CGTgamblingSpanTasks,2022.2.1,Linux x86_64,60.01680471,,,,,,,,3.2533,,,,,,,,,,,,,,1,v,0.7467,27.53810185,1,4.2533,1,,,,,,27.53810185,0,0.097022401,,,,,,,,,,,,,0,64,64,50,1,0.901515865,0,,,,,,,,,,,,,,,,,,,,,,,,,,,,,,,,,,,,,,,,,,,,,,,,,,,,,,,,,,,,,,,,,,,,,,,,,,,,,,,,
,,600be42e32909325b20ab5f0,2022-09-08_14h07.32.424,CGTgamblingSpanTasks,2022.2.1,Linux x86_64,60.01680471,,,,,,,,3.0685,,,,,,,,,,,,,,2,n,0.9315,0,1,4.0685,1,,,,,,27.37527992,0,2.860319095,,,,,,,,,,,,,0,65,65,39,1,0.486304156,1,,,,,,,,,,,,,,,,,,,,,,,,,,,,,,,,,,,,,,,,,,,,,,,,,,,,,,,,,,,,,,,,,,,,,,,,,,,,,,,,
,,600be42e32909325b20ab5f0,2022-09-08_14h07.32.424,CGTgamblingSpanTasks,2022.2.1,Linux x86_64,60.01680471,,,,,,,,2.989,,,,,,,,,,,,,,1,v,1.011,11.16819157,1,3.989,1,,,,,,11.16819157,0,0.941456753,,,,,,,,,,,,,0,66,66,45,1,0.54163803,1,,,,,,,,,,,,,,,,,,,,,,,,,,,,,,,,,,,,,,,,,,,,,,,,,,,,,,,,,,,,,,,,,,,,,,,,,,,,,,,,
,,600be42e32909325b20ab5f0,2022-09-08_14h07.32.424,CGTgamblingSpanTasks,2022.2.1,Linux x86_64,60.01680471,,,,,,,,3.3296,,,,,,,,,,,,,,2,n,0.6704,17.64114152,1,4.8296,1.5,,,,,,17.64114152,0,10.68505773,,,,,,,,,,,,,0,67,67,98,1,0.074299362,0,,,,,,,,,,,,,,,,,,,,,,,,,,,,,,,,,,,,,,,,,,,,,,,,,,,,,,,,,,,,,,,,,,,,,,,,,,,,,,,,
,,600be42e32909325b20ab5f0,2022-09-08_14h07.32.424,CGTgamblingSpanTasks,2022.2.1,Linux x86_64,60.01680471,,,,,,,,2.2252,,,,,,,,,,,,,,1,n,1.7748,6.781500919,0,3.7252,1.5,,,,,,8.363821911,0,6.781500919,,,,,,,,,,,,,0,68,68,61,1,0.044227959,0,,,,,,,,,,,,,,,,,,,,,,,,,,,,,,,,,,,,,,,,,,,,,,,,,,,,,,,,,,,,,,,,,,,,,,,,,,,,,,,,
,,600be42e32909325b20ab5f0,2022-09-08_14h07.32.424,CGTgamblingSpanTasks,2022.2.1,Linux x86_64,60.01680471,,,,,,,,2.8428,,,,,,,,,,,,,,1,v,1.1572,25.56803059,1,4.3428,1.5,,,,,,25.56803059,0,2.543951743,,,,,,,,,,,,,0,69,69,41,1,0.499247217,1,,,,,,,,,,,,,,,,,,,,,,,,,,,,,,,,,,,,,,,,,,,,,,,,,,,,,,,,,,,,,,,,,,,,,,,,,,,,,,,,
,,600be42e32909325b20ab5f0,2022-09-08_14h07.32.424,CGTgamblingSpanTasks,2022.2.1,Linux x86_64,60.01680471,,,,,,,,2.8638,,,,,,,,,,,,,,2,n,1.1362,0,1,3.8638,1,,,,,,28.9381277,0,2.663622024,,,,,,,,,,,,,0,70,70,103,1,0.519453367,1,,,,,,,,,,,,,,,,,,,,,,,,,,,,,,,,,,,,,,,,,,,,,,,,,,,,,,,,,,,,,,,,,,,,,,,,,,,,,,,,
,,600be42e32909325b20ab5f0,2022-09-08_14h07.32.424,CGTgamblingSpanTasks,2022.2.1,Linux x86_64,60.01680471,,,,,,,,3.0152,,,,,,,,,,,,,,1,n,0.9848,8.653432553,0,4.0152,1,,,,,,15.13999312,0,8.653432553,,,,,,,,,,,,,0,71,71,54,1,0.081767484,0,,,,,,,,,,,,,,,,,,,,,,,,,,,,,,,,,,,,,,,,,,,,,,,,,,,,,,,,,,,,,,,,,,,,,,,,,,,,,,,,
,,600be42e32909325b20ab5f0,2022-09-08_14h07.32.424,CGTgamblingSpanTasks,2022.2.1,Linux x86_64,60.01680471,,,,,,,,3.1164,,,,,,,,,,,,,,2,n,0.8836,0,1,4.6164,1.5,,,,,,22.62475578,0,2.397643354,,,,,,,,,,,,,0,72,72,93,1,0.482527609,1,,,,,,,,,,,,,,,,,,,,,,,,,,,,,,,,,,,,,,,,,,,,,,,,,,,,,,,,,,,,,,,,,,,,,,,,,,,,,,,,
,,600be42e32909325b20ab5f0,2022-09-08_14h07.32.424,CGTgamblingSpanTasks,2022.2.1,Linux x86_64,60.01680471,,,,,,,,3.5437,,,,,,,,,,,,,,2,n,0.4563,24.57684014,1,4.5437,1,,,,,,24.57684014,0,0.061756244,,,,,,,,,,,,,0,73,73,68,1,0.911988903,0,,,,,,,,,,,,,,,,,,,,,,,,,,,,,,,,,,,,,,,,,,,,,,,,,,,,,,,,,,,,,,,,,,,,,,,,,,,,,,,,
,,600be42e32909325b20ab5f0,2022-09-08_14h07.32.424,CGTgamblingSpanTasks,2022.2.1,Linux x86_64,60.01680471,,,,,,,,3.3991,,,,,,,,,,,,,,1,v,0.6009,25.54604005,1,4.8991,1.5,,,,,,25.54604005,0,0.088845411,,,,,,,,,,,,,0,74,74,79,1,0.901957831,0,,,,,,,,,,,,,,,,,,,,,,,,,,,,,,,,,,,,,,,,,,,,,,,,,,,,,,,,,,,,,,,,,,,,,,,,,,,,,,,,
,,600be42e32909325b20ab5f0,2022-09-08_14h07.32.424,CGTgamblingSpanTasks,2022.2.1,Linux x86_64,60.01680471,,,,,,,,3.1964,,,,,,,,,,,,,,2,v,0.8036,8.512335864,0,4.1964,1,,,,,,10.05300841,0,8.512335864,,,,,,,,,,,,,0,75,75,74,1,0.040729225,0,,,,,,,,,,,,,,,,,,,,,,,,,,,,,,,,,,,,,,,,,,,,,,,,,,,,,,,,,,,,,,,,,,,,,,,,,,,,,,,,
,,600be42e32909325b20ab5f0,2022-09-08_14h07.32.424,CGTgamblingSpanTasks,2022.2.1,Linux x86_64,60.01680471,,,,,,,,3.3625,,,,,,,,,,,,,,2,n,0.6375,0,1,4.8625,1.5,,,,,,28.33977875,0,2.768313633,,,,,,,,,,,,,0,76,76,116,1,0.50406901,1,,,,,,,,,,,,,,,,,,,,,,,,,,,,,,,,,,,,,,,,,,,,,,,,,,,,,,,,,,,,,,,,,,,,,,,,,,,,,,,,
,,600be42e32909325b20ab5f0,2022-09-08_14h07.32.424,CGTgamblingSpanTasks,2022.2.1,Linux x86_64,60.01680471,,,,,,,,3.1329,,,,,,,,,,,,,,1,v,0.8671,0,1,4.1329,1,,,,,,22.72923833,0,0.067170781,,,,,,,,,,,,,0,77,77,86,1,0.907226703,0,,,,,,,,,,,,,,,,,,,,,,,,,,,,,,,,,,,,,,,,,,,,,,,,,,,,,,,,,,,,,,,,,,,,,,,,,,,,,,,,
,,600be42e32909325b20ab5f0,2022-09-08_14h07.32.424,CGTgamblingSpanTasks,2022.2.1,Linux x86_64,60.01680471,,,,,,,,3.124,,,,,,,,,,,,,,2,n,0.876,0,1,4.124,1,,,,,,13.96521039,0,1.591282699,,,,,,,,,,,,,0,78,78,49,1,0.462956344,1,,,,,,,,,,,,,,,,,,,,,,,,,,,,,,,,,,,,,,,,,,,,,,,,,,,,,,,,,,,,,,,,,,,,,,,,,,,,,,,,
,,600be42e32909325b20ab5f0,2022-09-08_14h07.32.424,CGTgamblingSpanTasks,2022.2.1,Linux x86_64,60.01680471,,,,,,,,2.6689,,,,,,,,,,,,,,2,n,1.3311,0,1,4.1689,1.5,,,,,,9.012590634,0,1.002188111,,,,,,,,,,,,,0,79,79,12,1,0.46958041,1,,,,,,,,,,,,,,,,,,,,,,,,,,,,,,,,,,,,,,,,,,,,,,,,,,,,,,,,,,,,,,,,,,,,,,,,,,,,,,,,
,,600be42e32909325b20ab5f0,2022-09-08_14h07.32.424,CGTgamblingSpanTasks,2022.2.1,Linux x86_64,60.01680471,,,,,,,,2.9773,,,,,,,,,,,,,,2,n,1.0227,0,1,4.4773,1.5,,,,,,14.3363647,0,1.396635362,,,,,,,,,,,,,0,80,80,78,1,0.504775474,1,,,,,,,,,,,,,,,,,,,,,,,,,,,,,,,,,,,,,,,,,,,,,,,,,,,,,,,,,,,,,,,,,,,,,,,,,,,,,,,,
,,600be42e32909325b20ab5f0,2022-09-08_14h07.32.424,CGTgamblingSpanTasks,2022.2.1,Linux x86_64,60.01680471,,,,,,,,3.1752,,,,,,,,,,,,,,1,v,0.8248,18.16238569,1,4.1752,1,,,,,,18.16238569,0,1.540604093,,,,,,,,,,,,,0,81,81,34,1,0.540092491,1,,,,,,,,,,,,,,,,,,,,,,,,,,,,,,,,,,,,,,,,,,,,,,,,,,,,,,,,,,,,,,,,,,,,,,,,,,,,,,,,
,,600be42e32909325b20ab5f0,2022-09-08_14h07.32.424,CGTgamblingSpanTasks,2022.2.1,Linux x86_64,60.01680471,,,,,,,,3.1089,,,,,,,,,,,,,,1,n,0.8911,7.50753835,0,4.6089,1.5,,,,,,2.231316635,0,7.50753835,,,,,,,,,,,,,0,82,82,29,1,0.010273427,0,,,,,,,,,,,,,,,,,,,,,,,,,,,,,,,,,,,,,,,,,,,,,,,,,,,,,,,,,,,,,,,,,,,,,,,,,,,,,,,,
,,600be42e32909325b20ab5f0,2022-09-08_14h07.32.424,CGTgamblingSpanTasks,2022.2.1,Linux x86_64,60.01680471,,,,,,,,3.1017,,,,,,,,,,,,,,1,v,0.8983,0,1,4.6017,1.5,,,,,,21.2188881,0,2.067660742,,,,,,,,,,,,,0,83,83,107,1,0.50470775,1,,,,,,,,,,,,,,,,,,,,,,,,,,,,,,,,,,,,,,,,,,,,,,,,,,,,,,,,,,,,,,,,,,,,,,,,,,,,,,,,
,,600be42e32909325b20ab5f0,2022-09-08_14h07.32.424,CGTgamblingSpanTasks,2022.2.1,Linux x86_64,60.01680471,,,,,,,,3.167,,,,,,,,,,,,,,2,v,0.833,10.41201161,0,4.167,1,,,,,,6.307062696,0,10.41201161,,,,,,,,,,,,,0,84,84,23,1,0.018187109,0,,,,,,,,,,,,,,,,,,,,,,,,,,,,,,,,,,,,,,,,,,,,,,,,,,,,,,,,,,,,,,,,,,,,,,,,,,,,,,,,
,,600be42e32909325b20ab5f0,2022-09-08_14h07.32.424,CGTgamblingSpanTasks,2022.2.1,Linux x86_64,60.01680471,,,,,,,,3.3263,,,,,,,,,,,,,,2,n,0.6737,19.5450126,1,4.3263,1,,,,,,19.5450126,0,2.123581464,,,,,,,,,,,,,0,85,85,65,1,0.475836144,1,,,,,,,,,,,,,,,,,,,,,,,,,,,,,,,,,,,,,,,,,,,,,,,,,,,,,,,,,,,,,,,,,,,,,,,,,,,,,,,,
,,600be42e32909325b20ab5f0,2022-09-08_14h07.32.424,CGTgamblingSpanTasks,2022.2.1,Linux x86_64,60.01680471,,,,,,,,3.2897,,,,,,,,,,,,,,1,v,0.7103,21.46599803,1,4.7897,1.5,,,,,,21.46599803,0,0.059789256,,,,,,,,,,,,,0,86,86,8,1,0.909019081,0,,,,,,,,,,,,,,,,,,,,,,,,,,,,,,,,,,,,,,,,,,,,,,,,,,,,,,,,,,,,,,,,,,,,,,,,,,,,,,,,
,,600be42e32909325b20ab5f0,2022-09-08_14h07.32.424,CGTgamblingSpanTasks,2022.2.1,Linux x86_64,60.01680471,,,,,,,,3.4292,,,,,,,,,,,,,,2,n,0.5708,23.4214135,1,4.4292,1,,,,,,23.4214135,0,2.485985001,,,,,,,,,,,,,0,87,87,81,1,0.482105905,1,,,,,,,,,,,,,,,,,,,,,,,,,,,,,,,,,,,,,,,,,,,,,,,,,,,,,,,,,,,,,,,,,,,,,,,,,,,,,,,,
,,600be42e32909325b20ab5f0,2022-09-08_14h07.32.424,CGTgamblingSpanTasks,2022.2.1,Linux x86_64,60.01680471,,,,,,,,2.7631,,,,,,,,,,,,,,2,n,1.2369,0,1,3.7631,1,,,,,,18.20422443,0,1.635040165,,,,,,,,,,,,,0,88,88,82,1,0.525708991,1,,,,,,,,,,,,,,,,,,,,,,,,,,,,,,,,,,,,,,,,,,,,,,,,,,,,,,,,,,,,,,,,,,,,,,,,,,,,,,,,
,,600be42e32909325b20ab5f0,2022-09-08_14h07.32.424,CGTgamblingSpanTasks,2022.2.1,Linux x86_64,60.01680471,,,,,,,,3.092,,,,,,,,,,,,,,1,n,0.908,4.904872644,0,4.092,1,,,,,,4.698775357,0,4.904872644,,,,,,,,,,,,,0,89,89,75,1,0.028064484,0,,,,,,,,,,,,,,,,,,,,,,,,,,,,,,,,,,,,,,,,,,,,,,,,,,,,,,,,,,,,,,,,,,,,,,,,,,,,,,,,
,,600be42e32909325b20ab5f0,2022-09-08_14h07.32.424,CGTgamblingSpanTasks,2022.2.1,Linux x86_64,60.01680471,,,,,,,,3.0351,,,,,,,,,,,,,,2,n,0.9649,0,1,4.5351,1.5,,,,,,28.13634754,0,2.532806323,,,,,,,,,,,,,0,90,90,28,1,0.525136524,1,,,,,,,,,,,,,,,,,,,,,,,,,,,,,,,,,,,,,,,,,,,,,,,,,,,,,,,,,,,,,,,,,,,,,,,,,,,,,,,,
,,600be42e32909325b20ab5f0,2022-09-08_14h07.32.424,CGTgamblingSpanTasks,2022.2.1,Linux x86_64,60.01680471,,,,,,,,3.1964,,,,,,,,,,,,,,1,v,0.8036,27.39221343,1,4.1964,1,,,,,,27.39221343,0,2.743407746,,,,,,,,,,,,,0,91,91,47,1,0.49752044,1,,,,,,,,,,,,,,,,,,,,,,,,,,,,,,,,,,,,,,,,,,,,,,,,,,,,,,,,,,,,,,,,,,,,,,,,,,,,,,,,
,,600be42e32909325b20ab5f0,2022-09-08_14h07.32.424,CGTgamblingSpanTasks,2022.2.1,Linux x86_64,60.01680471,,,,,,,,3.1681,,,,,,,,,,,,,,1,v,0.8319,17.4320197,1,4.6681,1.5,,,,,,17.4320197,0,1.448620949,,,,,,,,,,,,,0,92,92,30,1,0.545178213,1,,,,,,,,,,,,,,,,,,,,,,,,,,,,,,,,,,,,,,,,,,,,,,,,,,,,,,,,,,,,,,,,,,,,,,,,,,,,,,,,
,,600be42e32909325b20ab5f0,2022-09-08_14h07.32.424,CGTgamblingSpanTasks,2022.2.1,Linux x86_64,60.01680471,,,,,,,,2.9416,,,,,,,,,,,,,,2,n,1.0584,28.94627214,1,4.4416,1.5,,,,,,28.94627214,0,2.701896413,,,,,,,,,,,,,0,93,93,111,1,0.515860759,1,,,,,,,,,,,,,,,,,,,,,,,,,,,,,,,,,,,,,,,,,,,,,,,,,,,,,,,,,,,,,,,,,,,,,,,,,,,,,,,,
,,600be42e32909325b20ab5f0,2022-09-08_14h07.32.424,CGTgamblingSpanTasks,2022.2.1,Linux x86_64,60.01680471,,,,,,,,3.2865,,,,,,,,,,,,,,2,n,0.7135,29.75778644,1,4.7865,1.5,,,,,,29.75778644,0,2.810531415,,,,,,,,,,,,,0,94,94,113,1,0.512824233,1,,,,,,,,,,,,,,,,,,,,,,,,,,,,,,,,,,,,,,,,,,,,,,,,,,,,,,,,,,,,,,,,,,,,,,,,,,,,,,,,
,,600be42e32909325b20ab5f0,2022-09-08_14h07.32.424,CGTgamblingSpanTasks,2022.2.1,Linux x86_64,60.01680471,,,,,,,,3.3509,,,,,,,,,,,,,,1,v,0.6491,0,1,4.3509,1,,,,,,22.25959835,0,0.065383587,,,,,,,,,,,,,0,95,95,97,1,0.907413875,0,,,,,,,,,,,,,,,,,,,,,,,,,,,,,,,,,,,,,,,,,,,,,,,,,,,,,,,,,,,,,,,,,,,,,,,,,,,,,,,,
,,600be42e32909325b20ab5f0,2022-09-08_14h07.32.424,CGTgamblingSpanTasks,2022.2.1,Linux x86_64,60.01680471,,,,,,,,2.5585,,,,,,,,,,,,,,1,v,1.4415,11.08143071,1,4.0585,1.5,,,,,,11.08143071,0,1.207538756,,,,,,,,,,,,,0,96,96,84,1,0.475047453,1,,,,,,,,,,,,,,,,,,,,,,,,,,,,,,,,,,,,,,,,,,,,,,,,,,,,,,,,,,,,,,,,,,,,,,,,,,,,,,,,
,,600be42e32909325b20ab5f0,2022-09-08_14h07.32.424,CGTgamblingSpanTasks,2022.2.1,Linux x86_64,60.01680471,,,,,,,,2.7512,,,,,,,,,,,,,,1,v,1.2488,23.59556381,1,3.7512,1,,,,,,23.59556381,0,2.464662219,,,,,,,,,,,,,0,97,97,22,1,0.486383205,1,,,,,,,,,,,,,,,,,,,,,,,,,,,,,,,,,,,,,,,,,,,,,,,,,,,,,,,,,,,,,,,,,,,,,,,,,,,,,,,,
,,600be42e32909325b20ab5f0,2022-09-08_14h07.32.424,CGTgamblingSpanTasks,2022.2.1,Linux x86_64,60.01680471,,,,,,,,2.9262,,,,,,,,,,,,,,1,v,1.0738,26.16821818,1,3.9262,1,,,,,,26.16821818,0,0.093528069,,,,,,,,,,,,,0,98,98,42,1,0.901022427,0,,,,,,,,,,,,,,,,,,,,,,,,,,,,,,,,,,,,,,,,,,,,,,,,,,,,,,,,,,,,,,,,,,,,,,,,,,,,,,,,
,,600be42e32909325b20ab5f0,2022-09-08_14h07.32.424,CGTgamblingSpanTasks,2022.2.1,Linux x86_64,60.01680471,,,,,,,,2.55,,,,,,,,,,,,,,1,n,1.45,5.526483034,0,3.55,1,,,,,,9.725876653,0,5.526483034,,,,,,,,,,,,,0,99,99,44,1,0.082550696,0,,,,,,,,,,,,,,,,,,,,,,,,,,,,,,,,,,,,,,,,,,,,,,,,,,,,,,,,,,,,,,,,,,,,,,,,,,,,,,,,
,,600be42e32909325b20ab5f0,2022-09-08_14h07.32.424,CGTgamblingSpanTasks,2022.2.1,Linux x86_64,60.01680471,,,,,,,,2.8783,,,,,,,,,,,,,,2,n,1.1217,0,1,3.8783,1,,,,,,27.57491653,0,2.99133314,,,,,,,,,,,,,0,100,100,10,1,0.47625893,1,,,,,,,,,,,,,,,,,,,,,,,,,,,,,,,,,,,,,,,,,,,,,,,,,,,,,,,,,,,,,,,,,,,,,,,,,,,,,,,,
,,600be42e32909325b20ab5f0,2022-09-08_14h07.32.424,CGTgamblingSpanTasks,2022.2.1,Linux x86_64,60.01680471,,,,,,,,3.0312,,,,,,,,,,,,,,1,n,0.9688,8.42547829,0,4.0312,1,,,,,,15.87668502,0,8.42547829,,,,,,,,,,,,,0,101,101,56,1,0.092099462,0,,,,,,,,,,,,,,,,,,,,,,,,,,,,,,,,,,,,,,,,,,,,,,,,,,,,,,,,,,,,,,,,,,,,,,,,,,,,,,,,
,,600be42e32909325b20ab5f0,2022-09-08_14h07.32.424,CGTgamblingSpanTasks,2022.2.1,Linux x86_64,60.01680471,,,,,,,,2.8126,,,,,,,,,,,,,,2,n,1.1874,0,1,4.3126,1.5,,,,,,28.18900855,0,0.05384276,,,,,,,,,,,,,0,102,102,55,1,0.919081308,0,,,,,,,,,,,,,,,,,,,,,,,,,,,,,,,,,,,,,,,,,,,,,,,,,,,,,,,,,,,,,,,,,,,,,,,,,,,,,,,,
,,600be42e32909325b20ab5f0,2022-09-08_14h07.32.424,CGTgamblingSpanTasks,2022.2.1,Linux x86_64,60.01680471,,,,,,,,3.0053,,,,,,,,,,,,,,1,v,0.9947,8.670591867,1,4.5053,1.5,,,,,,8.670591867,0,1.025847652,,,,,,,,,,,,,0,103,103,18,1,0.452680459,1,,,,,,,,,,,,,,,,,,,,,,,,,,,,,,,,,,,,,,,,,,,,,,,,,,,,,,,,,,,,,,,,,,,,,,,,,,,,,,,,
,,600be42e32909325b20ab5f0,2022-09-08_14h07.32.424,CGTgamblingSpanTasks,2022.2.1,Linux x86_64,60.01680471,,,,,,,,2.9452,,,,,,,,,,,,,,2,n,1.0548,0,1,4.4452,1.5,,,,,,21.16780451,0,2.469465385,,,,,,,,,,,,,0,104,104,32,1,0.456531699,1,,,,,,,,,,,,,,,,,,,,,,,,,,,,,,,,,,,,,,,,,,,,,,,,,,,,,,,,,,,,,,,,,,,,,,,,,,,,,,,,
,,600be42e32909325b20ab5f0,2022-09-08_14h07.32.424,CGTgamblingSpanTasks,2022.2.1,Linux x86_64,60.01680471,,,,,,,,3.026,,,,,,,,,,,,,,1,v,0.974,23.0613391,1,4.526,1.5,,,,,,23.0613391,0,2.387726776,,,,,,,,,,,,,0,105,105,69,1,0.488727763,1,,,,,,,,,,,,,,,,,,,,,,,,,,,,,,,,,,,,,,,,,,,,,,,,,,,,,,,,,,,,,,,,,,,,,,,,,,,,,,,,
,,600be42e32909325b20ab5f0,2022-09-08_14h07.32.424,CGTgamblingSpanTasks,2022.2.1,Linux x86_64,60.01680471,,,,,,,,3.2841,,,,,,,,,,,,,,1,v,0.7159,21.03408097,1,4.2841,1,,,,,,21.03408097,0,2.208275162,,,,,,,,,,,,,0,106,106,0,1,0.485031246,1,,,,,,,,,,,,,,,,,,,,,,,,,,,,,,,,,,,,,,,,,,,,,,,,,,,,,,,,,,,,,,,,,,,,,,,,,,,,,,,,
,,600be42e32909325b20ab5f0,2022-09-08_14h07.32.424,CGTgamblingSpanTasks,2022.2.1,Linux x86_64,60.01680471,,,,,,,,2.6823,,,,,,,,,,,,,,1,v,1.3177,27.4965044,1,3.6823,1,,,,,,27.4965044,0,2.461467004,,,,,,,,,,,,,0,107,107,36,1,0.526550878,1,,,,,,,,,,,,,,,,,,,,,,,,,,,,,,,,,,,,,,,,,,,,,,,,,,,,,,,,,,,,,,,,,,,,,,,,,,,,,,,,
,,600be42e32909325b20ab5f0,2022-09-08_14h07.32.424,CGTgamblingSpanTasks,2022.2.1,Linux x86_64,60.01680471,,,,,,,,2.9608,,,,,,,,,,,,,,2,n,1.0392,18.50662664,1,3.9608,1,,,,,,18.50662664,0,0.052546026,,,,,,,,,,,,,0,108,108,112,1,0.908444837,0,,,,,,,,,,,,,,,,,,,,,,,,,,,,,,,,,,,,,,,,,,,,,,,,,,,,,,,,,,,,,,,,,,,,,,,,,,,,,,,,
,,600be42e32909325b20ab5f0,2022-09-08_14h07.32.424,CGTgamblingSpanTasks,2022.2.1,Linux x86_64,60.01680471,,,,,,,,2.3444,,,,,,,,,,,,,,1,v,1.6556,0,1,3.3444,1,,,,,,25.0707644,0,0.067651625,,,,,,,,,,,,,0,109,109,70,1,0.909952349,0,,,,,,,,,,,,,,,,,,,,,,,,,,,,,,,,,,,,,,,,,,,,,,,,,,,,,,,,,,,,,,,,,,,,,,,,,,,,,,,,
,,600be42e32909325b20ab5f0,2022-09-08_14h07.32.424,CGTgamblingSpanTasks,2022.2.1,Linux x86_64,60.01680471,,,,,,,,2.6243,,,,,,,,,,,,,,1,v,1.3757,27.2532142,1,4.1243,1.5,,,,,,27.2532142,0,0.08089327,,,,,,,,,,,,,0,110,110,119,1,0.907091845,0,,,,,,,,,,,,,,,,,,,,,,,,,,,,,,,,,,,,,,,,,,,,,,,,,,,,,,,,,,,,,,,,,,,,,,,,,,,,,,,,
,,600be42e32909325b20ab5f0,2022-09-08_14h07.32.424,CGTgamblingSpanTasks,2022.2.1,Linux x86_64,60.01680471,,,,,,,,2.9077,,,,,,,,,,,,,,1,v,1.0923,21.17800335,1,3.9077,1,,,,,,21.17800335,0,0.059830985,,,,,,,,,,,,,0,111,111,67,1,0.908594974,0,,,,,,,,,,,,,,,,,,,,,,,,,,,,,,,,,,,,,,,,,,,,,,,,,,,,,,,,,,,,,,,,,,,,,,,,,,,,,,,,
,,600be42e32909325b20ab5f0,2022-09-08_14h07.32.424,CGTgamblingSpanTasks,2022.2.1,Linux x86_64,60.01680471,,,,,,,,3.1897,,,,,,,,,,,,,,1,v,0.8103,0,1,4.6897,1.5,,,,,,22.87092517,0,0.059276504,,,,,,,,,,,,,0,112,112,27,1,0.911114935,0,,,,,,,,,,,,,,,,,,,,,,,,,,,,,,,,,,,,,,,,,,,,,,,,,,,,,,,,,,,,,,,,,,,,,,,,,,,,,,,,
,,600be42e32909325b20ab5f0,2022-09-08_14h07.32.424,CGTgamblingSpanTasks,2022.2.1,Linux x86_64,60.01680471,,,,,,,,3.265,,,,,,,,,,,,,,2,v,0.735,2.32030209,0,4.265,1,,,,,,27.94544945,0,2.32030209,,,,,,,,,,,,,0,113,113,115,1,0.545390564,1,,,,,,,,,,,,,,,,,,,,,,,,,,,,,,,,,,,,,,,,,,,,,,,,,,,,,,,,,,,,,,,,,,,,,,,,,,,,,,,,
,,600be42e32909325b20ab5f0,2022-09-08_14h07.32.424,CGTgamblingSpanTasks,2022.2.1,Linux x86_64,60.01680471,,,,,,,,3.1288,,,,,,,,,,,,,,2,v,0.8712,8.830252162,0,4.1288,1,,,,,,15.73000491,0,8.830252162,,,,,,,,,,,,,0,114,114,95,1,0.084193143,0,,,,,,,,,,,,,,,,,,,,,,,,,,,,,,,,,,,,,,,,,,,,,,,,,,,,,,,,,,,,,,,,,,,,,,,,,,,,,,,,
,,600be42e32909325b20ab5f0,2022-09-08_14h07.32.424,CGTgamblingSpanTasks,2022.2.1,Linux x86_64,60.01680471,,,,,,,,3.2605,,,,,,,,,,,,,,2,n,0.7395,27.76752685,1,4.7605,1.5,,,,,,27.76752685,0,0.083968035,,,,,,,,,,,,,0,115,115,13,1,0.906513967,0,,,,,,,,,,,,,,,,,,,,,,,,,,,,,,,,,,,,,,,,,,,,,,,,,,,,,,,,,,,,,,,,,,,,,,,,,,,,,,,,
,,600be42e32909325b20ab5f0,2022-09-08_14h07.32.424,CGTgamblingSpanTasks,2022.2.1,Linux x86_64,60.01680471,,,,,,,,3.1567,,,,,,,,,,,,,,2,n,0.8433,28.9323758,1,4.6567,1.5,,,,,,28.9323758,0,2.893007023,,,,,,,,,,,,,0,116,116,11,1,0.497943321,1,,,,,,,,,,,,,,,,,,,,,,,,,,,,,,,,,,,,,,,,,,,,,,,,,,,,,,,,,,,,,,,,,,,,,,,,,,,,,,,,
,,600be42e32909325b20ab5f0,2022-09-08_14h07.32.424,CGTgamblingSpanTasks,2022.2.1,Linux x86_64,60.01680471,,,,,,,,3.4763,,,,,,,,,,,,,,2,n,0.5237,0,1,4.4763,1,,,,,,19.68065872,0,1.843597162,,,,,,,,,,,,,0,117,117,80,1,0.514941058,1,,,,,,,,,,,,,,,,,,,,,,,,,,,,,,,,,,,,,,,,,,,,,,,,,,,,,,,,,,,,,,,,,,,,,,,,,,,,,,,,
,,600be42e32909325b20ab5f0,2022-09-08_14h07.32.424,CGTgamblingSpanTasks,2022.2.1,Linux x86_64,60.01680471,,,,,,,,3.3226,,,,,,,,,,,,,,1,v,0.6774,0,1,4.3226,1,,,,,,27.7711693,0,2.320849632,,,,,,,,,,,,,0,118,118,94,1,0.543786368,1,,,,,,,,,,,,,,,,,,,,,,,,,,,,,,,,,,,,,,,,,,,,,,,,,,,,,,,,,,,,,,,,,,,,,,,,,,,,,,,,
,,600be42e32909325b20ab5f0,2022-09-08_14h07.32.424,CGTgamblingSpanTasks,2022.2.1,Linux x86_64,60.01680471,,,,,,,,3.4005,,,,,,,,,,,,,,1,n,0.5995,3.877530383,0,4.9005,1.5,,,,,,3.471484939,0,3.877530383,,,,,,,,,,,,,0,119,119,40,1,0.02623078,0,,,,,,,,,,,,,,,,,,,,,,,,,,,,,,,,,,,,,,,,,,,,,,,,,,,,,,,,,,,,,,,,,,,,,,,,,,,,,,,,
,,600be42e32909325b20ab5f0,2022-09-08_14h07.32.424,CGTgamblingSpanTasks,2022.2.1,Linux x86_64,60.01680471,,,,,,,,,,,,,,,,,,,,,,,,,,,,,,,,,,,,,,,,,,,,,,,,,,,,,,,,return,12.2833,,,,,,,,,,,,,,,,,,,,,,,,,,,,,,,,,,,,,,,,,,,,,,,,,,,,,,,,,,,,,,,,,,,,,,,,,,,,,,
,,600be42e32909325b20ab5f0,2022-09-08_14h07.32.424,CGTgamblingSpanTasks,2022.2.1,Linux x86_64,60.01680471,,,,,,,,,,,,,,,,,,,,,,,,,,,,,,,,,,,,,,,,,,,,,,,,,,,,,,,,,,return,18.5428,,,,,,,,,,,,,,,,,,,,,,,,,,,,,,,,,,,,,,,,,,,,,,,,,,,,,,,,,,,,,,,,,,,,,,,,,,,,
,,600be42e32909325b20ab5f0,2022-09-08_14h07.32.424,CGTgamblingSpanTasks,2022.2.1,Linux x86_64,60.01680471,,,,,,,,,,,,,,,,,,,,,,,,,,,,,,,,,,,,,,,,,,,,,,,,,,,,,,,,,,,,return,4.8558,,,,,,,,,,,,,,,,,,,,,,,,,,,,,,,,,,,,,,,,,,,,,,,,,,,,,,,,,,,,,,,,,,,,,,,,,,
,,600be42e32909325b20ab5f0,2022-09-08_14h07.32.424,CGTgamblingSpanTasks,2022.2.1,Linux x86_64,60.01680471,,,,,,,,,,,,,,,,,,,,,,,,,,,,,,,,,,,,,,,,,,,,,,,,,,,,,,,,,,,,,,,0,0.063662211,-0.389150302,1,0,0,cont_buttonPractice,0,0,0,0,1,3,342,24,2,42,,,,,,,,,,,,,,,,,,,,,,,,,,,,,,,,,,,,,,,,,,,,,,,,,,,,,,,,
,,600be42e32909325b20ab5f0,2022-09-08_14h07.32.424,CGTgamblingSpanTasks,2022.2.1,Linux x86_64,60.01680471,,,,,,,,,,,,,,,,,,,,,,,,,,,,,,,,,,,,,,,,,,,,,,,,,,,,,,,,,,,,,,937,1,0.053734779,-0.39958628,1,0,0,cont_buttonPractice,0,1,1,1,1,3,937,73,2,37,,,,,,,,,,,,,,,,,,,,,,,,,,,,,,,,,,,,,,,,,,,,,,,,,,,,,,,,
,,600be42e32909325b20ab5f0,2022-09-08_14h07.32.424,CGTgamblingSpanTasks,2022.2.1,Linux x86_64,60.01680471,,,,,,,,,,,,,,,,,,,,,,,,,,,,,,,,,,,,,,,,,,,,,,,,,,,,,,,,,,,,,,,,,,,,,,,,,,,,,,,,return,3.219,,,,,,,,,,,,,,,,,,,,,,,,,,,,,,,,,,,,,,,,,,,,,,,,,,,,,,
,,600be42e32909325b20ab5f0,2022-09-08_14h07.32.424,CGTgamblingSpanTasks,2022.2.1,Linux x86_64,60.01680471,,,,,,,,,,,,,,,,,,,,,,,,,,,,,,,,,,,,,,,,,,,,,,,,,,,,,,,,,,,,,,,,,,,,,,,,,,,,,,,,,,"[8,9,2]",0,0,0,0,1,,,,,,,,,,,,,,,,,,,,,,,,,,,,,,,,,,,,,,,,,,,,,,,,
,,600be42e32909325b20ab5f0,2022-09-08_14h07.32.424,CGTgamblingSpanTasks,2022.2.1,Linux x86_64,60.01680471,,,,,,,,,,,,,,,,,,,,,,,,,,,,,,,,,,,,,,,,,,,,,,,,,,,,,,,,,,,,,,,,,,,,,,,,,,,,,,,,,,"[8,9,2]",1,0,1,0,1,,,,,,,,,,,,,,,,,,,,,,,,,,,,,,,,,,,,,,,,,,,,,,,,
,,600be42e32909325b20ab5f0,2022-09-08_14h07.32.424,CGTgamblingSpanTasks,2022.2.1,Linux x86_64,60.01680471,,,,,,,,,,,,,,,,,,,,,,,,,,,,,,,,,,,,,,,,,,,,,,,,,,,,,,,,,,,,,,,,,,,,,,,,,,,,,,,,,,"[8,9,2]",2,0,2,0,1,,,,,,,,,,,,,,,,,,,,,,,,,,,,,,,,,,,,,,,,,,,,,,,,
,,600be42e32909325b20ab5f0,2022-09-08_14h07.32.424,CGTgamblingSpanTasks,2022.2.1,Linux x86_64,60.01680471,,,,,,,,,,,,,,,,,,,,,,,,,,,,,,,,,,,,,,,,,,,,,,,,,,,,,,,,,,,,,,,1,,,,,,,,,,,,,,,,,,,,,,,,,892,-0.017565489,-0.378094594,1,0,0,cont_button,0,0,0,0,1,1,,,,,,,,,,,,,,,,,,,,,,,,,,,,,,,,,,,
,,600be42e32909325b20ab5f0,2022-09-08_14h07.32.424,CGTgamblingSpanTasks,2022.2.1,Linux x86_64,60.01680471,,,,,,,,,,,,,,,,,,,,,,,,,,,,,,,,,,,,,,,,,,,,,,,,,,,,,,,,,,,,,,,,,,,,,,,,,,,,,,,,,,"[8,7,2,3]",0,0,0,0,1,,,,,,,,,,,,,,,,,,,,,,,,,,,,,,,,,,,,,,,,,,,,,,,,
,,600be42e32909325b20ab5f0,2022-09-08_14h07.32.424,CGTgamblingSpanTasks,2022.2.1,Linux x86_64,60.01680471,,,,,,,,,,,,,,,,,,,,,,,,,,,,,,,,,,,,,,,,,,,,,,,,,,,,,,,,,,,,,,,,,,,,,,,,,,,,,,,,,,"[8,7,2,3]",1,0,1,0,1,,,,,,,,,,,,,,,,,,,,,,,,,,,,,,,,,,,,,,,,,,,,,,,,
,,600be42e32909325b20ab5f0,2022-09-08_14h07.32.424,CGTgamblingSpanTasks,2022.2.1,Linux x86_64,60.01680471,,,,,,,,,,,,,,,,,,,,,,,,,,,,,,,,,,,,,,,,,,,,,,,,,,,,,,,,,,,,,,,,,,,,,,,,,,,,,,,,,,"[8,7,2,3]",2,0,2,0,1,,,,,,,,,,,,,,,,,,,,,,,,,,,,,,,,,,,,,,,,,,,,,,,,
,,600be42e32909325b20ab5f0,2022-09-08_14h07.32.424,CGTgamblingSpanTasks,2022.2.1,Linux x86_64,60.01680471,,,,,,,,,,,,,,,,,,,,,,,,,,,,,,,,,,,,,,,,,,,,,,,,,,,,,,,,,,,,,,,,,,,,,,,,,,,,,,,,,,"[8,7,2,3]",3,0,3,0,1,,,,,,,,,,,,,,,,,,,,,,,,,,,,,,,,,,,,,,,,,,,,,,,,
,,600be42e32909325b20ab5f0,2022-09-08_14h07.32.424,CGTgamblingSpanTasks,2022.2.1,Linux x86_64,60.01680471,,,,,,,,,,,,,,,,,,,,,,,,,,,,,,,,,,,,,,,,,,,,,,,,,,,,,,,,,,,,,,,1,,,,,,,,,,,,,,,,,,,,,,,,,8723,0.009797096,-0.4062078,1,0,0,cont_button,0,1,1,1,1,2,,,,,,,,,,,,,,,,,,,,,,,,,,,,,,,,,,,
,,600be42e32909325b20ab5f0,2022-09-08_14h07.32.424,CGTgamblingSpanTasks,2022.2.1,Linux x86_64,60.01680471,,,,,,,,,,,,,,,,,,,,,,,,,,,,,,,,,,,,,,,,,,,,,,,,,,,,,,,,,,,,,,,,,,,,,,,,,,,,,,,,,,"[2,7,8,4,3]",0,0,0,0,1,,,,,,,,,,,,,,,,,,,,,,,,,,,,,,,,,,,,,,,,,,,,,,,,
,,600be42e32909325b20ab5f0,2022-09-08_14h07.32.424,CGTgamblingSpanTasks,2022.2.1,Linux x86_64,60.01680471,,,,,,,,,,,,,,,,,,,,,,,,,,,,,,,,,,,,,,,,,,,,,,,,,,,,,,,,,,,,,,,,,,,,,,,,,,,,,,,,,,"[2,7,8,4,3]",1,0,1,0,1,,,,,,,,,,,,,,,,,,,,,,,,,,,,,,,,,,,,,,,,,,,,,,,,
,,600be42e32909325b20ab5f0,2022-09-08_14h07.32.424,CGTgamblingSpanTasks,2022.2.1,Linux x86_64,60.01680471,,,,,,,,,,,,,,,,,,,,,,,,,,,,,,,,,,,,,,,,,,,,,,,,,,,,,,,,,,,,,,,,,,,,,,,,,,,,,,,,,,"[2,7,8,4,3]",2,0,2,0,1,,,,,,,,,,,,,,,,,,,,,,,,,,,,,,,,,,,,,,,,,,,,,,,,
,,600be42e32909325b20ab5f0,2022-09-08_14h07.32.424,CGTgamblingSpanTasks,2022.2.1,Linux x86_64,60.01680471,,,,,,,,,,,,,,,,,,,,,,,,,,,,,,,,,,,,,,,,,,,,,,,,,,,,,,,,,,,,,,,,,,,,,,,,,,,,,,,,,,"[2,7,8,4,3]",3,0,3,0,1,,,,,,,,,,,,,,,,,,,,,,,,,,,,,,,,,,,,,,,,,,,,,,,,
,,600be42e32909325b20ab5f0,2022-09-08_14h07.32.424,CGTgamblingSpanTasks,2022.2.1,Linux x86_64,60.01680471,,,,,,,,,,,,,,,,,,,,,,,,,,,,,,,,,,,,,,,,,,,,,,,,,,,,,,,,,,,,,,,,,,,,,,,,,,,,,,,,,,"[2,7,8,4,3]",4,0,4,0,1,,,,,,,,,,,,,,,,,,,,,,,,,,,,,,,,,,,,,,,,,,,,,,,,
,,600be42e32909325b20ab5f0,2022-09-08_14h07.32.424,CGTgamblingSpanTasks,2022.2.1,Linux x86_64,60.01680471,,,,,,,,,,,,,,,,,,,,,,,,,,,,,,,,,,,,,,,,,,,,,,,,,,,,,,,,,,,,,,,1,,,,,,,,,,,,,,,,,,,,,,,,,27843,-0.01301686,-0.409704526,1,0,0,cont_button,0,2,2,2,1,3,,,,,,,,,,,,,,,,,,,,,,,,,,,,,,,,,,,
,,600be42e32909325b20ab5f0,2022-09-08_14h07.32.424,CGTgamblingSpanTasks,2022.2.1,Linux x86_64,60.01680471,,,,,,,,,,,,,,,,,,,,,,,,,,,,,,,,,,,,,,,,,,,,,,,,,,,,,,,,,,,,,,,,,,,,,,,,,,,,,,,,,,"[2,8,1,3,7,6]",0,0,0,0,1,,,,,,,,,,,,,,,,,,,,,,,,,,,,,,,,,,,,,,,,,,,,,,,,
,,600be42e32909325b20ab5f0,2022-09-08_14h07.32.424,CGTgamblingSpanTasks,2022.2.1,Linux x86_64,60.01680471,,,,,,,,,,,,,,,,,,,,,,,,,,,,,,,,,,,,,,,,,,,,,,,,,,,,,,,,,,,,,,,,,,,,,,,,,,,,,,,,,,"[2,8,1,3,7,6]",1,0,1,0,1,,,,,,,,,,,,,,,,,,,,,,,,,,,,,,,,,,,,,,,,,,,,,,,,
,,600be42e32909325b20ab5f0,2022-09-08_14h07.32.424,CGTgamblingSpanTasks,2022.2.1,Linux x86_64,60.01680471,,,,,,,,,,,,,,,,,,,,,,,,,,,,,,,,,,,,,,,,,,,,,,,,,,,,,,,,,,,,,,,,,,,,,,,,,,,,,,,,,,"[2,8,1,3,7,6]",2,0,2,0,1,,,,,,,,,,,,,,,,,,,,,,,,,,,,,,,,,,,,,,,,,,,,,,,,
,,600be42e32909325b20ab5f0,2022-09-08_14h07.32.424,CGTgamblingSpanTasks,2022.2.1,Linux x86_64,60.01680471,,,,,,,,,,,,,,,,,,,,,,,,,,,,,,,,,,,,,,,,,,,,,,,,,,,,,,,,,,,,,,,,,,,,,,,,,,,,,,,,,,"[2,8,1,3,7,6]",3,0,3,0,1,,,,,,,,,,,,,,,,,,,,,,,,,,,,,,,,,,,,,,,,,,,,,,,,
,,600be42e32909325b20ab5f0,2022-09-08_14h07.32.424,CGTgamblingSpanTasks,2022.2.1,Linux x86_64,60.01680471,,,,,,,,,,,,,,,,,,,,,,,,,,,,,,,,,,,,,,,,,,,,,,,,,,,,,,,,,,,,,,,,,,,,,,,,,,,,,,,,,,"[2,8,1,3,7,6]",4,0,4,0,1,,,,,,,,,,,,,,,,,,,,,,,,,,,,,,,,,,,,,,,,,,,,,,,,
,,600be42e32909325b20ab5f0,2022-09-08_14h07.32.424,CGTgamblingSpanTasks,2022.2.1,Linux x86_64,60.01680471,,,,,,,,,,,,,,,,,,,,,,,,,,,,,,,,,,,,,,,,,,,,,,,,,,,,,,,,,,,,,,,,,,,,,,,,,,,,,,,,,,"[2,8,1,3,7,6]",5,0,5,0,1,,,,,,,,,,,,,,,,,,,,,,,,,,,,,,,,,,,,,,,,,,,,,,,,
,,600be42e32909325b20ab5f0,2022-09-08_14h07.32.424,CGTgamblingSpanTasks,2022.2.1,Linux x86_64,60.01680471,,,,,,,,,,,,,,,,,,,,,,,,,,,,,,,,,,,,,,,,,,,,,,,,,,,,,,,,,,,,,,,1,,,,,,,,,,,,,,,,,,,,,,,,,281376,0.054593881,-0.376890262,1,0,0,cont_button,0,3,3,3,1,4,,,,,,,,,,,,,,,,,,,,,,,,,,,,,,,,,,,
,,600be42e32909325b20ab5f0,2022-09-08_14h07.32.424,CGTgamblingSpanTasks,2022.2.1,Linux x86_64,60.01680471,,,,,,,,,,,,,,,,,,,,,,,,,,,,,,,,,,,,,,,,,,,,,,,,,,,,,,,,,,,,,,,,,,,,,,,,,,,,,,,,,,"[3,8,4,2,9,6,7]",0,0,0,0,1,,,,,,,,,,,,,,,,,,,,,,,,,,,,,,,,,,,,,,,,,,,,,,,,
,,600be42e32909325b20ab5f0,2022-09-08_14h07.32.424,CGTgamblingSpanTasks,2022.2.1,Linux x86_64,60.01680471,,,,,,,,,,,,,,,,,,,,,,,,,,,,,,,,,,,,,,,,,,,,,,,,,,,,,,,,,,,,,,,,,,,,,,,,,,,,,,,,,,"[3,8,4,2,9,6,7]",1,0,1,0,1,,,,,,,,,,,,,,,,,,,,,,,,,,,,,,,,,,,,,,,,,,,,,,,,
,,600be42e32909325b20ab5f0,2022-09-08_14h07.32.424,CGTgamblingSpanTasks,2022.2.1,Linux x86_64,60.01680471,,,,,,,,,,,,,,,,,,,,,,,,,,,,,,,,,,,,,,,,,,,,,,,,,,,,,,,,,,,,,,,,,,,,,,,,,,,,,,,,,,"[3,8,4,2,9,6,7]",2,0,2,0,1,,,,,,,,,,,,,,,,,,,,,,,,,,,,,,,,,,,,,,,,,,,,,,,,
,,600be42e32909325b20ab5f0,2022-09-08_14h07.32.424,CGTgamblingSpanTasks,2022.2.1,Linux x86_64,60.01680471,,,,,,,,,,,,,,,,,,,,,,,,,,,,,,,,,,,,,,,,,,,,,,,,,,,,,,,,,,,,,,,,,,,,,,,,,,,,,,,,,,"[3,8,4,2,9,6,7]",3,0,3,0,1,,,,,,,,,,,,,,,,,,,,,,,,,,,,,,,,,,,,,,,,,,,,,,,,
,,600be42e32909325b20ab5f0,2022-09-08_14h07.32.424,CGTgamblingSpanTasks,2022.2.1,Linux x86_64,60.01680471,,,,,,,,,,,,,,,,,,,,,,,,,,,,,,,,,,,,,,,,,,,,,,,,,,,,,,,,,,,,,,,,,,,,,,,,,,,,,,,,,,"[3,8,4,2,9,6,7]",4,0,4,0,1,,,,,,,,,,,,,,,,,,,,,,,,,,,,,,,,,,,,,,,,,,,,,,,,
,,600be42e32909325b20ab5f0,2022-09-08_14h07.32.424,CGTgamblingSpanTasks,2022.2.1,Linux x86_64,60.01680471,,,,,,,,,,,,,,,,,,,,,,,,,,,,,,,,,,,,,,,,,,,,,,,,,,,,,,,,,,,,,,,,,,,,,,,,,,,,,,,,,,"[3,8,4,2,9,6,7]",5,0,5,0,1,,,,,,,,,,,,,,,,,,,,,,,,,,,,,,,,,,,,,,,,,,,,,,,,
,,600be42e32909325b20ab5f0,2022-09-08_14h07.32.424,CGTgamblingSpanTasks,2022.2.1,Linux x86_64,60.01680471,,,,,,,,,,,,,,,,,,,,,,,,,,,,,,,,,,,,,,,,,,,,,,,,,,,,,,,,,,,,,,,,,,,,,,,,,,,,,,,,,,"[3,8,4,2,9,6,7]",6,0,6,0,1,,,,,,,,,,,,,,,,,,,,,,,,,,,,,,,,,,,,,,,,,,,,,,,,
,,600be42e32909325b20ab5f0,2022-09-08_14h07.32.424,CGTgamblingSpanTasks,2022.2.1,Linux x86_64,60.01680471,,,,,,,,,,,,,,,,,,,,,,,,,,,,,,,,,,,,,,,,,,,,,,,,,,,,,,,,,,,,,,,1,,,,,,,,,,,,,,,,,,,,,,,,,3842967,0.042484919,-0.399402459,1,0,0,cont_button,0,4,4,4,1,5,,,,,,,,,,,,,,,,,,,,,,,,,,,,,,,,,,,
,,600be42e32909325b20ab5f0,2022-09-08_14h07.32.424,CGTgamblingSpanTasks,2022.2.1,Linux x86_64,60.01680471,,,,,,,,,,,,,,,,,,,,,,,,,,,,,,,,,,,,,,,,,,,,,,,,,,,,,,,,,,,,,,,,,,,,,,,,,,,,,,,,,,"[9,6,2,1,3,7,5,4]",0,0,0,0,1,,,,,,,,,,,,,,,,,,,,,,,,,,,,,,,,,,,,,,,,,,,,,,,,
,,600be42e32909325b20ab5f0,2022-09-08_14h07.32.424,CGTgamblingSpanTasks,2022.2.1,Linux x86_64,60.01680471,,,,,,,,,,,,,,,,,,,,,,,,,,,,,,,,,,,,,,,,,,,,,,,,,,,,,,,,,,,,,,,,,,,,,,,,,,,,,,,,,,"[9,6,2,1,3,7,5,4]",1,0,1,0,1,,,,,,,,,,,,,,,,,,,,,,,,,,,,,,,,,,,,,,,,,,,,,,,,
,,600be42e32909325b20ab5f0,2022-09-08_14h07.32.424,CGTgamblingSpanTasks,2022.2.1,Linux x86_64,60.01680471,,,,,,,,,,,,,,,,,,,,,,,,,,,,,,,,,,,,,,,,,,,,,,,,,,,,,,,,,,,,,,,,,,,,,,,,,,,,,,,,,,"[9,6,2,1,3,7,5,4]",2,0,2,0,1,,,,,,,,,,,,,,,,,,,,,,,,,,,,,,,,,,,,,,,,,,,,,,,,
,,600be42e32909325b20ab5f0,2022-09-08_14h07.32.424,CGTgamblingSpanTasks,2022.2.1,Linux x86_64,60.01680471,,,,,,,,,,,,,,,,,,,,,,,,,,,,,,,,,,,,,,,,,,,,,,,,,,,,,,,,,,,,,,,,,,,,,,,,,,,,,,,,,,"[9,6,2,1,3,7,5,4]",3,0,3,0,1,,,,,,,,,,,,,,,,,,,,,,,,,,,,,,,,,,,,,,,,,,,,,,,,
,,600be42e32909325b20ab5f0,2022-09-08_14h07.32.424,CGTgamblingSpanTasks,2022.2.1,Linux x86_64,60.01680471,,,,,,,,,,,,,,,,,,,,,,,,,,,,,,,,,,,,,,,,,,,,,,,,,,,,,,,,,,,,,,,,,,,,,,,,,,,,,,,,,,"[9,6,2,1,3,7,5,4]",4,0,4,0,1,,,,,,,,,,,,,,,,,,,,,,,,,,,,,,,,,,,,,,,,,,,,,,,,
,,600be42e32909325b20ab5f0,2022-09-08_14h07.32.424,CGTgamblingSpanTasks,2022.2.1,Linux x86_64,60.01680471,,,,,,,,,,,,,,,,,,,,,,,,,,,,,,,,,,,,,,,,,,,,,,,,,,,,,,,,,,,,,,,,,,,,,,,,,,,,,,,,,,"[9,6,2,1,3,7,5,4]",5,0,5,0,1,,,,,,,,,,,,,,,,,,,,,,,,,,,,,,,,,,,,,,,,,,,,,,,,
,,600be42e32909325b20ab5f0,2022-09-08_14h07.32.424,CGTgamblingSpanTasks,2022.2.1,Linux x86_64,60.01680471,,,,,,,,,,,,,,,,,,,,,,,,,,,,,,,,,,,,,,,,,,,,,,,,,,,,,,,,,,,,,,,,,,,,,,,,,,,,,,,,,,"[9,6,2,1,3,7,5,4]",6,0,6,0,1,,,,,,,,,,,,,,,,,,,,,,,,,,,,,,,,,,,,,,,,,,,,,,,,
,,600be42e32909325b20ab5f0,2022-09-08_14h07.32.424,CGTgamblingSpanTasks,2022.2.1,Linux x86_64,60.01680471,,,,,,,,,,,,,,,,,,,,,,,,,,,,,,,,,,,,,,,,,,,,,,,,,,,,,,,,,,,,,,,,,,,,,,,,,,,,,,,,,,"[9,6,2,1,3,7,5,4]",7,0,7,0,1,,,,,,,,,,,,,,,,,,,,,,,,,,,,,,,,,,,,,,,,,,,,,,,,
,,600be42e32909325b20ab5f0,2022-09-08_14h07.32.424,CGTgamblingSpanTasks,2022.2.1,Linux x86_64,60.01680471,,,,,,,,,,,,,,,,,,,,,,,,,,,,,,,,,,,,,,,,,,,,,,,,,,,,,,,,,,,,,,,1,,,,,,,,,,,,,,,,,,,,,,,,,96213754,-0.015159766,-0.417444309,1,0,0,cont_button,0,5,5,5,1,6,,,,,,,,,,,,,,,,,,,,,,,,,,,,,,,,,,,
,,600be42e32909325b20ab5f0,2022-09-08_14h07.32.424,CGTgamblingSpanTasks,2022.2.1,Linux x86_64,60.01680471,,,,,,,,,,,,,,,,,,,,,,,,,,,,,,,,,,,,,,,,,,,,,,,,,,,,,,,,,,,,,,,,,,,,,,,,,,,,,,,,,,"[3,8,9,1,6,4,7,2,5]",0,0,0,0,1,,,,,,,,,,,,,,,,,,,,,,,,,,,,,,,,,,,,,,,,,,,,,,,,
,,600be42e32909325b20ab5f0,2022-09-08_14h07.32.424,CGTgamblingSpanTasks,2022.2.1,Linux x86_64,60.01680471,,,,,,,,,,,,,,,,,,,,,,,,,,,,,,,,,,,,,,,,,,,,,,,,,,,,,,,,,,,,,,,,,,,,,,,,,,,,,,,,,,"[3,8,9,1,6,4,7,2,5]",1,0,1,0,1,,,,,,,,,,,,,,,,,,,,,,,,,,,,,,,,,,,,,,,,,,,,,,,,
,,600be42e32909325b20ab5f0,2022-09-08_14h07.32.424,CGTgamblingSpanTasks,2022.2.1,Linux x86_64,60.01680471,,,,,,,,,,,,,,,,,,,,,,,,,,,,,,,,,,,,,,,,,,,,,,,,,,,,,,,,,,,,,,,,,,,,,,,,,,,,,,,,,,"[3,8,9,1,6,4,7,2,5]",2,0,2,0,1,,,,,,,,,,,,,,,,,,,,,,,,,,,,,,,,,,,,,,,,,,,,,,,,
,,600be42e32909325b20ab5f0,2022-09-08_14h07.32.424,CGTgamblingSpanTasks,2022.2.1,Linux x86_64,60.01680471,,,,,,,,,,,,,,,,,,,,,,,,,,,,,,,,,,,,,,,,,,,,,,,,,,,,,,,,,,,,,,,,,,,,,,,,,,,,,,,,,,"[3,8,9,1,6,4,7,2,5]",3,0,3,0,1,,,,,,,,,,,,,,,,,,,,,,,,,,,,,,,,,,,,,,,,,,,,,,,,
,,600be42e32909325b20ab5f0,2022-09-08_14h07.32.424,CGTgamblingSpanTasks,2022.2.1,Linux x86_64,60.01680471,,,,,,,,,,,,,,,,,,,,,,,,,,,,,,,,,,,,,,,,,,,,,,,,,,,,,,,,,,,,,,,,,,,,,,,,,,,,,,,,,,"[3,8,9,1,6,4,7,2,5]",4,0,4,0,1,,,,,,,,,,,,,,,,,,,,,,,,,,,,,,,,,,,,,,,,,,,,,,,,
,,600be42e32909325b20ab5f0,2022-09-08_14h07.32.424,CGTgamblingSpanTasks,2022.2.1,Linux x86_64,60.01680471,,,,,,,,,,,,,,,,,,,,,,,,,,,,,,,,,,,,,,,,,,,,,,,,,,,,,,,,,,,,,,,,,,,,,,,,,,,,,,,,,,"[3,8,9,1,6,4,7,2,5]",5,0,5,0,1,,,,,,,,,,,,,,,,,,,,,,,,,,,,,,,,,,,,,,,,,,,,,,,,
,,600be42e32909325b20ab5f0,2022-09-08_14h07.32.424,CGTgamblingSpanTasks,2022.2.1,Linux x86_64,60.01680471,,,,,,,,,,,,,,,,,,,,,,,,,,,,,,,,,,,,,,,,,,,,,,,,,,,,,,,,,,,,,,,,,,,,,,,,,,,,,,,,,,"[3,8,9,1,6,4,7,2,5]",6,0,6,0,1,,,,,,,,,,,,,,,,,,,,,,,,,,,,,,,,,,,,,,,,,,,,,,,,
,,600be42e32909325b20ab5f0,2022-09-08_14h07.32.424,CGTgamblingSpanTasks,2022.2.1,Linux x86_64,60.01680471,,,,,,,,,,,,,,,,,,,,,,,,,,,,,,,,,,,,,,,,,,,,,,,,,,,,,,,,,,,,,,,,,,,,,,,,,,,,,,,,,,"[3,8,9,1,6,4,7,2,5]",7,0,7,0,1,,,,,,,,,,,,,,,,,,,,,,,,,,,,,,,,,,,,,,,,,,,,,,,,
,,600be42e32909325b20ab5f0,2022-09-08_14h07.32.424,CGTgamblingSpanTasks,2022.2.1,Linux x86_64,60.01680471,,,,,,,,,,,,,,,,,,,,,,,,,,,,,,,,,,,,,,,,,,,,,,,,,,,,,,,,,,,,,,,,,,,,,,,,,,,,,,,,,,"[3,8,9,1,6,4,7,2,5]",8,0,8,0,1,,,,,,,,,,,,,,,,,,,,,,,,,,,,,,,,,,,,,,,,,,,,,,,,
,,600be42e32909325b20ab5f0,2022-09-08_14h07.32.424,CGTgamblingSpanTasks,2022.2.1,Linux x86_64,60.01680471,,,,,,,,,,,,,,,,,,,,,,,,,,,,,,,,,,,,,,,,,,,,,,,,,,,,,,,,,,,,,,,1,,,,,,,,,,,,,,,,,,,,,,,,,389164725,0.003763199,-0.383895397,1,0,0,cont_button,0,6,6,6,1,7,,,,,,,,,,,,,,,,,,,,,,,,,,,,,,,,,,,
,,600be42e32909325b20ab5f0,2022-09-08_14h07.32.424,CGTgamblingSpanTasks,2022.2.1,Linux x86_64,60.01680471,,,,,,,,,,,,,,,,,,,,,,,,,,,,,,,,,,,,,,,,,,,,,,,,,,,,,,,,,,,,,,,,,,,,,,,,,,,,,,,,,,"[5,2,6,9,1,4,3,8,7,7]",0,0,0,0,1,,,,,,,,,,,,,,,,,,,,,,,,,,,,,,,,,,,,,,,,,,,,,,,,
,,600be42e32909325b20ab5f0,2022-09-08_14h07.32.424,CGTgamblingSpanTasks,2022.2.1,Linux x86_64,60.01680471,,,,,,,,,,,,,,,,,,,,,,,,,,,,,,,,,,,,,,,,,,,,,,,,,,,,,,,,,,,,,,,,,,,,,,,,,,,,,,,,,,"[5,2,6,9,1,4,3,8,7,7]",1,0,1,0,1,,,,,,,,,,,,,,,,,,,,,,,,,,,,,,,,,,,,,,,,,,,,,,,,
,,600be42e32909325b20ab5f0,2022-09-08_14h07.32.424,CGTgamblingSpanTasks,2022.2.1,Linux x86_64,60.01680471,,,,,,,,,,,,,,,,,,,,,,,,,,,,,,,,,,,,,,,,,,,,,,,,,,,,,,,,,,,,,,,,,,,,,,,,,,,,,,,,,,"[5,2,6,9,1,4,3,8,7,7]",2,0,2,0,1,,,,,,,,,,,,,,,,,,,,,,,,,,,,,,,,,,,,,,,,,,,,,,,,
,,600be42e32909325b20ab5f0,2022-09-08_14h07.32.424,CGTgamblingSpanTasks,2022.2.1,Linux x86_64,60.01680471,,,,,,,,,,,,,,,,,,,,,,,,,,,,,,,,,,,,,,,,,,,,,,,,,,,,,,,,,,,,,,,,,,,,,,,,,,,,,,,,,,"[5,2,6,9,1,4,3,8,7,7]",3,0,3,0,1,,,,,,,,,,,,,,,,,,,,,,,,,,,,,,,,,,,,,,,,,,,,,,,,
,,600be42e32909325b20ab5f0,2022-09-08_14h07.32.424,CGTgamblingSpanTasks,2022.2.1,Linux x86_64,60.01680471,,,,,,,,,,,,,,,,,,,,,,,,,,,,,,,,,,,,,,,,,,,,,,,,,,,,,,,,,,,,,,,,,,,,,,,,,,,,,,,,,,"[5,2,6,9,1,4,3,8,7,7]",4,0,4,0,1,,,,,,,,,,,,,,,,,,,,,,,,,,,,,,,,,,,,,,,,,,,,,,,,
,,600be42e32909325b20ab5f0,2022-09-08_14h07.32.424,CGTgamblingSpanTasks,2022.2.1,Linux x86_64,60.01680471,,,,,,,,,,,,,,,,,,,,,,,,,,,,,,,,,,,,,,,,,,,,,,,,,,,,,,,,,,,,,,,,,,,,,,,,,,,,,,,,,,"[5,2,6,9,1,4,3,8,7,7]",5,0,5,0,1,,,,,,,,,,,,,,,,,,,,,,,,,,,,,,,,,,,,,,,,,,,,,,,,
,,600be42e32909325b20ab5f0,2022-09-08_14h07.32.424,CGTgamblingSpanTasks,2022.2.1,Linux x86_64,60.01680471,,,,,,,,,,,,,,,,,,,,,,,,,,,,,,,,,,,,,,,,,,,,,,,,,,,,,,,,,,,,,,,,,,,,,,,,,,,,,,,,,,"[5,2,6,9,1,4,3,8,7,7]",6,0,6,0,1,,,,,,,,,,,,,,,,,,,,,,,,,,,,,,,,,,,,,,,,,,,,,,,,
,,600be42e32909325b20ab5f0,2022-09-08_14h07.32.424,CGTgamblingSpanTasks,2022.2.1,Linux x86_64,60.01680471,,,,,,,,,,,,,,,,,,,,,,,,,,,,,,,,,,,,,,,,,,,,,,,,,,,,,,,,,,,,,,,,,,,,,,,,,,,,,,,,,,"[5,2,6,9,1,4,3,8,7,7]",7,0,7,0,1,,,,,,,,,,,,,,,,,,,,,,,,,,,,,,,,,,,,,,,,,,,,,,,,
,,600be42e32909325b20ab5f0,2022-09-08_14h07.32.424,CGTgamblingSpanTasks,2022.2.1,Linux x86_64,60.01680471,,,,,,,,,,,,,,,,,,,,,,,,,,,,,,,,,,,,,,,,,,,,,,,,,,,,,,,,,,,,,,,,,,,,,,,,,,,,,,,,,,"[5,2,6,9,1,4,3,8,7,7]",8,0,8,0,1,,,,,,,,,,,,,,,,,,,,,,,,,,,,,,,,,,,,,,,,,,,,,,,,
,,600be42e32909325b20ab5f0,2022-09-08_14h07.32.424,CGTgamblingSpanTasks,2022.2.1,Linux x86_64,60.01680471,,,,,,,,,,,,,,,,,,,,,,,,,,,,,,,,,,,,,,,,,,,,,,,,,,,,,,,,,,,,,,,,,,,,,,,,,,,,,,,,,,"[5,2,6,9,1,4,3,8,7,7]",9,0,9,0,1,,,,,,,,,,,,,,,,,,,,,,,,,,,,,,,,,,,,,,,,,,,,,,,,
,,600be42e32909325b20ab5f0,2022-09-08_14h07.32.424,CGTgamblingSpanTasks,2022.2.1,Linux x86_64,60.01680471,,,,,,,,,,,,,,,,,,,,,,,,,,,,,,,,,,,,,,,,,,,,,,,,,,,,,,,,,,,,,,,1,,,,,,,,,,,,,,,,,,,,,,,,,5269143877,-0.024949869,-0.398439169,1,0,0,cont_button,0,7,7,7,1,8,,,,,,,,,,,,,,,,,,,,,,,,,,,,,,,,,,,
,,600be42e32909325b20ab5f0,2022-09-08_14h07.32.424,CGTgamblingSpanTasks,2022.2.1,Linux x86_64,60.01680471,,,,,,,,,,,,,,,,,,,,,,,,,,,,,,,,,,,,,,,,,,,,,,,,,,,,,,,,,,,,,,,,,,,,,,,,,,,,,,,,,,"[4,2,5,1,7,6,8,9,3,3,7]",0,0,0,0,1,,,,,,,,,,,,,,,,,,,,,,,,,,,,,,,,,,,,,,,,,,,,,,,,
,,600be42e32909325b20ab5f0,2022-09-08_14h07.32.424,CGTgamblingSpanTasks,2022.2.1,Linux x86_64,60.01680471,,,,,,,,,,,,,,,,,,,,,,,,,,,,,,,,,,,,,,,,,,,,,,,,,,,,,,,,,,,,,,,,,,,,,,,,,,,,,,,,,,"[4,2,5,1,7,6,8,9,3,3,7]",1,0,1,0,1,,,,,,,,,,,,,,,,,,,,,,,,,,,,,,,,,,,,,,,,,,,,,,,,
,,600be42e32909325b20ab5f0,2022-09-08_14h07.32.424,CGTgamblingSpanTasks,2022.2.1,Linux x86_64,60.01680471,,,,,,,,,,,,,,,,,,,,,,,,,,,,,,,,,,,,,,,,,,,,,,,,,,,,,,,,,,,,,,,,,,,,,,,,,,,,,,,,,,"[4,2,5,1,7,6,8,9,3,3,7]",2,0,2,0,1,,,,,,,,,,,,,,,,,,,,,,,,,,,,,,,,,,,,,,,,,,,,,,,,
,,600be42e32909325b20ab5f0,2022-09-08_14h07.32.424,CGTgamblingSpanTasks,2022.2.1,Linux x86_64,60.01680471,,,,,,,,,,,,,,,,,,,,,,,,,,,,,,,,,,,,,,,,,,,,,,,,,,,,,,,,,,,,,,,,,,,,,,,,,,,,,,,,,,"[4,2,5,1,7,6,8,9,3,3,7]",3,0,3,0,1,,,,,,,,,,,,,,,,,,,,,,,,,,,,,,,,,,,,,,,,,,,,,,,,
,,600be42e32909325b20ab5f0,2022-09-08_14h07.32.424,CGTgamblingSpanTasks,2022.2.1,Linux x86_64,60.01680471,,,,,,,,,,,,,,,,,,,,,,,,,,,,,,,,,,,,,,,,,,,,,,,,,,,,,,,,,,,,,,,,,,,,,,,,,,,,,,,,,,"[4,2,5,1,7,6,8,9,3,3,7]",4,0,4,0,1,,,,,,,,,,,,,,,,,,,,,,,,,,,,,,,,,,,,,,,,,,,,,,,,
,,600be42e32909325b20ab5f0,2022-09-08_14h07.32.424,CGTgamblingSpanTasks,2022.2.1,Linux x86_64,60.01680471,,,,,,,,,,,,,,,,,,,,,,,,,,,,,,,,,,,,,,,,,,,,,,,,,,,,,,,,,,,,,,,,,,,,,,,,,,,,,,,,,,"[4,2,5,1,7,6,8,9,3,3,7]",5,0,5,0,1,,,,,,,,,,,,,,,,,,,,,,,,,,,,,,,,,,,,,,,,,,,,,,,,
,,600be42e32909325b20ab5f0,2022-09-08_14h07.32.424,CGTgamblingSpanTasks,2022.2.1,Linux x86_64,60.01680471,,,,,,,,,,,,,,,,,,,,,,,,,,,,,,,,,,,,,,,,,,,,,,,,,,,,,,,,,,,,,,,,,,,,,,,,,,,,,,,,,,"[4,2,5,1,7,6,8,9,3,3,7]",6,0,6,0,1,,,,,,,,,,,,,,,,,,,,,,,,,,,,,,,,,,,,,,,,,,,,,,,,
,,600be42e32909325b20ab5f0,2022-09-08_14h07.32.424,CGTgamblingSpanTasks,2022.2.1,Linux x86_64,60.01680471,,,,,,,,,,,,,,,,,,,,,,,,,,,,,,,,,,,,,,,,,,,,,,,,,,,,,,,,,,,,,,,,,,,,,,,,,,,,,,,,,,"[4,2,5,1,7,6,8,9,3,3,7]",7,0,7,0,1,,,,,,,,,,,,,,,,,,,,,,,,,,,,,,,,,,,,,,,,,,,,,,,,
,,600be42e32909325b20ab5f0,2022-09-08_14h07.32.424,CGTgamblingSpanTasks,2022.2.1,Linux x86_64,60.01680471,,,,,,,,,,,,,,,,,,,,,,,,,,,,,,,,,,,,,,,,,,,,,,,,,,,,,,,,,,,,,,,,,,,,,,,,,,,,,,,,,,"[4,2,5,1,7,6,8,9,3,3,7]",8,0,8,0,1,,,,,,,,,,,,,,,,,,,,,,,,,,,,,,,,,,,,,,,,,,,,,,,,
,,600be42e32909325b20ab5f0,2022-09-08_14h07.32.424,CGTgamblingSpanTasks,2022.2.1,Linux x86_64,60.01680471,,,,,,,,,,,,,,,,,,,,,,,,,,,,,,,,,,,,,,,,,,,,,,,,,,,,,,,,,,,,,,,,,,,,,,,,,,,,,,,,,,"[4,2,5,1,7,6,8,9,3,3,7]",9,0,9,0,1,,,,,,,,,,,,,,,,,,,,,,,,,,,,,,,,,,,,,,,,,,,,,,,,
,,600be42e32909325b20ab5f0,2022-09-08_14h07.32.424,CGTgamblingSpanTasks,2022.2.1,Linux x86_64,60.01680471,,,,,,,,,,,,,,,,,,,,,,,,,,,,,,,,,,,,,,,,,,,,,,,,,,,,,,,,,,,,,,,,,,,,,,,,,,,,,,,,,,"[4,2,5,1,7,6,8,9,3,3,7]",10,0,10,0,1,,,,,,,,,,,,,,,,,,,,,,,,,,,,,,,,,,,,,,,,,,,,,,,,
,,600be42e32909325b20ab5f0,2022-09-08_14h07.32.424,CGTgamblingSpanTasks,2022.2.1,Linux x86_64,60.01680471,,,,,,,,,,,,,,,,,,,,,,,,,,,,,,,,,,,,,,,,,,,,,,,,,,,,,,,,,,,,,,,0,,,,,,,,,,,,,,,,,,,,,,,,,4215796837,0.024501165,-0.423467716,1,0,0,cont_button,0,8,8,8,1,9,,,,,,,,,,,,,,,,,,,,,,,,,,,,,,,,,,,
,,600be42e32909325b20ab5f0,2022-09-08_14h07.32.424,CGTgamblingSpanTasks,2022.2.1,Linux x86_64,60.01680471,,,,,,,,,,,,,,,,,,,,,,,,,,,,,,,,,,,,,,,,,,,,,,,,,,,,,,,,,,,,,,,,,,,,,,,,,,,,,,,,,,"[5,9,7,2,1,4,3,6,8,8,4]",0,0,0,0,1,,,,,,,,,,,,,,,,,,,,,,,,,,,,,,,,,,,,,,,,,,,,,,,,
,,600be42e32909325b20ab5f0,2022-09-08_14h07.32.424,CGTgamblingSpanTasks,2022.2.1,Linux x86_64,60.01680471,,,,,,,,,,,,,,,,,,,,,,,,,,,,,,,,,,,,,,,,,,,,,,,,,,,,,,,,,,,,,,,,,,,,,,,,,,,,,,,,,,"[5,9,7,2,1,4,3,6,8,8,4]",1,0,1,0,1,,,,,,,,,,,,,,,,,,,,,,,,,,,,,,,,,,,,,,,,,,,,,,,,
,,600be42e32909325b20ab5f0,2022-09-08_14h07.32.424,CGTgamblingSpanTasks,2022.2.1,Linux x86_64,60.01680471,,,,,,,,,,,,,,,,,,,,,,,,,,,,,,,,,,,,,,,,,,,,,,,,,,,,,,,,,,,,,,,,,,,,,,,,,,,,,,,,,,"[5,9,7,2,1,4,3,6,8,8,4]",2,0,2,0,1,,,,,,,,,,,,,,,,,,,,,,,,,,,,,,,,,,,,,,,,,,,,,,,,
,,600be42e32909325b20ab5f0,2022-09-08_14h07.32.424,CGTgamblingSpanTasks,2022.2.1,Linux x86_64,60.01680471,,,,,,,,,,,,,,,,,,,,,,,,,,,,,,,,,,,,,,,,,,,,,,,,,,,,,,,,,,,,,,,,,,,,,,,,,,,,,,,,,,"[5,9,7,2,1,4,3,6,8,8,4]",3,0,3,0,1,,,,,,,,,,,,,,,,,,,,,,,,,,,,,,,,,,,,,,,,,,,,,,,,
,,600be42e32909325b20ab5f0,2022-09-08_14h07.32.424,CGTgamblingSpanTasks,2022.2.1,Linux x86_64,60.01680471,,,,,,,,,,,,,,,,,,,,,,,,,,,,,,,,,,,,,,,,,,,,,,,,,,,,,,,,,,,,,,,,,,,,,,,,,,,,,,,,,,"[5,9,7,2,1,4,3,6,8,8,4]",4,0,4,0,1,,,,,,,,,,,,,,,,,,,,,,,,,,,,,,,,,,,,,,,,,,,,,,,,
,,600be42e32909325b20ab5f0,2022-09-08_14h07.32.424,CGTgamblingSpanTasks,2022.2.1,Linux x86_64,60.01680471,,,,,,,,,,,,,,,,,,,,,,,,,,,,,,,,,,,,,,,,,,,,,,,,,,,,,,,,,,,,,,,,,,,,,,,,,,,,,,,,,,"[5,9,7,2,1,4,3,6,8,8,4]",5,0,5,0,1,,,,,,,,,,,,,,,,,,,,,,,,,,,,,,,,,,,,,,,,,,,,,,,,
,,600be42e32909325b20ab5f0,2022-09-08_14h07.32.424,CGTgamblingSpanTasks,2022.2.1,Linux x86_64,60.01680471,,,,,,,,,,,,,,,,,,,,,,,,,,,,,,,,,,,,,,,,,,,,,,,,,,,,,,,,,,,,,,,,,,,,,,,,,,,,,,,,,,"[5,9,7,2,1,4,3,6,8,8,4]",6,0,6,0,1,,,,,,,,,,,,,,,,,,,,,,,,,,,,,,,,,,,,,,,,,,,,,,,,
,,600be42e32909325b20ab5f0,2022-09-08_14h07.32.424,CGTgamblingSpanTasks,2022.2.1,Linux x86_64,60.01680471,,,,,,,,,,,,,,,,,,,,,,,,,,,,,,,,,,,,,,,,,,,,,,,,,,,,,,,,,,,,,,,,,,,,,,,,,,,,,,,,,,"[5,9,7,2,1,4,3,6,8,8,4]",7,0,7,0,1,,,,,,,,,,,,,,,,,,,,,,,,,,,,,,,,,,,,,,,,,,,,,,,,
,,600be42e32909325b20ab5f0,2022-09-08_14h07.32.424,CGTgamblingSpanTasks,2022.2.1,Linux x86_64,60.01680471,,,,,,,,,,,,,,,,,,,,,,,,,,,,,,,,,,,,,,,,,,,,,,,,,,,,,,,,,,,,,,,,,,,,,,,,,,,,,,,,,,"[5,9,7,2,1,4,3,6,8,8,4]",8,0,8,0,1,,,,,,,,,,,,,,,,,,,,,,,,,,,,,,,,,,,,,,,,,,,,,,,,
,,600be42e32909325b20ab5f0,2022-09-08_14h07.32.424,CGTgamblingSpanTasks,2022.2.1,Linux x86_64,60.01680471,,,,,,,,,,,,,,,,,,,,,,,,,,,,,,,,,,,,,,,,,,,,,,,,,,,,,,,,,,,,,,,,,,,,,,,,,,,,,,,,,,"[5,9,7,2,1,4,3,6,8,8,4]",9,0,9,0,1,,,,,,,,,,,,,,,,,,,,,,,,,,,,,,,,,,,,,,,,,,,,,,,,
,,600be42e32909325b20ab5f0,2022-09-08_14h07.32.424,CGTgamblingSpanTasks,2022.2.1,Linux x86_64,60.01680471,,,,,,,,,,,,,,,,,,,,,,,,,,,,,,,,,,,,,,,,,,,,,,,,,,,,,,,,,,,,,,,,,,,,,,,,,,,,,,,,,,"[5,9,7,2,1,4,3,6,8,8,4]",10,0,10,0,1,,,,,,,,,,,,,,,,,,,,,,,,,,,,,,,,,,,,,,,,,,,,,,,,
,,600be42e32909325b20ab5f0,2022-09-08_14h07.32.424,CGTgamblingSpanTasks,2022.2.1,Linux x86_64,60.01680471,,,,,,,,,,,,,,,,,,,,,,,,,,,,,,,,,,,,,,,,,,,,,,,,,,,,,,,,,,,,,,,0,,,,,,,,,,,,,,,,,,,,,,,,,59721436883,0.047479471,-0.373278062,1,0,0,cont_button,0,9,9,9,1,10,,,,,,,,,,,,,,,,,,,,,,,,,,,,,,,,,,,
,,600be42e32909325b20ab5f0,2022-09-08_14h07.32.424,CGTgamblingSpanTasks,2022.2.1,Linux x86_64,60.01680471,,,,,,,,,,,,,,,,,,,,,,,,,,,,,,,,,,,,,,,,,,,,,,,,,,,,,,,,,,,,,,,,,,,,,,,,,,,,,,,,,,"[1,6,8,4,3,5,2,7,9,9]",0,0,0,0,1,,,,,,,,,,,,,,,,,,,,,,,,,,,,,,,,,,,,,,,,,,,,,,,,
,,600be42e32909325b20ab5f0,2022-09-08_14h07.32.424,CGTgamblingSpanTasks,2022.2.1,Linux x86_64,60.01680471,,,,,,,,,,,,,,,,,,,,,,,,,,,,,,,,,,,,,,,,,,,,,,,,,,,,,,,,,,,,,,,,,,,,,,,,,,,,,,,,,,"[1,6,8,4,3,5,2,7,9,9]",1,0,1,0,1,,,,,,,,,,,,,,,,,,,,,,,,,,,,,,,,,,,,,,,,,,,,,,,,
,,600be42e32909325b20ab5f0,2022-09-08_14h07.32.424,CGTgamblingSpanTasks,2022.2.1,Linux x86_64,60.01680471,,,,,,,,,,,,,,,,,,,,,,,,,,,,,,,,,,,,,,,,,,,,,,,,,,,,,,,,,,,,,,,,,,,,,,,,,,,,,,,,,,"[1,6,8,4,3,5,2,7,9,9]",2,0,2,0,1,,,,,,,,,,,,,,,,,,,,,,,,,,,,,,,,,,,,,,,,,,,,,,,,
,,600be42e32909325b20ab5f0,2022-09-08_14h07.32.424,CGTgamblingSpanTasks,2022.2.1,Linux x86_64,60.01680471,,,,,,,,,,,,,,,,,,,,,,,,,,,,,,,,,,,,,,,,,,,,,,,,,,,,,,,,,,,,,,,,,,,,,,,,,,,,,,,,,,"[1,6,8,4,3,5,2,7,9,9]",3,0,3,0,1,,,,,,,,,,,,,,,,,,,,,,,,,,,,,,,,,,,,,,,,,,,,,,,,
,,600be42e32909325b20ab5f0,2022-09-08_14h07.32.424,CGTgamblingSpanTasks,2022.2.1,Linux x86_64,60.01680471,,,,,,,,,,,,,,,,,,,,,,,,,,,,,,,,,,,,,,,,,,,,,,,,,,,,,,,,,,,,,,,,,,,,,,,,,,,,,,,,,,"[1,6,8,4,3,5,2,7,9,9]",4,0,4,0,1,,,,,,,,,,,,,,,,,,,,,,,,,,,,,,,,,,,,,,,,,,,,,,,,
,,600be42e32909325b20ab5f0,2022-09-08_14h07.32.424,CGTgamblingSpanTasks,2022.2.1,Linux x86_64,60.01680471,,,,,,,,,,,,,,,,,,,,,,,,,,,,,,,,,,,,,,,,,,,,,,,,,,,,,,,,,,,,,,,,,,,,,,,,,,,,,,,,,,"[1,6,8,4,3,5,2,7,9,9]",5,0,5,0,1,,,,,,,,,,,,,,,,,,,,,,,,,,,,,,,,,,,,,,,,,,,,,,,,
,,600be42e32909325b20ab5f0,2022-09-08_14h07.32.424,CGTgamblingSpanTasks,2022.2.1,Linux x86_64,60.01680471,,,,,,,,,,,,,,,,,,,,,,,,,,,,,,,,,,,,,,,,,,,,,,,,,,,,,,,,,,,,,,,,,,,,,,,,,,,,,,,,,,"[1,6,8,4,3,5,2,7,9,9]",6,0,6,0,1,,,,,,,,,,,,,,,,,,,,,,,,,,,,,,,,,,,,,,,,,,,,,,,,
,,600be42e32909325b20ab5f0,2022-09-08_14h07.32.424,CGTgamblingSpanTasks,2022.2.1,Linux x86_64,60.01680471,,,,,,,,,,,,,,,,,,,,,,,,,,,,,,,,,,,,,,,,,,,,,,,,,,,,,,,,,,,,,,,,,,,,,,,,,,,,,,,,,,"[1,6,8,4,3,5,2,7,9,9]",7,0,7,0,1,,,,,,,,,,,,,,,,,,,,,,,,,,,,,,,,,,,,,,,,,,,,,,,,
,,600be42e32909325b20ab5f0,2022-09-08_14h07.32.424,CGTgamblingSpanTasks,2022.2.1,Linux x86_64,60.01680471,,,,,,,,,,,,,,,,,,,,,,,,,,,,,,,,,,,,,,,,,,,,,,,,,,,,,,,,,,,,,,,,,,,,,,,,,,,,,,,,,,"[1,6,8,4,3,5,2,7,9,9]",8,0,8,0,1,,,,,,,,,,,,,,,,,,,,,,,,,,,,,,,,,,,,,,,,,,,,,,,,
,,600be42e32909325b20ab5f0,2022-09-08_14h07.32.424,CGTgamblingSpanTasks,2022.2.1,Linux x86_64,60.01680471,,,,,,,,,,,,,,,,,,,,,,,,,,,,,,,,,,,,,,,,,,,,,,,,,,,,,,,,,,,,,,,,,,,,,,,,,,,,,,,,,,"[1,6,8,4,3,5,2,7,9,9]",9,0,9,0,1,,,,,,,,,,,,,,,,,,,,,,,,,,,,,,,,,,,,,,,,,,,,,,,,
,,600be42e32909325b20ab5f0,2022-09-08_14h07.32.424,CGTgamblingSpanTasks,2022.2.1,Linux x86_64,60.01680471,,,,,,,,,,,,,,,,,,,,,,,,,,,,,,,,,,,,,,,,,,,,,,,,,,,,,,,,,,,,,,,0,,,,,,,,,,,,,,,,,,,,,,,,,1263457998,-0.01732405,-0.372177362,1,0,0,cont_button,0,10,10,10,1,11,,,,,,,,,,,,,,,,,,,,,,,,,,,,,,,,,,,
,,600be42e32909325b20ab5f0,2022-09-08_14h07.32.424,CGTgamblingSpanTasks,2022.2.1,Linux x86_64,60.01680471,,,,,,,,,,,,,,,,,,,,,,,,,,,,,,,,,,,,,,,,,,,,,,,,,,,,,,,,,,,,,,,,,,,,,,,,,,,,,,,,,,"[1,3,7,5,4,6,8,2,9,9]",0,0,0,0,1,,,,,,,,,,,,,,,,,,,,,,,,,,,,,,,,,,,,,,,,,,,,,,,,
,,600be42e32909325b20ab5f0,2022-09-08_14h07.32.424,CGTgamblingSpanTasks,2022.2.1,Linux x86_64,60.01680471,,,,,,,,,,,,,,,,,,,,,,,,,,,,,,,,,,,,,,,,,,,,,,,,,,,,,,,,,,,,,,,,,,,,,,,,,,,,,,,,,,"[1,3,7,5,4,6,8,2,9,9]",1,0,1,0,1,,,,,,,,,,,,,,,,,,,,,,,,,,,,,,,,,,,,,,,,,,,,,,,,
,,600be42e32909325b20ab5f0,2022-09-08_14h07.32.424,CGTgamblingSpanTasks,2022.2.1,Linux x86_64,60.01680471,,,,,,,,,,,,,,,,,,,,,,,,,,,,,,,,,,,,,,,,,,,,,,,,,,,,,,,,,,,,,,,,,,,,,,,,,,,,,,,,,,"[1,3,7,5,4,6,8,2,9,9]",2,0,2,0,1,,,,,,,,,,,,,,,,,,,,,,,,,,,,,,,,,,,,,,,,,,,,,,,,
,,600be42e32909325b20ab5f0,2022-09-08_14h07.32.424,CGTgamblingSpanTasks,2022.2.1,Linux x86_64,60.01680471,,,,,,,,,,,,,,,,,,,,,,,,,,,,,,,,,,,,,,,,,,,,,,,,,,,,,,,,,,,,,,,,,,,,,,,,,,,,,,,,,,"[1,3,7,5,4,6,8,2,9,9]",3,0,3,0,1,,,,,,,,,,,,,,,,,,,,,,,,,,,,,,,,,,,,,,,,,,,,,,,,
,,600be42e32909325b20ab5f0,2022-09-08_14h07.32.424,CGTgamblingSpanTasks,2022.2.1,Linux x86_64,60.01680471,,,,,,,,,,,,,,,,,,,,,,,,,,,,,,,,,,,,,,,,,,,,,,,,,,,,,,,,,,,,,,,,,,,,,,,,,,,,,,,,,,"[1,3,7,5,4,6,8,2,9,9]",4,0,4,0,1,,,,,,,,,,,,,,,,,,,,,,,,,,,,,,,,,,,,,,,,,,,,,,,,
,,600be42e32909325b20ab5f0,2022-09-08_14h07.32.424,CGTgamblingSpanTasks,2022.2.1,Linux x86_64,60.01680471,,,,,,,,,,,,,,,,,,,,,,,,,,,,,,,,,,,,,,,,,,,,,,,,,,,,,,,,,,,,,,,,,,,,,,,,,,,,,,,,,,"[1,3,7,5,4,6,8,2,9,9]",5,0,5,0,1,,,,,,,,,,,,,,,,,,,,,,,,,,,,,,,,,,,,,,,,,,,,,,,,
,,600be42e32909325b20ab5f0,2022-09-08_14h07.32.424,CGTgamblingSpanTasks,2022.2.1,Linux x86_64,60.01680471,,,,,,,,,,,,,,,,,,,,,,,,,,,,,,,,,,,,,,,,,,,,,,,,,,,,,,,,,,,,,,,,,,,,,,,,,,,,,,,,,,"[1,3,7,5,4,6,8,2,9,9]",6,0,6,0,1,,,,,,,,,,,,,,,,,,,,,,,,,,,,,,,,,,,,,,,,,,,,,,,,
,,600be42e32909325b20ab5f0,2022-09-08_14h07.32.424,CGTgamblingSpanTasks,2022.2.1,Linux x86_64,60.01680471,,,,,,,,,,,,,,,,,,,,,,,,,,,,,,,,,,,,,,,,,,,,,,,,,,,,,,,,,,,,,,,,,,,,,,,,,,,,,,,,,,"[1,3,7,5,4,6,8,2,9,9]",7,0,7,0,1,,,,,,,,,,,,,,,,,,,,,,,,,,,,,,,,,,,,,,,,,,,,,,,,
,,600be42e32909325b20ab5f0,2022-09-08_14h07.32.424,CGTgamblingSpanTasks,2022.2.1,Linux x86_64,60.01680471,,,,,,,,,,,,,,,,,,,,,,,,,,,,,,,,,,,,,,,,,,,,,,,,,,,,,,,,,,,,,,,,,,,,,,,,,,,,,,,,,,"[1,3,7,5,4,6,8,2,9,9]",8,0,8,0,1,,,,,,,,,,,,,,,,,,,,,,,,,,,,,,,,,,,,,,,,,,,,,,,,
,,600be42e32909325b20ab5f0,2022-09-08_14h07.32.424,CGTgamblingSpanTasks,2022.2.1,Linux x86_64,60.01680471,,,,,,,,,,,,,,,,,,,,,,,,,,,,,,,,,,,,,,,,,,,,,,,,,,,,,,,,,,,,,,,,,,,,,,,,,,,,,,,,,,"[1,3,7,5,4,6,8,2,9,9]",9,0,9,0,1,,,,,,,,,,,,,,,,,,,,,,,,,,,,,,,,,,,,,,,,,,,,,,,,
,,600be42e32909325b20ab5f0,2022-09-08_14h07.32.424,CGTgamblingSpanTasks,2022.2.1,Linux x86_64,60.01680471,,,,,,,,,,,,,,,,,,,,,,,,,,,,,,,,,,,,,,,,,,,,,,,,,,,,,,,,,,,,,,,0,,,,,,,,,,,,,,,,,,,,,,,,,13756489237,0.060531696,-0.381714582,1,0,0,cont_button,0,11,11,11,1,12,,,,,,,,,,,,,,,,,,,,,,,,,,,,,,,,,,,
,,600be42e32909325b20ab5f0,2022-09-08_14h07.32.424,CGTgamblingSpanTasks,2022.2.1,Linux x86_64,60.01680471,,,,,,,,,,,,,,,,,,,,,,,,,,,,,,,,,,,,,,,,,,,,,,,,,,,,,,,,,,,,,,,,,,,,,,,,,,,,,,,,,,"[4,3,5,8,6,1,7,2,9]",0,0,0,0,1,,,,,,,,,,,,,,,,,,,,,,,,,,,,,,,,,,,,,,,,,,,,,,,,
,,600be42e32909325b20ab5f0,2022-09-08_14h07.32.424,CGTgamblingSpanTasks,2022.2.1,Linux x86_64,60.01680471,,,,,,,,,,,,,,,,,,,,,,,,,,,,,,,,,,,,,,,,,,,,,,,,,,,,,,,,,,,,,,,,,,,,,,,,,,,,,,,,,,"[4,3,5,8,6,1,7,2,9]",1,0,1,0,1,,,,,,,,,,,,,,,,,,,,,,,,,,,,,,,,,,,,,,,,,,,,,,,,
,,600be42e32909325b20ab5f0,2022-09-08_14h07.32.424,CGTgamblingSpanTasks,2022.2.1,Linux x86_64,60.01680471,,,,,,,,,,,,,,,,,,,,,,,,,,,,,,,,,,,,,,,,,,,,,,,,,,,,,,,,,,,,,,,,,,,,,,,,,,,,,,,,,,"[4,3,5,8,6,1,7,2,9]",2,0,2,0,1,,,,,,,,,,,,,,,,,,,,,,,,,,,,,,,,,,,,,,,,,,,,,,,,
,,600be42e32909325b20ab5f0,2022-09-08_14h07.32.424,CGTgamblingSpanTasks,2022.2.1,Linux x86_64,60.01680471,,,,,,,,,,,,,,,,,,,,,,,,,,,,,,,,,,,,,,,,,,,,,,,,,,,,,,,,,,,,,,,,,,,,,,,,,,,,,,,,,,"[4,3,5,8,6,1,7,2,9]",3,0,3,0,1,,,,,,,,,,,,,,,,,,,,,,,,,,,,,,,,,,,,,,,,,,,,,,,,
,,600be42e32909325b20ab5f0,2022-09-08_14h07.32.424,CGTgamblingSpanTasks,2022.2.1,Linux x86_64,60.01680471,,,,,,,,,,,,,,,,,,,,,,,,,,,,,,,,,,,,,,,,,,,,,,,,,,,,,,,,,,,,,,,,,,,,,,,,,,,,,,,,,,"[4,3,5,8,6,1,7,2,9]",4,0,4,0,1,,,,,,,,,,,,,,,,,,,,,,,,,,,,,,,,,,,,,,,,,,,,,,,,
,,600be42e32909325b20ab5f0,2022-09-08_14h07.32.424,CGTgamblingSpanTasks,2022.2.1,Linux x86_64,60.01680471,,,,,,,,,,,,,,,,,,,,,,,,,,,,,,,,,,,,,,,,,,,,,,,,,,,,,,,,,,,,,,,,,,,,,,,,,,,,,,,,,,"[4,3,5,8,6,1,7,2,9]",5,0,5,0,1,,,,,,,,,,,,,,,,,,,,,,,,,,,,,,,,,,,,,,,,,,,,,,,,
,,600be42e32909325b20ab5f0,2022-09-08_14h07.32.424,CGTgamblingSpanTasks,2022.2.1,Linux x86_64,60.01680471,,,,,,,,,,,,,,,,,,,,,,,,,,,,,,,,,,,,,,,,,,,,,,,,,,,,,,,,,,,,,,,,,,,,,,,,,,,,,,,,,,"[4,3,5,8,6,1,7,2,9]",6,0,6,0,1,,,,,,,,,,,,,,,,,,,,,,,,,,,,,,,,,,,,,,,,,,,,,,,,
,,600be42e32909325b20ab5f0,2022-09-08_14h07.32.424,CGTgamblingSpanTasks,2022.2.1,Linux x86_64,60.01680471,,,,,,,,,,,,,,,,,,,,,,,,,,,,,,,,,,,,,,,,,,,,,,,,,,,,,,,,,,,,,,,,,,,,,,,,,,,,,,,,,,"[4,3,5,8,6,1,7,2,9]",7,0,7,0,1,,,,,,,,,,,,,,,,,,,,,,,,,,,,,,,,,,,,,,,,,,,,,,,,
,,600be42e32909325b20ab5f0,2022-09-08_14h07.32.424,CGTgamblingSpanTasks,2022.2.1,Linux x86_64,60.01680471,,,,,,,,,,,,,,,,,,,,,,,,,,,,,,,,,,,,,,,,,,,,,,,,,,,,,,,,,,,,,,,,,,,,,,,,,,,,,,,,,,"[4,3,5,8,6,1,7,2,9]",8,0,8,0,1,,,,,,,,,,,,,,,,,,,,,,,,,,,,,,,,,,,,,,,,,,,,,,,,
,,600be42e32909325b20ab5f0,2022-09-08_14h07.32.424,CGTgamblingSpanTasks,2022.2.1,Linux x86_64,60.01680471,,,,,,,,,,,,,,,,,,,,,,,,,,,,,,,,,,,,,,,,,,,,,,,,,,,,,,,,,,,,,,,1,,,,,,,,,,,,,,,,,,,,,,,,,435861729,0.064618667,-0.41895024,1,0,0,cont_button,0,12,12,12,1,13,,,,,,,,,,,,,,,,,,,,,,,,,,,,,,,,,,,
,,600be42e32909325b20ab5f0,2022-09-08_14h07.32.424,CGTgamblingSpanTasks,2022.2.1,Linux x86_64,60.01680471,,,,,,,,,,,,,,,,,,,,,,,,,,,,,,,,,,,,,,,,,,,,,,,,,,,,,,,,,,,,,,,,,,,,,,,,,,,,,,,,,,"[6,8,9,7,3,1,5,4,2,2]",0,0,0,0,1,,,,,,,,,,,,,,,,,,,,,,,,,,,,,,,,,,,,,,,,,,,,,,,,
,,600be42e32909325b20ab5f0,2022-09-08_14h07.32.424,CGTgamblingSpanTasks,2022.2.1,Linux x86_64,60.01680471,,,,,,,,,,,,,,,,,,,,,,,,,,,,,,,,,,,,,,,,,,,,,,,,,,,,,,,,,,,,,,,,,,,,,,,,,,,,,,,,,,"[6,8,9,7,3,1,5,4,2,2]",1,0,1,0,1,,,,,,,,,,,,,,,,,,,,,,,,,,,,,,,,,,,,,,,,,,,,,,,,
,,600be42e32909325b20ab5f0,2022-09-08_14h07.32.424,CGTgamblingSpanTasks,2022.2.1,Linux x86_64,60.01680471,,,,,,,,,,,,,,,,,,,,,,,,,,,,,,,,,,,,,,,,,,,,,,,,,,,,,,,,,,,,,,,,,,,,,,,,,,,,,,,,,,"[6,8,9,7,3,1,5,4,2,2]",2,0,2,0,1,,,,,,,,,,,,,,,,,,,,,,,,,,,,,,,,,,,,,,,,,,,,,,,,
,,600be42e32909325b20ab5f0,2022-09-08_14h07.32.424,CGTgamblingSpanTasks,2022.2.1,Linux x86_64,60.01680471,,,,,,,,,,,,,,,,,,,,,,,,,,,,,,,,,,,,,,,,,,,,,,,,,,,,,,,,,,,,,,,,,,,,,,,,,,,,,,,,,,"[6,8,9,7,3,1,5,4,2,2]",3,0,3,0,1,,,,,,,,,,,,,,,,,,,,,,,,,,,,,,,,,,,,,,,,,,,,,,,,
,,600be42e32909325b20ab5f0,2022-09-08_14h07.32.424,CGTgamblingSpanTasks,2022.2.1,Linux x86_64,60.01680471,,,,,,,,,,,,,,,,,,,,,,,,,,,,,,,,,,,,,,,,,,,,,,,,,,,,,,,,,,,,,,,,,,,,,,,,,,,,,,,,,,"[6,8,9,7,3,1,5,4,2,2]",4,0,4,0,1,,,,,,,,,,,,,,,,,,,,,,,,,,,,,,,,,,,,,,,,,,,,,,,,
,,600be42e32909325b20ab5f0,2022-09-08_14h07.32.424,CGTgamblingSpanTasks,2022.2.1,Linux x86_64,60.01680471,,,,,,,,,,,,,,,,,,,,,,,,,,,,,,,,,,,,,,,,,,,,,,,,,,,,,,,,,,,,,,,,,,,,,,,,,,,,,,,,,,"[6,8,9,7,3,1,5,4,2,2]",5,0,5,0,1,,,,,,,,,,,,,,,,,,,,,,,,,,,,,,,,,,,,,,,,,,,,,,,,
,,600be42e32909325b20ab5f0,2022-09-08_14h07.32.424,CGTgamblingSpanTasks,2022.2.1,Linux x86_64,60.01680471,,,,,,,,,,,,,,,,,,,,,,,,,,,,,,,,,,,,,,,,,,,,,,,,,,,,,,,,,,,,,,,,,,,,,,,,,,,,,,,,,,"[6,8,9,7,3,1,5,4,2,2]",6,0,6,0,1,,,,,,,,,,,,,,,,,,,,,,,,,,,,,,,,,,,,,,,,,,,,,,,,
,,600be42e32909325b20ab5f0,2022-09-08_14h07.32.424,CGTgamblingSpanTasks,2022.2.1,Linux x86_64,60.01680471,,,,,,,,,,,,,,,,,,,,,,,,,,,,,,,,,,,,,,,,,,,,,,,,,,,,,,,,,,,,,,,,,,,,,,,,,,,,,,,,,,"[6,8,9,7,3,1,5,4,2,2]",7,0,7,0,1,,,,,,,,,,,,,,,,,,,,,,,,,,,,,,,,,,,,,,,,,,,,,,,,
,,600be42e32909325b20ab5f0,2022-09-08_14h07.32.424,CGTgamblingSpanTasks,2022.2.1,Linux x86_64,60.01680471,,,,,,,,,,,,,,,,,,,,,,,,,,,,,,,,,,,,,,,,,,,,,,,,,,,,,,,,,,,,,,,,,,,,,,,,,,,,,,,,,,"[6,8,9,7,3,1,5,4,2,2]",8,0,8,0,1,,,,,,,,,,,,,,,,,,,,,,,,,,,,,,,,,,,,,,,,,,,,,,,,
,,600be42e32909325b20ab5f0,2022-09-08_14h07.32.424,CGTgamblingSpanTasks,2022.2.1,Linux x86_64,60.01680471,,,,,,,,,,,,,,,,,,,,,,,,,,,,,,,,,,,,,,,,,,,,,,,,,,,,,,,,,,,,,,,,,,,,,,,,,,,,,,,,,,"[6,8,9,7,3,1,5,4,2,2]",9,0,9,0,1,,,,,,,,,,,,,,,,,,,,,,,,,,,,,,,,,,,,,,,,,,,,,,,,
,,600be42e32909325b20ab5f0,2022-09-08_14h07.32.424,CGTgamblingSpanTasks,2022.2.1,Linux x86_64,60.01680471,,,,,,,,,,,,,,,,,,,,,,,,,,,,,,,,,,,,,,,,,,,,,,,,,,,,,,,,,,,,,,,0,,,,,,,,,,,,,,,,,,,,,,,,,6879315422,0.073491017,-0.395162423,1,0,0,cont_button,0,13,13,13,1,14,,,,,,,,,,,,,,,,,,,,,,,,,,,,,,,,,,,
,,600be42e32909325b20ab5f0,2022-09-08_14h07.32.424,CGTgamblingSpanTasks,2022.2.1,Linux x86_64,60.01680471,,,,,,,,,,,,,,,,,,,,,,,,,,,,,,,,,,,,,,,,,,,,,,,,,,,,,,,,,,,,,,,,,,,,,,,,,,,,,,,,,,,,,,,,,,,,,,,,,,,,,return,2.3644,,,,,,,,,,,,,,,,,,,,,,,,,,,,,,,,,
,,600be42e32909325b20ab5f0,2022-09-08_14h07.32.424,CGTgamblingSpanTasks,2022.2.1,Linux x86_64,60.01680471,,,,,,,,,,,,,,,,,,,,,,,,,,,,,,,,,,,,,,,,,,,,,,,,,,,,,,,,,,,,,,,,,,,,,,,,,,,,,,,,,,,,,,,,,,,,,,,,,,,,,,,return,14.7098,,,,,,,,,,,,,,,,,,,,,,,,,,,,,,,
,,600be42e32909325b20ab5f0,2022-09-08_14h07.32.424,CGTgamblingSpanTasks,2022.2.1,Linux x86_64,60.01680471,,,,,,,,,,,,,,,,,,,,,,,,,,,,,,,,,,,,,,,,,,,,,,,,,,,,,,,,,,,,,,,1,,,,,,,,,,,,3,342,24,2,42,,,,,,,,,,,,,,,,,,,,,,,,,,42,0.066823244,-0.39812096,1,0,0,cont_buttonPractice_2,0,0,0,0,1,,,,,,,,,,,,,,,,,,,
,,600be42e32909325b20ab5f0,2022-09-08_14h07.32.424,CGTgamblingSpanTasks,2022.2.1,Linux x86_64,60.01680471,,,,,,,,,,,,,,,,,,,,,,,,,,,,,,,,,,,,,,,,,,,,,,,,,,,,,,,,,,,,,,,1,,,,,,,,,,,,3,937,73,2,37,,,,,,,,,,,,,,,,,,,,,,,,,,37,0.042789539,-0.430545886,1,0,0,cont_buttonPractice_2,0,1,1,1,1,,,,,,,,,,,,,,,,,,,
,,600be42e32909325b20ab5f0,2022-09-08_14h07.32.424,CGTgamblingSpanTasks,2022.2.1,Linux x86_64,60.01680471,,,,,,,,,,,,,,,,,,,,,,,,,,,,,,,,,,,,,,,,,,,,,,,,,,,,,,,,,,,,,,,,,,,,,,,,,,,,,,,,,,,,,,,,,,,,,,,,,,,,,,,,,,,,,,,,,,,,,return,1.3311,,,,,,,,,,,,,,,,,
,,600be42e32909325b20ab5f0,2022-09-08_14h07.32.424,CGTgamblingSpanTasks,2022.2.1,Linux x86_64,60.01680471,,,,,,,,,,,,,,,,,,,,,,,,,,,,,,,,,,,,,,,,,,,,,,,,,,,,,,,,,,,,,,,,,,,,,,,,,,,,,,,,,,"[9,3]",,,,,,,,,,,,,,,,,,,,,,,,,,,,,,,,,,,,,0,0,0,0,1,,,,,,,,,,,,
,,600be42e32909325b20ab5f0,2022-09-08_14h07.32.424,CGTgamblingSpanTasks,2022.2.1,Linux x86_64,60.01680471,,,,,,,,,,,,,,,,,,,,,,,,,,,,,,,,,,,,,,,,,,,,,,,,,,,,,,,,,,,,,,,,,,,,,,,,,,,,,,,,,,"[9,3]",,,,,,,,,,,,,,,,,,,,,,,,,,,,,,,,,,,,,1,0,1,0,1,,,,,,,,,,,,
,,600be42e32909325b20ab5f0,2022-09-08_14h07.32.424,CGTgamblingSpanTasks,2022.2.1,Linux x86_64,60.01680471,,,,,,,,,,,,,,,,,,,,,,,,,,,,,,,,,,,,,,,,,,,,,,,,,,,,,,,,,,,,,,,1,,,,,,,,,,,,,,,,,,,,,,,,,,,,,,,,,,,,,1,,,,,,,,,,,,,,,,,,,,,,,,39,0.042789539,-0.427542766,1,0,0,cont_buttonBS,0,0,0,0,1
,,600be42e32909325b20ab5f0,2022-09-08_14h07.32.424,CGTgamblingSpanTasks,2022.2.1,Linux x86_64,60.01680471,,,,,,,,,,,,,,,,,,,,,,,,,,,,,,,,,,,,,,,,,,,,,,,,,,,,,,,,,,,,,,,,,,,,,,,,,,,,,,,,,,"[2,6,9]",,,,,,,,,,,,,,,,,,,,,,,,,,,,,,,,,,,,,0,0,0,0,1,,,,,,,,,,,,
,,600be42e32909325b20ab5f0,2022-09-08_14h07.32.424,CGTgamblingSpanTasks,2022.2.1,Linux x86_64,60.01680471,,,,,,,,,,,,,,,,,,,,,,,,,,,,,,,,,,,,,,,,,,,,,,,,,,,,,,,,,,,,,,,,,,,,,,,,,,,,,,,,,,"[2,6,9]",,,,,,,,,,,,,,,,,,,,,,,,,,,,,,,,,,,,,1,0,1,0,1,,,,,,,,,,,,
,,600be42e32909325b20ab5f0,2022-09-08_14h07.32.424,CGTgamblingSpanTasks,2022.2.1,Linux x86_64,60.01680471,,,,,,,,,,,,,,,,,,,,,,,,,,,,,,,,,,,,,,,,,,,,,,,,,,,,,,,,,,,,,,,,,,,,,,,,,,,,,,,,,,"[2,6,9]",,,,,,,,,,,,,,,,,,,,,,,,,,,,,,,,,,,,,2,0,2,0,1,,,,,,,,,,,,
,,600be42e32909325b20ab5f0,2022-09-08_14h07.32.424,CGTgamblingSpanTasks,2022.2.1,Linux x86_64,60.01680471,,,,,,,,,,,,,,,,,,,,,,,,,,,,,,,,,,,,,,,,,,,,,,,,,,,,,,,,,,,,,,,1,,,,,,,,,,,,,,,,,,,,,,,,,,,,,,,,,,,,,2,,,,,,,,,,,,,,,,,,,,,,,,962,0.042789539,-0.427542766,1,0,0,cont_buttonBS,0,1,1,1,1
,,600be42e32909325b20ab5f0,2022-09-08_14h07.32.424,CGTgamblingSpanTasks,2022.2.1,Linux x86_64,60.01680471,,,,,,,,,,,,,,,,,,,,,,,,,,,,,,,,,,,,,,,,,,,,,,,,,,,,,,,,,,,,,,,,,,,,,,,,,,,,,,,,,,"[6,2,8,3]",,,,,,,,,,,,,,,,,,,,,,,,,,,,,,,,,,,,,0,0,0,0,1,,,,,,,,,,,,
,,600be42e32909325b20ab5f0,2022-09-08_14h07.32.424,CGTgamblingSpanTasks,2022.2.1,Linux x86_64,60.01680471,,,,,,,,,,,,,,,,,,,,,,,,,,,,,,,,,,,,,,,,,,,,,,,,,,,,,,,,,,,,,,,,,,,,,,,,,,,,,,,,,,"[6,2,8,3]",,,,,,,,,,,,,,,,,,,,,,,,,,,,,,,,,,,,,1,0,1,0,1,,,,,,,,,,,,
,,600be42e32909325b20ab5f0,2022-09-08_14h07.32.424,CGTgamblingSpanTasks,2022.2.1,Linux x86_64,60.01680471,,,,,,,,,,,,,,,,,,,,,,,,,,,,,,,,,,,,,,,,,,,,,,,,,,,,,,,,,,,,,,,,,,,,,,,,,,,,,,,,,,"[6,2,8,3]",,,,,,,,,,,,,,,,,,,,,,,,,,,,,,,,,,,,,2,0,2,0,1,,,,,,,,,,,,
,,600be42e32909325b20ab5f0,2022-09-08_14h07.32.424,CGTgamblingSpanTasks,2022.2.1,Linux x86_64,60.01680471,,,,,,,,,,,,,,,,,,,,,,,,,,,,,,,,,,,,,,,,,,,,,,,,,,,,,,,,,,,,,,,,,,,,,,,,,,,,,,,,,,"[6,2,8,3]",,,,,,,,,,,,,,,,,,,,,,,,,,,,,,,,,,,,,3,0,3,0,1,,,,,,,,,,,,
,,600be42e32909325b20ab5f0,2022-09-08_14h07.32.424,CGTgamblingSpanTasks,2022.2.1,Linux x86_64,60.01680471,,,,,,,,,,,,,,,,,,,,,,,,,,,,,,,,,,,,,,,,,,,,,,,,,,,,,,,,,,,,,,,1,,,,,,,,,,,,,,,,,,,,,,,,,,,,,,,,,,,,,3,,,,,,,,,,,,,,,,,,,,,,,,3826,0.004307111,-0.409435113,1,0,0,cont_buttonBS,0,2,2,2,1
,,600be42e32909325b20ab5f0,2022-09-08_14h07.32.424,CGTgamblingSpanTasks,2022.2.1,Linux x86_64,60.01680471,,,,,,,,,,,,,,,,,,,,,,,,,,,,,,,,,,,,,,,,,,,,,,,,,,,,,,,,,,,,,,,,,,,,,,,,,,,,,,,,,,"[9,5,3,4,6]",,,,,,,,,,,,,,,,,,,,,,,,,,,,,,,,,,,,,0,0,0,0,1,,,,,,,,,,,,
,,600be42e32909325b20ab5f0,2022-09-08_14h07.32.424,CGTgamblingSpanTasks,2022.2.1,Linux x86_64,60.01680471,,,,,,,,,,,,,,,,,,,,,,,,,,,,,,,,,,,,,,,,,,,,,,,,,,,,,,,,,,,,,,,,,,,,,,,,,,,,,,,,,,"[9,5,3,4,6]",,,,,,,,,,,,,,,,,,,,,,,,,,,,,,,,,,,,,1,0,1,0,1,,,,,,,,,,,,
,,600be42e32909325b20ab5f0,2022-09-08_14h07.32.424,CGTgamblingSpanTasks,2022.2.1,Linux x86_64,60.01680471,,,,,,,,,,,,,,,,,,,,,,,,,,,,,,,,,,,,,,,,,,,,,,,,,,,,,,,,,,,,,,,,,,,,,,,,,,,,,,,,,,"[9,5,3,4,6]",,,,,,,,,,,,,,,,,,,,,,,,,,,,,,,,,,,,,2,0,2,0,1,,,,,,,,,,,,
,,600be42e32909325b20ab5f0,2022-09-08_14h07.32.424,CGTgamblingSpanTasks,2022.2.1,Linux x86_64,60.01680471,,,,,,,,,,,,,,,,,,,,,,,,,,,,,,,,,,,,,,,,,,,,,,,,,,,,,,,,,,,,,,,,,,,,,,,,,,,,,,,,,,"[9,5,3,4,6]",,,,,,,,,,,,,,,,,,,,,,,,,,,,,,,,,,,,,3,0,3,0,1,,,,,,,,,,,,
,,600be42e32909325b20ab5f0,2022-09-08_14h07.32.424,CGTgamblingSpanTasks,2022.2.1,Linux x86_64,60.01680471,,,,,,,,,,,,,,,,,,,,,,,,,,,,,,,,,,,,,,,,,,,,,,,,,,,,,,,,,,,,,,,,,,,,,,,,,,,,,,,,,,"[9,5,3,4,6]",,,,,,,,,,,,,,,,,,,,,,,,,,,,,,,,,,,,,4,0,4,0,1,,,,,,,,,,,,
