initITIstatic,initITIdynamic,participant,date,expName,psychopyVersion,OS,frameRate,inst1.keys,inst1.rt,startPracResp.keys,startPracResp.rt,choice1.keys,choice1.rt,outcome,extraITI,trials.thisRepN,trials.thisTrialN,trials.thisN,trials.thisIndex,trials.ran,riskyGain,riskyLoss,alternative,isi,iti,loc,postPractResp.keys,postPractResp.rt,realloc,realChoice.keys,realChoice.rt,outcomes,choices,actualITI,init ITI,staticRDM.thisRepN,staticRDM.thisTrialN,staticRDM.thisN,staticRDM.thisIndex,staticRDM.ran,riskyoption1,riskyoption2,safeoption,ischecktrial,dynamicChoiceSetName,dynamicChoiceSetPath,bestRho,bestMu,trials_2.thisRepN,trials_2.thisTrialN,trials_2.thisN,trials_2.thisIndex,trials_2.ran,key_resp.keys,key_resp.rt,dynamicRDM.thisRepN,dynamicRDM.thisTrialN,dynamicRDM.thisN,dynamicRDM.thisIndex,dynamicRDM.ran,choiceP,easy0difficult1,stopBreak.keys,stopBreak.rt,movealong.keys,movealong.rt,startPractice.keys,startPractice.rt,textboxPractice.text,correct,mousePractice.x,mousePractice.y,mousePractice.leftButton,mousePractice.midButton,mousePractice.rightButton,mousePractice.clicked_name,trialFSPractice.thisRepN,trialFSPractice.thisTrialN,trialFSPractice.thisN,trialFSPractice.thisIndex,trialFSPractice.ran,digitSpanForward,digits,digitsReverse,digitSpanReverse,digitsReverseCorrAnswer,startFSreal.keys,startFSreal.rt,digitsForTrial,digitLoop.thisRepN,digitLoop.thisTrialN,digitLoop.thisN,digitLoop.thisIndex,digitLoop.ran,textbox.text,mouse_3.x,mouse_3.y,mouse_3.leftButton,mouse_3.midButton,mouse_3.rightButton,mouse_3.clicked_name,trialsFS.thisRepN,trialsFS.thisTrialN,trialsFS.thisN,trialsFS.thisIndex,trialsFS.ran,trialNumber,moveToBS.keys,moveToBS.rt,startBSprac.keys,startBSprac.rt,textboxPractice_2.text,mousePractice_2.x,mousePractice_2.y,mousePractice_2.leftButton,mousePractice_2.midButton,mousePractice_2.rightButton,mousePractice_2.clicked_name,trialsPracticeBS.thisRepN,trialsPracticeBS.thisTrialN,trialsPracticeBS.thisN,trialsPracticeBS.thisIndex,trialsPracticeBS.ran,startBSreal.keys,startBSreal.rt,digitLoopBS.thisRepN,digitLoopBS.thisTrialN,digitLoopBS.thisN,digitLoopBS.thisIndex,digitLoopBS.ran,textboxBS.text,mouseBS.x,mouseBS.y,mouseBS.leftButton,mouseBS.midButton,mouseBS.rightButton,mouseBS.clicked_name,trialsBS.thisRepN,trialsBS.thisTrialN,trialsBS.thisN,trialsBS.thisIndex,trialsBS.ran
"[1.5,1.5,1,1.5,1,1,1.5,1.5,1,1,1.5,1.5,1.5,1.5,1,1,1.5,1.5,1.5,1,1.5,1,1.5,1,1.5,1,1,1,1,1,1,1,1.5,1,1,1.5,1.5,1.5,1,1.5,1.5,1.5,1,1.5,1.5,1.5,1,1,1,1]","[1.5,1,1,1.5,1,1.5,1,1,1.5,1,1,1.5,1.5,1.5,1.5,1,1,1.5,1,1.5,1,1.5,1,1.5,1.5,1.5,1,1.5,1.5,1,1,1.5,1.5,1.5,1,1,1,1.5,1.5,1.5,1,1,1,1,1.5,1.5,1.5,1,1,1,1.5,1.5,1.5,1.5,1,1,1,1.5,1,1.5,1.5,1.5,1.5,1,1.5,1.5,1,1.5,1,1.5,1,1.5,1,1.5,1.5,1,1.5,1,1.5,1,1,1.5,1.5,1,1,1.5,1,1,1,1,1.5,1,1.5,1.5,1.5,1.5,1,1,1,1,1.5,1.5,1,1.5,1.5,1,1,1,1,1.5,1,1,1,1.5,1.5,1,1,1,1.5,1.5]",62a75b7789c411b352595f2e,2022-09-08_13h19.03.526,CGTgamblingSpanTasks,2022.2.1,Win32,60.0276127,,,,,,,,,,,,,,,,,,,,,,,,,,,,,,,,,,,,,,,,,,,,,,,,,,,,,,,,,,,,,,,,,,,,,,,,,,,,,,,,,,,,,,,,,,,,,,,,,,,,,,,,,,,,,,,,,,,,,,,,,,,,,,,,,,,,,,,
,,62a75b7789c411b352595f2e,2022-09-08_13h19.03.526,CGTgamblingSpanTasks,2022.2.1,Win32,60.0276127,return,4.5945,,,,,,,,,,,,,,,,,,,,,,,,,,,,,,,,,,,,,,,,,,,,,,,,,,,,,,,,,,,,,,,,,,,,,,,,,,,,,,,,,,,,,,,,,,,,,,,,,,,,,,,,,,,,,,,,,,,,,,,,,,,,,,,,,,,,,
,,62a75b7789c411b352595f2e,2022-09-08_13h19.03.526,CGTgamblingSpanTasks,2022.2.1,Win32,60.0276127,,,v,0.7159,,,,,,,,,,,,,,,,,,,,,,,,,,,,,,,,,,,,,,,,,,,,,,,,,,,,,,,,,,,,,,,,,,,,,,,,,,,,,,,,,,,,,,,,,,,,,,,,,,,,,,,,,,,,,,,,,,,,,,,,,,,,,,,,,,,
,,62a75b7789c411b352595f2e,2022-09-08_13h19.03.526,CGTgamblingSpanTasks,2022.2.1,Win32,60.0276127,,,,,n,2.4386,9.45,1.5614,0,0,0,0,1,18.23,0,9.45,2,1,1,,,,,,,,,,,,,,,,,,,,,,,,,,,,,,,,,,,,,,,,,,,,,,,,,,,,,,,,,,,,,,,,,,,,,,,,,,,,,,,,,,,,,,,,,,,,,,,,,,,,,,,,,,,,,,,,,,,,
,,62a75b7789c411b352595f2e,2022-09-08_13h19.03.526,CGTgamblingSpanTasks,2022.2.1,Win32,60.0276127,,,,,n,1.6381,35.16,2.3619,0,1,1,1,1,53.27,0,35.16,1,1.5,1,,,,,,,,,,,,,,,,,,,,,,,,,,,,,,,,,,,,,,,,,,,,,,,,,,,,,,,,,,,,,,,,,,,,,,,,,,,,,,,,,,,,,,,,,,,,,,,,,,,,,,,,,,,,,,,,,,,,
,,62a75b7789c411b352595f2e,2022-09-08_13h19.03.526,CGTgamblingSpanTasks,2022.2.1,Win32,60.0276127,,,,,n,1.4492,8.27,2.5508,0,2,2,2,1,8.27,0,1.15,1,1.5,2,,,,,,,,,,,,,,,,,,,,,,,,,,,,,,,,,,,,,,,,,,,,,,,,,,,,,,,,,,,,,,,,,,,,,,,,,,,,,,,,,,,,,,,,,,,,,,,,,,,,,,,,,,,,,,,,,,,,
,,62a75b7789c411b352595f2e,2022-09-08_13h19.03.526,CGTgamblingSpanTasks,2022.2.1,Win32,60.0276127,,,,,n,1.2191,40.41,2.7809,0,3,3,3,1,45.88,0,40.41,3,1,1,,,,,,,,,,,,,,,,,,,,,,,,,,,,,,,,,,,,,,,,,,,,,,,,,,,,,,,,,,,,,,,,,,,,,,,,,,,,,,,,,,,,,,,,,,,,,,,,,,,,,,,,,,,,,,,,,,,,
,,62a75b7789c411b352595f2e,2022-09-08_13h19.03.526,CGTgamblingSpanTasks,2022.2.1,Win32,60.0276127,,,,,n,1.5736,0,2.4264,0,4,4,4,1,21.56,0,11.96,1,1.5,2,,,,,,,,,,,,,,,,,,,,,,,,,,,,,,,,,,,,,,,,,,,,,,,,,,,,,,,,,,,,,,,,,,,,,,,,,,,,,,,,,,,,,,,,,,,,,,,,,,,,,,,,,,,,,,,,,,,,
,,62a75b7789c411b352595f2e,2022-09-08_13h19.03.526,CGTgamblingSpanTasks,2022.2.1,Win32,60.0276127,,,,,,,,,,,,,,,,,,,,v,2.0983,,,,,,,,,,,,,,,,,,,,,,,,,,,,,,,,,,,,,,,,,,,,,,,,,,,,,,,,,,,,,,,,,,,,,,,,,,,,,,,,,,,,,,,,,,,,,,,,,,,,,,,,,,,,,,,,,,
,,62a75b7789c411b352595f2e,2022-09-08_13h19.03.526,CGTgamblingSpanTasks,2022.2.1,Win32,60.0276127,,,,,,,,2.7097,,,,,,,,,,,,,,2,v,1.2903,6.73,0,4.2097,1.5,0,0,0,32,1,10.55,0,6.73,0,,,,,,,,,,,,,,,,,,,,,,,,,,,,,,,,,,,,,,,,,,,,,,,,,,,,,,,,,,,,,,,,,,,,,,,,,,,,,,,,,,,,,,,,,,,,,,,,,,
,,62a75b7789c411b352595f2e,2022-09-08_13h19.03.526,CGTgamblingSpanTasks,2022.2.1,Win32,60.0276127,,,,,,,,2.86,,,,,,,,,,,,,,1,v,1.14,0,1,4.36,1.5,0,1,1,10,1,13.45,0,5.27,0,,,,,,,,,,,,,,,,,,,,,,,,,,,,,,,,,,,,,,,,,,,,,,,,,,,,,,,,,,,,,,,,,,,,,,,,,,,,,,,,,,,,,,,,,,,,,,,,,,
,,62a75b7789c411b352595f2e,2022-09-08_13h19.03.526,CGTgamblingSpanTasks,2022.2.1,Win32,60.0276127,,,,,,,,2.8815,,,,,,,,,,,,,,2,n,1.1185,11.84,1,3.8815,1,0,2,2,20,1,11.84,0,6.08,0,,,,,,,,,,,,,,,,,,,,,,,,,,,,,,,,,,,,,,,,,,,,,,,,,,,,,,,,,,,,,,,,,,,,,,,,,,,,,,,,,,,,,,,,,,,,,,,,,,
,,62a75b7789c411b352595f2e,2022-09-08_13h19.03.526,CGTgamblingSpanTasks,2022.2.1,Win32,60.0276127,,,,,,,,3.0235,,,,,,,,,,,,,,1,v,0.9765,19.86,1,4.5235,1.5,0,3,3,42,1,19.86,0,0,1,,,,,,,,,,,,,,,,,,,,,,,,,,,,,,,,,,,,,,,,,,,,,,,,,,,,,,,,,,,,,,,,,,,,,,,,,,,,,,,,,,,,,,,,,,,,,,,,,,
,,62a75b7789c411b352595f2e,2022-09-08_13h19.03.526,CGTgamblingSpanTasks,2022.2.1,Win32,60.0276127,,,,,,,,2.7631,,,,,,,,,,,,,,1,n,1.2369,10.46,0,3.7631,1,0,4,4,39,1,15.09,0,10.46,0,,,,,,,,,,,,,,,,,,,,,,,,,,,,,,,,,,,,,,,,,,,,,,,,,,,,,,,,,,,,,,,,,,,,,,,,,,,,,,,,,,,,,,,,,,,,,,,,,,
,,62a75b7789c411b352595f2e,2022-09-08_13h19.03.526,CGTgamblingSpanTasks,2022.2.1,Win32,60.0276127,,,,,,,,2.8931,,,,,,,,,,,,,,1,n,1.1069,9.92,0,3.8931,1,0,5,5,49,1,6.79,0,9.92,1,,,,,,,,,,,,,,,,,,,,,,,,,,,,,,,,,,,,,,,,,,,,,,,,,,,,,,,,,,,,,,,,,,,,,,,,,,,,,,,,,,,,,,,,,,,,,,,,,,
,,62a75b7789c411b352595f2e,2022-09-08_13h19.03.526,CGTgamblingSpanTasks,2022.2.1,Win32,60.0276127,,,,,,,,2.9532,,,,,,,,,,,,,,2,v,1.0468,3.13,0,4.4532,1.5,0,6,6,47,1,0,0,3.13,1,,,,,,,,,,,,,,,,,,,,,,,,,,,,,,,,,,,,,,,,,,,,,,,,,,,,,,,,,,,,,,,,,,,,,,,,,,,,,,,,,,,,,,,,,,,,,,,,,,
,,62a75b7789c411b352595f2e,2022-09-08_13h19.03.526,CGTgamblingSpanTasks,2022.2.1,Win32,60.0276127,,,,,,,,2.8672,,,,,,,,,,,,,,1,v,1.1328,13.94,1,4.3672,1.5,0,7,7,8,1,13.94,0,5.03,0,,,,,,,,,,,,,,,,,,,,,,,,,,,,,,,,,,,,,,,,,,,,,,,,,,,,,,,,,,,,,,,,,,,,,,,,,,,,,,,,,,,,,,,,,,,,,,,,,,
,,62a75b7789c411b352595f2e,2022-09-08_13h19.03.526,CGTgamblingSpanTasks,2022.2.1,Win32,60.0276127,,,,,,,,3.1071,,,,,,,,,,,,,,1,v,0.8929,0,1,4.1071,1,0,8,8,23,1,17.28,0,9.36,0,,,,,,,,,,,,,,,,,,,,,,,,,,,,,,,,,,,,,,,,,,,,,,,,,,,,,,,,,,,,,,,,,,,,,,,,,,,,,,,,,,,,,,,,,,,,,,,,,,
,,62a75b7789c411b352595f2e,2022-09-08_13h19.03.526,CGTgamblingSpanTasks,2022.2.1,Win32,60.0276127,,,,,,,,2.7599,,,,,,,,,,,,,,2,v,1.2401,10.02,0,3.7599,1,0,9,9,31,1,15.96,0,10.02,0,,,,,,,,,,,,,,,,,,,,,,,,,,,,,,,,,,,,,,,,,,,,,,,,,,,,,,,,,,,,,,,,,,,,,,,,,,,,,,,,,,,,,,,,,,,,,,,,,,
,,62a75b7789c411b352595f2e,2022-09-08_13h19.03.526,CGTgamblingSpanTasks,2022.2.1,Win32,60.0276127,,,,,,,,2.9382,,,,,,,,,,,,,,1,v,1.0618,11.2,1,4.4382,1.5,0,10,10,26,1,11.2,0,6.4,0,,,,,,,,,,,,,,,,,,,,,,,,,,,,,,,,,,,,,,,,,,,,,,,,,,,,,,,,,,,,,,,,,,,,,,,,,,,,,,,,,,,,,,,,,,,,,,,,,,
,,62a75b7789c411b352595f2e,2022-09-08_13h19.03.526,CGTgamblingSpanTasks,2022.2.1,Win32,60.0276127,,,,,,,,2.825,,,,,,,,,,,,,,1,n,1.175,9.5,0,4.325,1.5,0,11,11,25,1,17,0,9.5,0,,,,,,,,,,,,,,,,,,,,,,,,,,,,,,,,,,,,,,,,,,,,,,,,,,,,,,,,,,,,,,,,,,,,,,,,,,,,,,,,,,,,,,,,,,,,,,,,,,
,,62a75b7789c411b352595f2e,2022-09-08_13h19.03.526,CGTgamblingSpanTasks,2022.2.1,Win32,60.0276127,,,,,,,,2.761,,,,,,,,,,,,,,2,v,1.239,6.94,0,4.261,1.5,0,12,12,38,1,10.12,0,6.94,0,,,,,,,,,,,,,,,,,,,,,,,,,,,,,,,,,,,,,,,,,,,,,,,,,,,,,,,,,,,,,,,,,,,,,,,,,,,,,,,,,,,,,,,,,,,,,,,,,,
,,62a75b7789c411b352595f2e,2022-09-08_13h19.03.526,CGTgamblingSpanTasks,2022.2.1,Win32,60.0276127,,,,,,,,3.1778,,,,,,,,,,,,,,2,n,0.8222,0,1,4.6778,1.5,0,13,13,5,1,22.97,0,6.51,0,,,,,,,,,,,,,,,,,,,,,,,,,,,,,,,,,,,,,,,,,,,,,,,,,,,,,,,,,,,,,,,,,,,,,,,,,,,,,,,,,,,,,,,,,,,,,,,,,,
,,62a75b7789c411b352595f2e,2022-09-08_13h19.03.526,CGTgamblingSpanTasks,2022.2.1,Win32,60.0276127,,,,,,,,3.0747,,,,,,,,,,,,,,2,v,0.9253,6.53,0,4.0747,1,0,14,14,28,1,10.95,0,6.53,0,,,,,,,,,,,,,,,,,,,,,,,,,,,,,,,,,,,,,,,,,,,,,,,,,,,,,,,,,,,,,,,,,,,,,,,,,,,,,,,,,,,,,,,,,,,,,,,,,,
,,62a75b7789c411b352595f2e,2022-09-08_13h19.03.526,CGTgamblingSpanTasks,2022.2.1,Win32,60.0276127,,,,,,,,2.8916,,,,,,,,,,,,,,1,v,1.1084,0,1,3.8916,1,0,15,15,19,1,17.94,0,9.03,0,,,,,,,,,,,,,,,,,,,,,,,,,,,,,,,,,,,,,,,,,,,,,,,,,,,,,,,,,,,,,,,,,,,,,,,,,,,,,,,,,,,,,,,,,,,,,,,,,,
,,62a75b7789c411b352595f2e,2022-09-08_13h19.03.526,CGTgamblingSpanTasks,2022.2.1,Win32,60.0276127,,,,,,,,2.8431,,,,,,,,,,,,,,1,n,1.1569,10.27,0,4.3431,1.5,0,16,16,35,1,15.47,0,10.27,0,,,,,,,,,,,,,,,,,,,,,,,,,,,,,,,,,,,,,,,,,,,,,,,,,,,,,,,,,,,,,,,,,,,,,,,,,,,,,,,,,,,,,,,,,,,,,,,,,,
,,62a75b7789c411b352595f2e,2022-09-08_13h19.03.526,CGTgamblingSpanTasks,2022.2.1,Win32,60.0276127,,,,,,,,2.8746,,,,,,,,,,,,,,1,v,1.1254,16.6,1,4.3746,1.5,0,17,17,27,1,16.6,0,9.7,0,,,,,,,,,,,,,,,,,,,,,,,,,,,,,,,,,,,,,,,,,,,,,,,,,,,,,,,,,,,,,,,,,,,,,,,,,,,,,,,,,,,,,,,,,,,,,,,,,,
,,62a75b7789c411b352595f2e,2022-09-08_13h19.03.526,CGTgamblingSpanTasks,2022.2.1,Win32,60.0276127,,,,,,,,2.8864,,,,,,,,,,,,,,1,v,1.1136,14.72,1,4.3864,1.5,0,18,18,6,1,14.72,0,4.64,0,,,,,,,,,,,,,,,,,,,,,,,,,,,,,,,,,,,,,,,,,,,,,,,,,,,,,,,,,,,,,,,,,,,,,,,,,,,,,,,,,,,,,,,,,,,,,,,,,,
,,62a75b7789c411b352595f2e,2022-09-08_13h19.03.526,CGTgamblingSpanTasks,2022.2.1,Win32,60.0276127,,,,,,,,3.2062,,,,,,,,,,,,,,2,n,0.7938,0,1,4.2062,1,0,19,19,15,1,18.77,0,8.61,0,,,,,,,,,,,,,,,,,,,,,,,,,,,,,,,,,,,,,,,,,,,,,,,,,,,,,,,,,,,,,,,,,,,,,,,,,,,,,,,,,,,,,,,,,,,,,,,,,,
,,62a75b7789c411b352595f2e,2022-09-08_13h19.03.526,CGTgamblingSpanTasks,2022.2.1,Win32,60.0276127,,,,,,,,2.9213,,,,,,,,,,,,,,2,n,1.0787,6.99,1,4.4213,1.5,0,20,20,43,1,16.11,6.99,6.99,1,,,,,,,,,,,,,,,,,,,,,,,,,,,,,,,,,,,,,,,,,,,,,,,,,,,,,,,,,,,,,,,,,,,,,,,,,,,,,,,,,,,,,,,,,,,,,,,,,,
,,62a75b7789c411b352595f2e,2022-09-08_13h19.03.526,CGTgamblingSpanTasks,2022.2.1,Win32,60.0276127,,,,,,,,3.1636,,,,,,,,,,,,,,2,n,0.8364,0,1,4.1636,1,0,21,21,11,1,19.86,0,8.07,0,,,,,,,,,,,,,,,,,,,,,,,,,,,,,,,,,,,,,,,,,,,,,,,,,,,,,,,,,,,,,,,,,,,,,,,,,,,,,,,,,,,,,,,,,,,,,,,,,,
,,62a75b7789c411b352595f2e,2022-09-08_13h19.03.526,CGTgamblingSpanTasks,2022.2.1,Win32,60.0276127,,,,,,,,2.8219,,,,,,,,,,,,,,2,n,1.1781,11.62,1,4.3219,1.5,0,22,22,22,1,11.62,0,6.19,0,,,,,,,,,,,,,,,,,,,,,,,,,,,,,,,,,,,,,,,,,,,,,,,,,,,,,,,,,,,,,,,,,,,,,,,,,,,,,,,,,,,,,,,,,,,,,,,,,,
,,62a75b7789c411b352595f2e,2022-09-08_13h19.03.526,CGTgamblingSpanTasks,2022.2.1,Win32,60.0276127,,,,,,,,3.2579,,,,,,,,,,,,,,1,v,0.7421,0,1,4.2579,1,0,23,23,18,1,12.08,0,5.96,0,,,,,,,,,,,,,,,,,,,,,,,,,,,,,,,,,,,,,,,,,,,,,,,,,,,,,,,,,,,,,,,,,,,,,,,,,,,,,,,,,,,,,,,,,,,,,,,,,,
,,62a75b7789c411b352595f2e,2022-09-08_13h19.03.526,CGTgamblingSpanTasks,2022.2.1,Win32,60.0276127,,,,,,,,3.3428,,,,,,,,,,,,,,1,v,0.6572,0,1,4.8428,1.5,0,24,24,0,1,20.03,0,1.99,0,,,,,,,,,,,,,,,,,,,,,,,,,,,,,,,,,,,,,,,,,,,,,,,,,,,,,,,,,,,,,,,,,,,,,,,,,,,,,,,,,,,,,,,,,,,,,,,,,,
,,62a75b7789c411b352595f2e,2022-09-08_13h19.03.526,CGTgamblingSpanTasks,2022.2.1,Win32,60.0276127,,,,,,,,3.0104,,,,,,,,,,,,,,2,n,0.9896,0,1,4.0104,1,0,25,25,17,1,18.33,0,8.84,0,,,,,,,,,,,,,,,,,,,,,,,,,,,,,,,,,,,,,,,,,,,,,,,,,,,,,,,,,,,,,,,,,,,,,,,,,,,,,,,,,,,,,,,,,,,,,,,,,,
,,62a75b7789c411b352595f2e,2022-09-08_13h19.03.526,CGTgamblingSpanTasks,2022.2.1,Win32,60.0276127,,,,,,,,3.2368,,,,,,,,,,,,,,2,n,0.7632,17.73,1,4.2368,1,0,26,26,2,1,17.73,0,3.13,0,,,,,,,,,,,,,,,,,,,,,,,,,,,,,,,,,,,,,,,,,,,,,,,,,,,,,,,,,,,,,,,,,,,,,,,,,,,,,,,,,,,,,,,,,,,,,,,,,,
,,62a75b7789c411b352595f2e,2022-09-08_13h19.03.526,CGTgamblingSpanTasks,2022.2.1,Win32,60.0276127,,,,,,,,3.0752,,,,,,,,,,,,,,1,n,0.9248,7.55,0,4.0752,1,0,27,27,45,1,0,0,7.55,1,,,,,,,,,,,,,,,,,,,,,,,,,,,,,,,,,,,,,,,,,,,,,,,,,,,,,,,,,,,,,,,,,,,,,,,,,,,,,,,,,,,,,,,,,,,,,,,,,,
,,62a75b7789c411b352595f2e,2022-09-08_13h19.03.526,CGTgamblingSpanTasks,2022.2.1,Win32,60.0276127,,,,,,,,3.1255,,,,,,,,,,,,,,1,n,0.8745,10.68,0,4.1255,1,0,28,28,48,1,10.68,0,10.68,1,,,,,,,,,,,,,,,,,,,,,,,,,,,,,,,,,,,,,,,,,,,,,,,,,,,,,,,,,,,,,,,,,,,,,,,,,,,,,,,,,,,,,,,,,,,,,,,,,,
,,62a75b7789c411b352595f2e,2022-09-08_13h19.03.526,CGTgamblingSpanTasks,2022.2.1,Win32,60.0276127,,,,,,,,3.2096,,,,,,,,,,,,,,1,n,0.7904,10.25,0,4.2096,1,0,29,29,46,1,0,0,10.25,1,,,,,,,,,,,,,,,,,,,,,,,,,,,,,,,,,,,,,,,,,,,,,,,,,,,,,,,,,,,,,,,,,,,,,,,,,,,,,,,,,,,,,,,,,,,,,,,,,,
,,62a75b7789c411b352595f2e,2022-09-08_13h19.03.526,CGTgamblingSpanTasks,2022.2.1,Win32,60.0276127,,,,,,,,3.0614,,,,,,,,,,,,,,1,v,0.9386,28.21,1,4.0614,1,0,30,30,1,1,28.21,0,3.89,0,,,,,,,,,,,,,,,,,,,,,,,,,,,,,,,,,,,,,,,,,,,,,,,,,,,,,,,,,,,,,,,,,,,,,,,,,,,,,,,,,,,,,,,,,,,,,,,,,,
,,62a75b7789c411b352595f2e,2022-09-08_13h19.03.526,CGTgamblingSpanTasks,2022.2.1,Win32,60.0276127,,,,,,,,2.9873,,,,,,,,,,,,,,2,n,1.0127,7.73,1,3.9873,1,0,31,31,44,1,13.1,7.73,4.68,1,,,,,,,,,,,,,,,,,,,,,,,,,,,,,,,,,,,,,,,,,,,,,,,,,,,,,,,,,,,,,,,,,,,,,,,,,,,,,,,,,,,,,,,,,,,,,,,,,,
,,62a75b7789c411b352595f2e,2022-09-08_13h19.03.526,CGTgamblingSpanTasks,2022.2.1,Win32,60.0276127,,,,,,,,2.781,,,,,,,,,,,,,,2,n,1.219,19.28,1,4.281,1.5,0,32,32,13,1,19.28,0,8.36,0,,,,,,,,,,,,,,,,,,,,,,,,,,,,,,,,,,,,,,,,,,,,,,,,,,,,,,,,,,,,,,,,,,,,,,,,,,,,,,,,,,,,,,,,,,,,,,,,,,
,,62a75b7789c411b352595f2e,2022-09-08_13h19.03.526,CGTgamblingSpanTasks,2022.2.1,Win32,60.0276127,,,,,,,,3.2923,,,,,,,,,,,,,,2,n,0.7077,0,1,4.2923,1,0,33,33,12,1,13.04,0,5.48,0,,,,,,,,,,,,,,,,,,,,,,,,,,,,,,,,,,,,,,,,,,,,,,,,,,,,,,,,,,,,,,,,,,,,,,,,,,,,,,,,,,,,,,,,,,,,,,,,,,
,,62a75b7789c411b352595f2e,2022-09-08_13h19.03.526,CGTgamblingSpanTasks,2022.2.1,Win32,60.0276127,,,,,,,,3.1122,,,,,,,,,,,,,,2,n,0.8878,0,1,4.1122,1,0,34,34,33,1,15.7,0,10.15,0,,,,,,,,,,,,,,,,,,,,,,,,,,,,,,,,,,,,,,,,,,,,,,,,,,,,,,,,,,,,,,,,,,,,,,,,,,,,,,,,,,,,,,,,,,,,,,,,,,
,,62a75b7789c411b352595f2e,2022-09-08_13h19.03.526,CGTgamblingSpanTasks,2022.2.1,Win32,60.0276127,,,,,,,,2.8154,,,,,,,,,,,,,,1,v,1.1846,10.39,1,4.3154,1.5,0,35,35,34,1,10.39,0,6.81,0,,,,,,,,,,,,,,,,,,,,,,,,,,,,,,,,,,,,,,,,,,,,,,,,,,,,,,,,,,,,,,,,,,,,,,,,,,,,,,,,,,,,,,,,,,,,,,,,,,
,,62a75b7789c411b352595f2e,2022-09-08_13h19.03.526,CGTgamblingSpanTasks,2022.2.1,Win32,60.0276127,,,,,,,,3.1469,,,,,,,,,,,,,,1,v,0.8531,0,1,4.6469,1.5,0,36,36,41,1,14.26,0,0,1,,,,,,,,,,,,,,,,,,,,,,,,,,,,,,,,,,,,,,,,,,,,,,,,,,,,,,,,,,,,,,,,,,,,,,,,,,,,,,,,,,,,,,,,,,,,,,,,,,
,,62a75b7789c411b352595f2e,2022-09-08_13h19.03.526,CGTgamblingSpanTasks,2022.2.1,Win32,60.0276127,,,,,,,,2.6779,,,,,,,,,,,,,,1,n,1.3221,6.63,0,4.1779,1.5,0,37,37,30,1,10.73,0,6.63,0,,,,,,,,,,,,,,,,,,,,,,,,,,,,,,,,,,,,,,,,,,,,,,,,,,,,,,,,,,,,,,,,,,,,,,,,,,,,,,,,,,,,,,,,,,,,,,,,,,
,,62a75b7789c411b352595f2e,2022-09-08_13h19.03.526,CGTgamblingSpanTasks,2022.2.1,Win32,60.0276127,,,,,,,,2.3386,,,,,,,,,,,,,,2,n,1.6614,12.36,1,3.3386,1,0,38,38,16,1,12.36,0,5.82,0,,,,,,,,,,,,,,,,,,,,,,,,,,,,,,,,,,,,,,,,,,,,,,,,,,,,,,,,,,,,,,,,,,,,,,,,,,,,,,,,,,,,,,,,,,,,,,,,,,
,,62a75b7789c411b352595f2e,2022-09-08_13h19.03.526,CGTgamblingSpanTasks,2022.2.1,Win32,60.0276127,,,,,,,,2.083,,,,,,,,,,,,,,2,n,1.917,20.53,1,3.583,1.5,0,39,39,9,1,20.53,0,7.73,0,,,,,,,,,,,,,,,,,,,,,,,,,,,,,,,,,,,,,,,,,,,,,,,,,,,,,,,,,,,,,,,,,,,,,,,,,,,,,,,,,,,,,,,,,,,,,,,,,,
,,62a75b7789c411b352595f2e,2022-09-08_13h19.03.526,CGTgamblingSpanTasks,2022.2.1,Win32,60.0276127,,,,,,,,2.8451,,,,,,,,,,,,,,2,n,1.1549,25.2,1,4.3451,1.5,0,40,40,3,1,25.2,0,5.4,0,,,,,,,,,,,,,,,,,,,,,,,,,,,,,,,,,,,,,,,,,,,,,,,,,,,,,,,,,,,,,,,,,,,,,,,,,,,,,,,,,,,,,,,,,,,,,,,,,,
,,62a75b7789c411b352595f2e,2022-09-08_13h19.03.526,CGTgamblingSpanTasks,2022.2.1,Win32,60.0276127,,,,,,,,2.5632,,,,,,,,,,,,,,1,v,1.4368,21.32,1,4.0632,1.5,0,41,41,7,1,21.32,0,7.34,0,,,,,,,,,,,,,,,,,,,,,,,,,,,,,,,,,,,,,,,,,,,,,,,,,,,,,,,,,,,,,,,,,,,,,,,,,,,,,,,,,,,,,,,,,,,,,,,,,,
,,62a75b7789c411b352595f2e,2022-09-08_13h19.03.526,CGTgamblingSpanTasks,2022.2.1,Win32,60.0276127,,,,,,,,3.0535,,,,,,,,,,,,,,2,n,0.9465,16,1,4.0535,1,0,42,42,4,1,16,0,4,0,,,,,,,,,,,,,,,,,,,,,,,,,,,,,,,,,,,,,,,,,,,,,,,,,,,,,,,,,,,,,,,,,,,,,,,,,,,,,,,,,,,,,,,,,,,,,,,,,,
,,62a75b7789c411b352595f2e,2022-09-08_13h19.03.526,CGTgamblingSpanTasks,2022.2.1,Win32,60.0276127,,,,,,,,1.1264,,,,,,,,,,,,,,1,v,2.8736,17.59,1,2.6264,1.5,0,43,43,21,1,17.59,0,9.2,0,,,,,,,,,,,,,,,,,,,,,,,,,,,,,,,,,,,,,,,,,,,,,,,,,,,,,,,,,,,,,,,,,,,,,,,,,,,,,,,,,,,,,,,,,,,,,,,,,,
,,62a75b7789c411b352595f2e,2022-09-08_13h19.03.526,CGTgamblingSpanTasks,2022.2.1,Win32,60.0276127,,,,,,,,2.0701,,,,,,,,,,,,,,1,v,1.9299,0,1,3.5701,1.5,0,44,44,14,1,12.68,0,5.66,0,,,,,,,,,,,,,,,,,,,,,,,,,,,,,,,,,,,,,,,,,,,,,,,,,,,,,,,,,,,,,,,,,,,,,,,,,,,,,,,,,,,,,,,,,,,,,,,,,,
,,62a75b7789c411b352595f2e,2022-09-08_13h19.03.526,CGTgamblingSpanTasks,2022.2.1,Win32,60.0276127,,,,,,,,1.9031,,,,,,,,,,,,,,1,v,2.0969,0,1,3.4031,1.5,0,45,45,29,1,16.26,0,9.87,0,,,,,,,,,,,,,,,,,,,,,,,,,,,,,,,,,,,,,,,,,,,,,,,,,,,,,,,,,,,,,,,,,,,,,,,,,,,,,,,,,,,,,,,,,,,,,,,,,,
,,62a75b7789c411b352595f2e,2022-09-08_13h19.03.526,CGTgamblingSpanTasks,2022.2.1,Win32,60.0276127,,,,,,,,2.7101,,,,,,,,,,,,,,1,n,1.2899,6.88,0,3.7101,1,0,46,46,36,1,10.24,0,6.88,0,,,,,,,,,,,,,,,,,,,,,,,,,,,,,,,,,,,,,,,,,,,,,,,,,,,,,,,,,,,,,,,,,,,,,,,,,,,,,,,,,,,,,,,,,,,,,,,,,,
,,62a75b7789c411b352595f2e,2022-09-08_13h19.03.526,CGTgamblingSpanTasks,2022.2.1,Win32,60.0276127,,,,,,,,1.5945,,,,,,,,,,,,,,2,n,2.4055,11.43,1,2.5945,1,0,47,47,24,1,11.43,0,6.29,0,,,,,,,,,,,,,,,,,,,,,,,,,,,,,,,,,,,,,,,,,,,,,,,,,,,,,,,,,,,,,,,,,,,,,,,,,,,,,,,,,,,,,,,,,,,,,,,,,,
,,62a75b7789c411b352595f2e,2022-09-08_13h19.03.526,CGTgamblingSpanTasks,2022.2.1,Win32,60.0276127,,,,,,,,0.691,,,,,,,,,,,,,,1,v,3.309,10.35,1,1.691,1,0,48,48,40,1,10.35,0,0,1,,,,,,,,,,,,,,,,,,,,,,,,,,,,,,,,,,,,,,,,,,,,,,,,,,,,,,,,,,,,,,,,,,,,,,,,,,,,,,,,,,,,,,,,,,,,,,,,,,
,,62a75b7789c411b352595f2e,2022-09-08_13h19.03.526,CGTgamblingSpanTasks,2022.2.1,Win32,60.0276127,,,,,,,,1.3501,,,,,,,,,,,,,,1,v,2.6499,0,1,2.3501,1,0,49,49,37,1,15.27,0,10.37,0,,,,,,,,,,,,,,,,,,,,,,,,,,,,,,,,,,,,,,,,,,,,,,,,,,,,,,,,,,,,,,,,,,,,,,,,,,,,,,,,,,,,,,,,,,,,,,,,,,
,,62a75b7789c411b352595f2e,2022-09-08_13h19.03.526,CGTgamblingSpanTasks,2022.2.1,Win32,60.0276127,,,,,,,,,,,,,,,,,,,,,,,,,,,,,,,,,,,,,,bespoke_choiceset_rhoInd123_muInd135.csv,bespoke_choicesets/bespoke_choiceset_rhoInd123_muInd135.csv,123,135,0,0,0,0,1,,,,,,,,,,,,,,,,,,,,,,,,,,,,,,,,,,,,,,,,,,,,,,,,,,,,,,,,,,,,,,,,,,,,,,,,,,,,,,,,,,,,,,,,,
,,62a75b7789c411b352595f2e,2022-09-08_13h19.03.526,CGTgamblingSpanTasks,2022.2.1,Win32,60.0276127,,,,,,,,,,,,,,,,,,,,,,,,,,,,,,,,,,,,,,,,,,,,,,,,,,,,,,,,,,,,,,,,,,,,,,,,,,,,,,,,,,,,,,,,,,,,,,,,,,,,,,,,,,,,,,,,,,,,,,,,,,,,,,,,,,,,,,,
,,62a75b7789c411b352595f2e,2022-09-08_13h19.03.526,CGTgamblingSpanTasks,2022.2.1,Win32,60.0276127,,,,,,,,,,,,,,,,,,,,,,,,,,,,,,,,,,,,,,,,,,,,,,,v,1.8639,,,,,,,,,,,,,,,,,,,,,,,,,,,,,,,,,,,,,,,,,,,,,,,,,,,,,,,,,,,,,,,,,,,,,,,,,,,,,,,,,,,,,,,
,,62a75b7789c411b352595f2e,2022-09-08_13h19.03.526,CGTgamblingSpanTasks,2022.2.1,Win32,60.0276127,,,,,,,,2.8842,,,,,,,,,,,,,,1,v,1.1158,0,1,4.3842,1.5,,,,,,20.31034258,0,1.870404296,,,,,,,,,,,,,0,0,0,85,1,0.519325853,1,,,,,,,,,,,,,,,,,,,,,,,,,,,,,,,,,,,,,,,,,,,,,,,,,,,,,,,,,,,,,,,,,,,,,,,,,,,,,,,,
,,62a75b7789c411b352595f2e,2022-09-08_13h19.03.526,CGTgamblingSpanTasks,2022.2.1,Win32,60.0276127,,,,,,,,2.8076,,,,,,,,,,,,,,1,v,1.1924,0,1,3.8076,1,,,,,,25.21882231,0,0.085746782,,,,,,,,,,,,,0,1,1,64,1,0.90272076,0,,,,,,,,,,,,,,,,,,,,,,,,,,,,,,,,,,,,,,,,,,,,,,,,,,,,,,,,,,,,,,,,,,,,,,,,,,,,,,,,
,,62a75b7789c411b352595f2e,2022-09-08_13h19.03.526,CGTgamblingSpanTasks,2022.2.1,Win32,60.0276127,,,,,,,,3.0285,,,,,,,,,,,,,,2,n,0.9715,29.30724159,1,4.0285,1,,,,,,29.30724159,0,3.247012935,,,,,,,,,,,,,0,2,2,71,1,0.470571125,1,,,,,,,,,,,,,,,,,,,,,,,,,,,,,,,,,,,,,,,,,,,,,,,,,,,,,,,,,,,,,,,,,,,,,,,,,,,,,,,,
,,62a75b7789c411b352595f2e,2022-09-08_13h19.03.526,CGTgamblingSpanTasks,2022.2.1,Win32,60.0276127,,,,,,,,2.9595,,,,,,,,,,,,,,2,n,1.0405,26.36733703,1,4.4595,1.5,,,,,,26.36733703,0,2.201057101,,,,,,,,,,,,,0,3,3,90,1,0.544064207,1,,,,,,,,,,,,,,,,,,,,,,,,,,,,,,,,,,,,,,,,,,,,,,,,,,,,,,,,,,,,,,,,,,,,,,,,,,,,,,,,
,,62a75b7789c411b352595f2e,2022-09-08_13h19.03.526,CGTgamblingSpanTasks,2022.2.1,Win32,60.0276127,,,,,,,,0,,,,,,,,,,,,,,1,,,,,1,1,,,,,,27.88092897,0,2.771762788,,,,,,,,,,,,,0,4,4,117,1,0.499466648,1,,,,,,,,,,,,,,,,,,,,,,,,,,,,,,,,,,,,,,,,,,,,,,,,,,,,,,,,,,,,,,,,,,,,,,,,,,,,,,,,
,,62a75b7789c411b352595f2e,2022-09-08_13h19.03.526,CGTgamblingSpanTasks,2022.2.1,Win32,60.0276127,,,,,,,,0.3517,,,,,,,,,,,,,,2,n,3.6483,23.24777057,1,1.8517,1.5,,,,,,23.24777057,0,2.003482335,,,,,,,,,,,,,0,5,5,59,1,0.536135174,1,,,,,,,,,,,,,,,,,,,,,,,,,,,,,,,,,,,,,,,,,,,,,,,,,,,,,,,,,,,,,,,,,,,,,,,,,,,,,,,,
,,62a75b7789c411b352595f2e,2022-09-08_13h19.03.526,CGTgamblingSpanTasks,2022.2.1,Win32,60.0276127,,,,,,,,2.0124,,,,,,,,,,,,,,2,v,1.9876,11.19311486,0,3.0124,1,,,,,,8.17598802,0,11.19311486,,,,,,,,,,,,,0,6,6,110,1,0.021568003,0,,,,,,,,,,,,,,,,,,,,,,,,,,,,,,,,,,,,,,,,,,,,,,,,,,,,,,,,,,,,,,,,,,,,,,,,,,,,,,,,
,,62a75b7789c411b352595f2e,2022-09-08_13h19.03.526,CGTgamblingSpanTasks,2022.2.1,Win32,60.0276127,,,,,,,,3.1831,,,,,,,,,,,,,,2,n,0.8169,0,1,4.1831,1,,,,,,28.18900855,0,0.05384276,,,,,,,,,,,,,0,7,7,55,1,0.919081308,0,,,,,,,,,,,,,,,,,,,,,,,,,,,,,,,,,,,,,,,,,,,,,,,,,,,,,,,,,,,,,,,,,,,,,,,,,,,,,,,,
,,62a75b7789c411b352595f2e,2022-09-08_13h19.03.526,CGTgamblingSpanTasks,2022.2.1,Win32,60.0276127,,,,,,,,3.1268,,,,,,,,,,,,,,1,v,0.8732,0,1,4.6268,1.5,,,,,,28.9323758,0,2.893007023,,,,,,,,,,,,,0,8,8,11,1,0.497943321,1,,,,,,,,,,,,,,,,,,,,,,,,,,,,,,,,,,,,,,,,,,,,,,,,,,,,,,,,,,,,,,,,,,,,,,,,,,,,,,,,
,,62a75b7789c411b352595f2e,2022-09-08_13h19.03.526,CGTgamblingSpanTasks,2022.2.1,Win32,60.0276127,,,,,,,,2.7587,,,,,,,,,,,,,,1,n,1.2413,11.6744431,0,3.7587,1,,,,,,10.43004651,0,11.6744431,,,,,,,,,,,,,0,9,9,15,1,0.026176489,0,,,,,,,,,,,,,,,,,,,,,,,,,,,,,,,,,,,,,,,,,,,,,,,,,,,,,,,,,,,,,,,,,,,,,,,,,,,,,,,,
,,62a75b7789c411b352595f2e,2022-09-08_13h19.03.526,CGTgamblingSpanTasks,2022.2.1,Win32,60.0276127,,,,,,,,2.4928,,,,,,,,,,,,,,1,v,1.5072,27.94544945,1,3.4928,1,,,,,,27.94544945,0,2.32030209,,,,,,,,,,,,,0,10,10,115,1,0.545390564,1,,,,,,,,,,,,,,,,,,,,,,,,,,,,,,,,,,,,,,,,,,,,,,,,,,,,,,,,,,,,,,,,,,,,,,,,,,,,,,,,
,,62a75b7789c411b352595f2e,2022-09-08_13h19.03.526,CGTgamblingSpanTasks,2022.2.1,Win32,60.0276127,,,,,,,,2.4725,,,,,,,,,,,,,,2,n,1.5275,27.7711693,1,3.9725,1.5,,,,,,27.7711693,0,2.320849632,,,,,,,,,,,,,0,11,11,94,1,0.543786368,1,,,,,,,,,,,,,,,,,,,,,,,,,,,,,,,,,,,,,,,,,,,,,,,,,,,,,,,,,,,,,,,,,,,,,,,,,,,,,,,,
,,62a75b7789c411b352595f2e,2022-09-08_13h19.03.526,CGTgamblingSpanTasks,2022.2.1,Win32,60.0276127,,,,,,,,2.8753,,,,,,,,,,,,,,2,n,1.1247,0,1,4.3753,1.5,,,,,,23.4214135,0,2.485985001,,,,,,,,,,,,,0,12,12,81,1,0.482105905,1,,,,,,,,,,,,,,,,,,,,,,,,,,,,,,,,,,,,,,,,,,,,,,,,,,,,,,,,,,,,,,,,,,,,,,,,,,,,,,,,
,,62a75b7789c411b352595f2e,2022-09-08_13h19.03.526,CGTgamblingSpanTasks,2022.2.1,Win32,60.0276127,,,,,,,,2.9596,,,,,,,,,,,,,,1,v,1.0404,21.16780451,1,4.4596,1.5,,,,,,21.16780451,0,2.469465385,,,,,,,,,,,,,0,13,13,32,1,0.456531699,1,,,,,,,,,,,,,,,,,,,,,,,,,,,,,,,,,,,,,,,,,,,,,,,,,,,,,,,,,,,,,,,,,,,,,,,,,,,,,,,,
,,62a75b7789c411b352595f2e,2022-09-08_13h19.03.526,CGTgamblingSpanTasks,2022.2.1,Win32,60.0276127,,,,,,,,2.8836,,,,,,,,,,,,,,1,v,1.1164,27.4965044,1,4.3836,1.5,,,,,,27.4965044,0,2.461467004,,,,,,,,,,,,,0,14,14,36,1,0.526550878,1,,,,,,,,,,,,,,,,,,,,,,,,,,,,,,,,,,,,,,,,,,,,,,,,,,,,,,,,,,,,,,,,,,,,,,,,,,,,,,,,
,,62a75b7789c411b352595f2e,2022-09-08_13h19.03.526,CGTgamblingSpanTasks,2022.2.1,Win32,60.0276127,,,,,,,,2.5487,,,,,,,,,,,,,,2,n,1.4513,0,1,3.5487,1,,,,,,18.20422443,0,1.635040165,,,,,,,,,,,,,0,15,15,82,1,0.525708991,1,,,,,,,,,,,,,,,,,,,,,,,,,,,,,,,,,,,,,,,,,,,,,,,,,,,,,,,,,,,,,,,,,,,,,,,,,,,,,,,,
,,62a75b7789c411b352595f2e,2022-09-08_13h19.03.526,CGTgamblingSpanTasks,2022.2.1,Win32,60.0276127,,,,,,,,3.3066,,,,,,,,,,,,,,2,n,0.6934,0,1,4.3066,1,,,,,,19.58698544,0,9.936178001,,,,,,,,,,,,,0,16,16,77,1,0.098812204,0,,,,,,,,,,,,,,,,,,,,,,,,,,,,,,,,,,,,,,,,,,,,,,,,,,,,,,,,,,,,,,,,,,,,,,,,,,,,,,,,
,,62a75b7789c411b352595f2e,2022-09-08_13h19.03.526,CGTgamblingSpanTasks,2022.2.1,Win32,60.0276127,,,,,,,,3.3426,,,,,,,,,,,,,,2,n,0.6574,27.39221343,1,4.8426,1.5,,,,,,27.39221343,0,2.743407746,,,,,,,,,,,,,0,17,17,47,1,0.49752044,1,,,,,,,,,,,,,,,,,,,,,,,,,,,,,,,,,,,,,,,,,,,,,,,,,,,,,,,,,,,,,,,,,,,,,,,,,,,,,,,,
,,62a75b7789c411b352595f2e,2022-09-08_13h19.03.526,CGTgamblingSpanTasks,2022.2.1,Win32,60.0276127,,,,,,,,2.4606,,,,,,,,,,,,,,1,n,1.5394,5.683635938,0,3.4606,1,,,,,,4.941039335,0,5.683635938,,,,,,,,,,,,,0,18,18,9,1,0.025481984,0,,,,,,,,,,,,,,,,,,,,,,,,,,,,,,,,,,,,,,,,,,,,,,,,,,,,,,,,,,,,,,,,,,,,,,,,,,,,,,,,
,,62a75b7789c411b352595f2e,2022-09-08_13h19.03.526,CGTgamblingSpanTasks,2022.2.1,Win32,60.0276127,,,,,,,,3.3309,,,,,,,,,,,,,,2,n,0.6691,28.33977875,1,4.8309,1.5,,,,,,28.33977875,0,2.768313633,,,,,,,,,,,,,0,19,19,116,1,0.50406901,1,,,,,,,,,,,,,,,,,,,,,,,,,,,,,,,,,,,,,,,,,,,,,,,,,,,,,,,,,,,,,,,,,,,,,,,,,,,,,,,,
,,62a75b7789c411b352595f2e,2022-09-08_13h19.03.526,CGTgamblingSpanTasks,2022.2.1,Win32,60.0276127,,,,,,,,2.6726,,,,,,,,,,,,,,1,v,1.3274,13.84410806,1,3.6726,1,,,,,,13.84410806,0,1.535873964,,,,,,,,,,,,,0,20,20,88,1,0.470209002,1,,,,,,,,,,,,,,,,,,,,,,,,,,,,,,,,,,,,,,,,,,,,,,,,,,,,,,,,,,,,,,,,,,,,,,,,,,,,,,,,
,,62a75b7789c411b352595f2e,2022-09-08_13h19.03.526,CGTgamblingSpanTasks,2022.2.1,Win32,60.0276127,,,,,,,,2.3318,,,,,,,,,,,,,,2,n,1.6682,0,1,3.8318,1.5,,,,,,28.9381277,0,2.663622024,,,,,,,,,,,,,0,21,21,103,1,0.519453367,1,,,,,,,,,,,,,,,,,,,,,,,,,,,,,,,,,,,,,,,,,,,,,,,,,,,,,,,,,,,,,,,,,,,,,,,,,,,,,,,,
,,62a75b7789c411b352595f2e,2022-09-08_13h19.03.526,CGTgamblingSpanTasks,2022.2.1,Win32,60.0276127,,,,,,,,2.7345,,,,,,,,,,,,,,1,v,1.2655,0,1,3.7345,1,,,,,,15.73000491,0,8.830252162,,,,,,,,,,,,,0,22,22,95,1,0.084193143,0,,,,,,,,,,,,,,,,,,,,,,,,,,,,,,,,,,,,,,,,,,,,,,,,,,,,,,,,,,,,,,,,,,,,,,,,,,,,,,,,
,,62a75b7789c411b352595f2e,2022-09-08_13h19.03.526,CGTgamblingSpanTasks,2022.2.1,Win32,60.0276127,,,,,,,,2.4404,,,,,,,,,,,,,,1,v,1.5596,22.62475578,1,3.9404,1.5,,,,,,22.62475578,0,2.397643354,,,,,,,,,,,,,0,23,23,93,1,0.482527609,1,,,,,,,,,,,,,,,,,,,,,,,,,,,,,,,,,,,,,,,,,,,,,,,,,,,,,,,,,,,,,,,,,,,,,,,,,,,,,,,,
,,62a75b7789c411b352595f2e,2022-09-08_13h19.03.526,CGTgamblingSpanTasks,2022.2.1,Win32,60.0276127,,,,,,,,2.9188,,,,,,,,,,,,,,1,v,1.0812,0,1,4.4188,1.5,,,,,,27.77179191,0,0.074524436,,,,,,,,,,,,,0,24,24,99,1,0.910114387,0,,,,,,,,,,,,,,,,,,,,,,,,,,,,,,,,,,,,,,,,,,,,,,,,,,,,,,,,,,,,,,,,,,,,,,,,,,,,,,,,
,,62a75b7789c411b352595f2e,2022-09-08_13h19.03.526,CGTgamblingSpanTasks,2022.2.1,Win32,60.0276127,,,,,,,,1.8811,,,,,,,,,,,,,,2,n,2.1189,0,1,3.3811,1.5,,,,,,25.0707644,0,0.067651625,,,,,,,,,,,,,0,25,25,70,1,0.909952349,0,,,,,,,,,,,,,,,,,,,,,,,,,,,,,,,,,,,,,,,,,,,,,,,,,,,,,,,,,,,,,,,,,,,,,,,,,,,,,,,,
,,62a75b7789c411b352595f2e,2022-09-08_13h19.03.526,CGTgamblingSpanTasks,2022.2.1,Win32,60.0276127,,,,,,,,0.7327,,,,,,,,,,,,,,1,v,3.2673,21.2188881,1,1.7327,1,,,,,,21.2188881,0,2.067660742,,,,,,,,,,,,,0,26,26,107,1,0.50470775,1,,,,,,,,,,,,,,,,,,,,,,,,,,,,,,,,,,,,,,,,,,,,,,,,,,,,,,,,,,,,,,,,,,,,,,,,,,,,,,,,
,,62a75b7789c411b352595f2e,2022-09-08_13h19.03.526,CGTgamblingSpanTasks,2022.2.1,Win32,60.0276127,,,,,,,,1.604,,,,,,,,,,,,,,1,v,2.396,22.87092517,1,3.104,1.5,,,,,,22.87092517,0,0.059276504,,,,,,,,,,,,,0,27,27,27,1,0.911114935,0,,,,,,,,,,,,,,,,,,,,,,,,,,,,,,,,,,,,,,,,,,,,,,,,,,,,,,,,,,,,,,,,,,,,,,,,,,,,,,,,
,,62a75b7789c411b352595f2e,2022-09-08_13h19.03.526,CGTgamblingSpanTasks,2022.2.1,Win32,60.0276127,,,,,,,,1.0003,,,,,,,,,,,,,,2,n,2.9997,10.05300841,1,2.5003,1.5,,,,,,10.05300841,0,8.512335864,,,,,,,,,,,,,0,28,28,74,1,0.040729225,0,,,,,,,,,,,,,,,,,,,,,,,,,,,,,,,,,,,,,,,,,,,,,,,,,,,,,,,,,,,,,,,,,,,,,,,,,,,,,,,,
,,62a75b7789c411b352595f2e,2022-09-08_13h19.03.526,CGTgamblingSpanTasks,2022.2.1,Win32,60.0276127,,,,,,,,0.0626,,,,,,,,,,,,,,1,v,3.9374,0,1,1.0626,1,,,,,,27.53810185,0,0.097022401,,,,,,,,,,,,,0,29,29,50,1,0.901515865,0,,,,,,,,,,,,,,,,,,,,,,,,,,,,,,,,,,,,,,,,,,,,,,,,,,,,,,,,,,,,,,,,,,,,,,,,,,,,,,,,
,,62a75b7789c411b352595f2e,2022-09-08_13h19.03.526,CGTgamblingSpanTasks,2022.2.1,Win32,60.0276127,,,,,,,,0,,,,,,,,,,,,,,1,,,,,1,1,,,,,,25.76582409,0,2.393193076,,,,,,,,,,,,,0,30,30,46,1,0.517129855,1,,,,,,,,,,,,,,,,,,,,,,,,,,,,,,,,,,,,,,,,,,,,,,,,,,,,,,,,,,,,,,,,,,,,,,,,,,,,,,,,
,,62a75b7789c411b352595f2e,2022-09-08_13h19.03.526,CGTgamblingSpanTasks,2022.2.1,Win32,60.0276127,,,,,,,,0.7839,,,,,,,,,,,,,,2,n,3.2161,24.35708027,1,2.2839,1.5,,,,,,24.35708027,0,2.738695417,,,,,,,,,,,,,0,31,31,114,1,0.466573634,1,,,,,,,,,,,,,,,,,,,,,,,,,,,,,,,,,,,,,,,,,,,,,,,,,,,,,,,,,,,,,,,,,,,,,,,,,,,,,,,,
,,62a75b7789c411b352595f2e,2022-09-08_13h19.03.526,CGTgamblingSpanTasks,2022.2.1,Win32,60.0276127,,,,,,,,3.3423,,,,,,,,,,,,,,2,n,0.6577,27.76752685,1,4.8423,1.5,,,,,,27.76752685,0,0.083968035,,,,,,,,,,,,,0,32,32,13,1,0.906513967,0,,,,,,,,,,,,,,,,,,,,,,,,,,,,,,,,,,,,,,,,,,,,,,,,,,,,,,,,,,,,,,,,,,,,,,,,,,,,,,,,
,,62a75b7789c411b352595f2e,2022-09-08_13h19.03.526,CGTgamblingSpanTasks,2022.2.1,Win32,60.0276127,,,,,,,,3.3303,,,,,,,,,,,,,,1,v,0.6697,0,1,4.8303,1.5,,,,,,22.0050376,0,2.257683666,,,,,,,,,,,,,0,33,33,4,1,0.491147312,1,,,,,,,,,,,,,,,,,,,,,,,,,,,,,,,,,,,,,,,,,,,,,,,,,,,,,,,,,,,,,,,,,,,,,,,,,,,,,,,,
,,62a75b7789c411b352595f2e,2022-09-08_13h19.03.526,CGTgamblingSpanTasks,2022.2.1,Win32,60.0276127,,,,,,,,3.4259,,,,,,,,,,,,,,2,n,0.5741,27.38828234,1,4.4259,1,,,,,,27.38828234,0,0.0639233,,,,,,,,,,,,,0,34,34,43,1,0.914010176,0,,,,,,,,,,,,,,,,,,,,,,,,,,,,,,,,,,,,,,,,,,,,,,,,,,,,,,,,,,,,,,,,,,,,,,,,,,,,,,,,
,,62a75b7789c411b352595f2e,2022-09-08_13h19.03.526,CGTgamblingSpanTasks,2022.2.1,Win32,60.0276127,,,,,,,,3.4352,,,,,,,,,,,,,,2,n,0.5648,0,1,4.4352,1,,,,,,27.60724521,0,0.088432325,,,,,,,,,,,,,0,35,35,17,1,0.904684186,0,,,,,,,,,,,,,,,,,,,,,,,,,,,,,,,,,,,,,,,,,,,,,,,,,,,,,,,,,,,,,,,,,,,,,,,,,,,,,,,,
,,62a75b7789c411b352595f2e,2022-09-08_13h19.03.526,CGTgamblingSpanTasks,2022.2.1,Win32,60.0276127,,,,,,,,3.5025,,,,,,,,,,,,,,2,n,0.4975,0,1,4.5025,1,,,,,,27.12325385,0,0.080932047,,,,,,,,,,,,,0,36,36,14,1,0.906929184,0,,,,,,,,,,,,,,,,,,,,,,,,,,,,,,,,,,,,,,,,,,,,,,,,,,,,,,,,,,,,,,,,,,,,,,,,,,,,,,,,
,,62a75b7789c411b352595f2e,2022-09-08_13h19.03.526,CGTgamblingSpanTasks,2022.2.1,Win32,60.0276127,,,,,,,,3.11,,,,,,,,,,,,,,2,n,0.89,0,1,4.61,1.5,,,,,,17.92584289,0,1.878232496,,,,,,,,,,,,,0,37,37,5,1,0.485559263,1,,,,,,,,,,,,,,,,,,,,,,,,,,,,,,,,,,,,,,,,,,,,,,,,,,,,,,,,,,,,,,,,,,,,,,,,,,,,,,,,
,,62a75b7789c411b352595f2e,2022-09-08_13h19.03.526,CGTgamblingSpanTasks,2022.2.1,Win32,60.0276127,,,,,,,,3.0129,,,,,,,,,,,,,,2,n,0.9871,21.00799273,1,4.5129,1.5,,,,,,21.00799273,0,0.067969053,,,,,,,,,,,,,0,38,38,92,1,0.904360262,0,,,,,,,,,,,,,,,,,,,,,,,,,,,,,,,,,,,,,,,,,,,,,,,,,,,,,,,,,,,,,,,,,,,,,,,,,,,,,,,,
,,62a75b7789c411b352595f2e,2022-09-08_13h19.03.526,CGTgamblingSpanTasks,2022.2.1,Win32,60.0276127,,,,,,,,2.9703,,,,,,,,,,,,,,1,v,1.0297,14.3363647,1,4.4703,1.5,,,,,,14.3363647,0,1.396635362,,,,,,,,,,,,,0,39,39,78,1,0.504775474,1,,,,,,,,,,,,,,,,,,,,,,,,,,,,,,,,,,,,,,,,,,,,,,,,,,,,,,,,,,,,,,,,,,,,,,,,,,,,,,,,
,,62a75b7789c411b352595f2e,2022-09-08_13h19.03.526,CGTgamblingSpanTasks,2022.2.1,Win32,60.0276127,,,,,,,,3.0983,,,,,,,,,,,,,,1,v,0.9017,22.86604061,1,4.0983,1,,,,,,22.86604061,0,2.293289792,,,,,,,,,,,,,0,40,40,51,1,0.49715382,1,,,,,,,,,,,,,,,,,,,,,,,,,,,,,,,,,,,,,,,,,,,,,,,,,,,,,,,,,,,,,,,,,,,,,,,,,,,,,,,,
,,62a75b7789c411b352595f2e,2022-09-08_13h19.03.526,CGTgamblingSpanTasks,2022.2.1,Win32,60.0276127,,,,,,,,3.1504,,,,,,,,,,,,,,2,n,0.8496,0,1,4.1504,1,,,,,,29.75778644,0,2.810531415,,,,,,,,,,,,,0,41,41,113,1,0.512824233,1,,,,,,,,,,,,,,,,,,,,,,,,,,,,,,,,,,,,,,,,,,,,,,,,,,,,,,,,,,,,,,,,,,,,,,,,,,,,,,,,
,,62a75b7789c411b352595f2e,2022-09-08_13h19.03.526,CGTgamblingSpanTasks,2022.2.1,Win32,60.0276127,,,,,,,,3.1044,,,,,,,,,,,,,,1,v,0.8956,17.5608285,1,4.1044,1,,,,,,17.5608285,0,1.825111303,,,,,,,,,,,,,0,42,42,104,1,0.487721116,1,,,,,,,,,,,,,,,,,,,,,,,,,,,,,,,,,,,,,,,,,,,,,,,,,,,,,,,,,,,,,,,,,,,,,,,,,,,,,,,,
,,62a75b7789c411b352595f2e,2022-09-08_13h19.03.526,CGTgamblingSpanTasks,2022.2.1,Win32,60.0276127,,,,,,,,3.1202,,,,,,,,,,,,,,2,n,0.8798,14.20587264,1,4.1202,1,,,,,,14.20587264,0,11.93550497,,,,,,,,,,,,,0,43,43,21,1,0.041340301,0,,,,,,,,,,,,,,,,,,,,,,,,,,,,,,,,,,,,,,,,,,,,,,,,,,,,,,,,,,,,,,,,,,,,,,,,,,,,,,,,
,,62a75b7789c411b352595f2e,2022-09-08_13h19.03.526,CGTgamblingSpanTasks,2022.2.1,Win32,60.0276127,,,,,,,,2.9433,,,,,,,,,,,,,,1,n,1.0567,10.31611309,0,4.4433,1.5,,,,,,19.30622782,0,10.31611309,,,,,,,,,,,,,0,44,44,1,1,0.091105656,0,,,,,,,,,,,,,,,,,,,,,,,,,,,,,,,,,,,,,,,,,,,,,,,,,,,,,,,,,,,,,,,,,,,,,,,,,,,,,,,,
,,62a75b7789c411b352595f2e,2022-09-08_13h19.03.526,CGTgamblingSpanTasks,2022.2.1,Win32,60.0276127,,,,,,,,3.0395,,,,,,,,,,,,,,2,n,0.9605,0,1,4.5395,1.5,,,,,,11.16819157,0,0.941456753,,,,,,,,,,,,,0,45,45,45,1,0.54163803,1,,,,,,,,,,,,,,,,,,,,,,,,,,,,,,,,,,,,,,,,,,,,,,,,,,,,,,,,,,,,,,,,,,,,,,,,,,,,,,,,
,,62a75b7789c411b352595f2e,2022-09-08_13h19.03.526,CGTgamblingSpanTasks,2022.2.1,Win32,60.0276127,,,,,,,,2.7172,,,,,,,,,,,,,,2,v,1.2828,7.50753835,0,4.2172,1.5,,,,,,2.231316635,0,7.50753835,,,,,,,,,,,,,0,46,46,29,1,0.010273427,0,,,,,,,,,,,,,,,,,,,,,,,,,,,,,,,,,,,,,,,,,,,,,,,,,,,,,,,,,,,,,,,,,,,,,,,,,,,,,,,,
,,62a75b7789c411b352595f2e,2022-09-08_13h19.03.526,CGTgamblingSpanTasks,2022.2.1,Win32,60.0276127,,,,,,,,3.0932,,,,,,,,,,,,,,1,v,0.9068,0,1,4.0932,1,,,,,,18.50662664,0,0.052546026,,,,,,,,,,,,,0,47,47,112,1,0.908444837,0,,,,,,,,,,,,,,,,,,,,,,,,,,,,,,,,,,,,,,,,,,,,,,,,,,,,,,,,,,,,,,,,,,,,,,,,,,,,,,,,
,,62a75b7789c411b352595f2e,2022-09-08_13h19.03.526,CGTgamblingSpanTasks,2022.2.1,Win32,60.0276127,,,,,,,,3.0419,,,,,,,,,,,,,,2,v,0.9581,3.877530383,0,4.0419,1,,,,,,3.471484939,0,3.877530383,,,,,,,,,,,,,0,48,48,40,1,0.02623078,0,,,,,,,,,,,,,,,,,,,,,,,,,,,,,,,,,,,,,,,,,,,,,,,,,,,,,,,,,,,,,,,,,,,,,,,,,,,,,,,,
,,62a75b7789c411b352595f2e,2022-09-08_13h19.03.526,CGTgamblingSpanTasks,2022.2.1,Win32,60.0276127,,,,,,,,3.0424,,,,,,,,,,,,,,1,v,0.9576,21.7711579,1,4.0424,1,,,,,,21.7711579,0,2.502728921,,,,,,,,,,,,,0,49,49,101,1,0.460552621,1,,,,,,,,,,,,,,,,,,,,,,,,,,,,,,,,,,,,,,,,,,,,,,,,,,,,,,,,,,,,,,,,,,,,,,,,,,,,,,,,
,,62a75b7789c411b352595f2e,2022-09-08_13h19.03.526,CGTgamblingSpanTasks,2022.2.1,Win32,60.0276127,,,,,,,,2.9255,,,,,,,,,,,,,,1,v,1.0745,0,1,4.4255,1.5,,,,,,29.76099779,0,0.095763086,,,,,,,,,,,,,0,50,50,35,1,0.904537896,0,,,,,,,,,,,,,,,,,,,,,,,,,,,,,,,,,,,,,,,,,,,,,,,,,,,,,,,,,,,,,,,,,,,,,,,,,,,,,,,,
,,62a75b7789c411b352595f2e,2022-09-08_13h19.03.526,CGTgamblingSpanTasks,2022.2.1,Win32,60.0276127,,,,,,,,3.3593,,,,,,,,,,,,,,2,n,0.6407,0,1,4.8593,1.5,,,,,,25.65316415,0,0.079652925,,,,,,,,,,,,,0,51,51,109,1,0.90568168,0,,,,,,,,,,,,,,,,,,,,,,,,,,,,,,,,,,,,,,,,,,,,,,,,,,,,,,,,,,,,,,,,,,,,,,,,,,,,,,,,
,,62a75b7789c411b352595f2e,2022-09-08_13h19.03.526,CGTgamblingSpanTasks,2022.2.1,Win32,60.0276127,,,,,,,,2.9766,,,,,,,,,,,,,,2,n,1.0234,0,1,4.4766,1.5,,,,,,18.16238569,0,1.540604093,,,,,,,,,,,,,0,52,52,34,1,0.540092491,1,,,,,,,,,,,,,,,,,,,,,,,,,,,,,,,,,,,,,,,,,,,,,,,,,,,,,,,,,,,,,,,,,,,,,,,,,,,,,,,,
,,62a75b7789c411b352595f2e,2022-09-08_13h19.03.526,CGTgamblingSpanTasks,2022.2.1,Win32,60.0276127,,,,,,,,3.3572,,,,,,,,,,,,,,1,v,0.6428,21.46599803,1,4.8572,1.5,,,,,,21.46599803,0,0.059789256,,,,,,,,,,,,,0,53,53,8,1,0.909019081,0,,,,,,,,,,,,,,,,,,,,,,,,,,,,,,,,,,,,,,,,,,,,,,,,,,,,,,,,,,,,,,,,,,,,,,,,,,,,,,,,
,,62a75b7789c411b352595f2e,2022-09-08_13h19.03.526,CGTgamblingSpanTasks,2022.2.1,Win32,60.0276127,,,,,,,,3.2652,,,,,,,,,,,,,,1,v,0.7348,26.16821818,1,4.2652,1,,,,,,26.16821818,0,0.093528069,,,,,,,,,,,,,0,54,54,42,1,0.901022427,0,,,,,,,,,,,,,,,,,,,,,,,,,,,,,,,,,,,,,,,,,,,,,,,,,,,,,,,,,,,,,,,,,,,,,,,,,,,,,,,,
,,62a75b7789c411b352595f2e,2022-09-08_13h19.03.526,CGTgamblingSpanTasks,2022.2.1,Win32,60.0276127,,,,,,,,2.8097,,,,,,,,,,,,,,1,v,1.1903,26.11188619,1,3.8097,1,,,,,,26.11188619,0,0.081942421,,,,,,,,,,,,,0,55,55,105,1,0.905343856,0,,,,,,,,,,,,,,,,,,,,,,,,,,,,,,,,,,,,,,,,,,,,,,,,,,,,,,,,,,,,,,,,,,,,,,,,,,,,,,,,
,,62a75b7789c411b352595f2e,2022-09-08_13h19.03.526,CGTgamblingSpanTasks,2022.2.1,Win32,60.0276127,,,,,,,,2.5499,,,,,,,,,,,,,,1,v,1.4501,0,1,3.5499,1,,,,,,15.13999312,0,8.653432553,,,,,,,,,,,,,0,56,56,54,1,0.081767484,0,,,,,,,,,,,,,,,,,,,,,,,,,,,,,,,,,,,,,,,,,,,,,,,,,,,,,,,,,,,,,,,,,,,,,,,,,,,,,,,,
,,62a75b7789c411b352595f2e,2022-09-08_13h19.03.526,CGTgamblingSpanTasks,2022.2.1,Win32,60.0276127,,,,,,,,2.8938,,,,,,,,,,,,,,2,n,1.1062,0,1,4.3938,1.5,,,,,,21.48443242,0,2.229247341,,,,,,,,,,,,,0,57,57,63,1,0.488155912,1,,,,,,,,,,,,,,,,,,,,,,,,,,,,,,,,,,,,,,,,,,,,,,,,,,,,,,,,,,,,,,,,,,,,,,,,,,,,,,,,
,,62a75b7789c411b352595f2e,2022-09-08_13h19.03.526,CGTgamblingSpanTasks,2022.2.1,Win32,60.0276127,,,,,,,,3.3116,,,,,,,,,,,,,,1,v,0.6884,21.17800335,1,4.3116,1,,,,,,21.17800335,0,0.059830985,,,,,,,,,,,,,0,58,58,67,1,0.908594974,0,,,,,,,,,,,,,,,,,,,,,,,,,,,,,,,,,,,,,,,,,,,,,,,,,,,,,,,,,,,,,,,,,,,,,,,,,,,,,,,,
,,62a75b7789c411b352595f2e,2022-09-08_13h19.03.526,CGTgamblingSpanTasks,2022.2.1,Win32,60.0276127,,,,,,,,2.5404,,,,,,,,,,,,,,1,n,1.4596,7.646213173,0,4.0404,1.5,,,,,,2.042350179,0,7.646213173,,,,,,,,,,,,,0,59,59,53,1,0.009522273,0,,,,,,,,,,,,,,,,,,,,,,,,,,,,,,,,,,,,,,,,,,,,,,,,,,,,,,,,,,,,,,,,,,,,,,,,,,,,,,,,
,,62a75b7789c411b352595f2e,2022-09-08_13h19.03.526,CGTgamblingSpanTasks,2022.2.1,Win32,60.0276127,,,,,,,,3.004,,,,,,,,,,,,,,2,v,0.996,10.3417501,0,4.504,1.5,,,,,,15.21435748,0,10.3417501,,,,,,,,,,,,,0,60,60,72,1,0.060969226,0,,,,,,,,,,,,,,,,,,,,,,,,,,,,,,,,,,,,,,,,,,,,,,,,,,,,,,,,,,,,,,,,,,,,,,,,,,,,,,,,
,,62a75b7789c411b352595f2e,2022-09-08_13h19.03.526,CGTgamblingSpanTasks,2022.2.1,Win32,60.0276127,,,,,,,,3.075,,,,,,,,,,,,,,1,v,0.925,8.217594828,1,4.575,1.5,,,,,,8.217594828,0,0.951019374,,,,,,,,,,,,,0,61,61,87,1,0.458722936,1,,,,,,,,,,,,,,,,,,,,,,,,,,,,,,,,,,,,,,,,,,,,,,,,,,,,,,,,,,,,,,,,,,,,,,,,,,,,,,,,
,,62a75b7789c411b352595f2e,2022-09-08_13h19.03.526,CGTgamblingSpanTasks,2022.2.1,Win32,60.0276127,,,,,,,,2.6811,,,,,,,,,,,,,,2,n,1.3189,27.37527992,1,4.1811,1.5,,,,,,27.37527992,0,2.860319095,,,,,,,,,,,,,0,62,62,39,1,0.486304156,1,,,,,,,,,,,,,,,,,,,,,,,,,,,,,,,,,,,,,,,,,,,,,,,,,,,,,,,,,,,,,,,,,,,,,,,,,,,,,,,,
,,62a75b7789c411b352595f2e,2022-09-08_13h19.03.526,CGTgamblingSpanTasks,2022.2.1,Win32,60.0276127,,,,,,,,2.8947,,,,,,,,,,,,,,1,v,1.1053,0,1,3.8947,1,,,,,,19.36415485,0,1.966229494,,,,,,,,,,,,,0,63,63,96,1,0.493893111,1,,,,,,,,,,,,,,,,,,,,,,,,,,,,,,,,,,,,,,,,,,,,,,,,,,,,,,,,,,,,,,,,,,,,,,,,,,,,,,,,
,,62a75b7789c411b352595f2e,2022-09-08_13h19.03.526,CGTgamblingSpanTasks,2022.2.1,Win32,60.0276127,,,,,,,,2.9366,,,,,,,,,,,,,,2,n,1.0634,0,1,4.4366,1.5,,,,,,11.08143071,0,1.207538756,,,,,,,,,,,,,0,64,64,84,1,0.475047453,1,,,,,,,,,,,,,,,,,,,,,,,,,,,,,,,,,,,,,,,,,,,,,,,,,,,,,,,,,,,,,,,,,,,,,,,,,,,,,,,,
,,62a75b7789c411b352595f2e,2022-09-08_13h19.03.526,CGTgamblingSpanTasks,2022.2.1,Win32,60.0276127,,,,,,,,3.0269,,,,,,,,,,,,,,2,n,0.9731,27.93093084,1,4.5269,1.5,,,,,,27.93093084,0,0.050207531,,,,,,,,,,,,,0,65,65,83,1,0.920505936,0,,,,,,,,,,,,,,,,,,,,,,,,,,,,,,,,,,,,,,,,,,,,,,,,,,,,,,,,,,,,,,,,,,,,,,,,,,,,,,,,
,,62a75b7789c411b352595f2e,2022-09-08_13h19.03.526,CGTgamblingSpanTasks,2022.2.1,Win32,60.0276127,,,,,,,,2.8266,,,,,,,,,,,,,,2,n,1.1734,29.77342428,1,3.8266,1,,,,,,29.77342428,0,2.838865588,,,,,,,,,,,,,0,66,66,57,1,0.510363415,1,,,,,,,,,,,,,,,,,,,,,,,,,,,,,,,,,,,,,,,,,,,,,,,,,,,,,,,,,,,,,,,,,,,,,,,,,,,,,,,,
,,62a75b7789c411b352595f2e,2022-09-08_13h19.03.526,CGTgamblingSpanTasks,2022.2.1,Win32,60.0276127,,,,,,,,3.2825,,,,,,,,,,,,,,2,n,0.7175,28.14876717,1,4.7825,1.5,,,,,,28.14876717,0,3.117906378,,,,,,,,,,,,,0,67,67,76,1,0.470636736,1,,,,,,,,,,,,,,,,,,,,,,,,,,,,,,,,,,,,,,,,,,,,,,,,,,,,,,,,,,,,,,,,,,,,,,,,,,,,,,,,
,,62a75b7789c411b352595f2e,2022-09-08_13h19.03.526,CGTgamblingSpanTasks,2022.2.1,Win32,60.0276127,,,,,,,,3.3618,,,,,,,,,,,,,,2,n,0.6382,18.51345298,1,4.3618,1,,,,,,18.51345298,0,1.932334278,,,,,,,,,,,,,0,68,68,31,1,0.48658696,1,,,,,,,,,,,,,,,,,,,,,,,,,,,,,,,,,,,,,,,,,,,,,,,,,,,,,,,,,,,,,,,,,,,,,,,,,,,,,,,,
,,62a75b7789c411b352595f2e,2022-09-08_13h19.03.526,CGTgamblingSpanTasks,2022.2.1,Win32,60.0276127,,,,,,,,3.1519,,,,,,,,,,,,,,2,n,0.8481,13.96521039,1,4.6519,1.5,,,,,,13.96521039,0,1.591282699,,,,,,,,,,,,,0,69,69,49,1,0.462956344,1,,,,,,,,,,,,,,,,,,,,,,,,,,,,,,,,,,,,,,,,,,,,,,,,,,,,,,,,,,,,,,,,,,,,,,,,,,,,,,,,
,,62a75b7789c411b352595f2e,2022-09-08_13h19.03.526,CGTgamblingSpanTasks,2022.2.1,Win32,60.0276127,,,,,,,,2.6434,,,,,,,,,,,,,,1,n,1.3566,11.42134125,0,3.6434,1,,,,,,12.9904115,0,11.42134125,,,,,,,,,,,,,0,70,70,118,1,0.037876033,0,,,,,,,,,,,,,,,,,,,,,,,,,,,,,,,,,,,,,,,,,,,,,,,,,,,,,,,,,,,,,,,,,,,,,,,,,,,,,,,,
,,62a75b7789c411b352595f2e,2022-09-08_13h19.03.526,CGTgamblingSpanTasks,2022.2.1,Win32,60.0276127,,,,,,,,3.1523,,,,,,,,,,,,,,1,v,0.8477,0,1,4.6523,1.5,,,,,,22.25959835,0,0.065383587,,,,,,,,,,,,,0,71,71,97,1,0.907413875,0,,,,,,,,,,,,,,,,,,,,,,,,,,,,,,,,,,,,,,,,,,,,,,,,,,,,,,,,,,,,,,,,,,,,,,,,,,,,,,,,
,,62a75b7789c411b352595f2e,2022-09-08_13h19.03.526,CGTgamblingSpanTasks,2022.2.1,Win32,60.0276127,,,,,,,,2.5218,,,,,,,,,,,,,,2,v,1.4782,11.39288827,0,3.5218,1,,,,,,20.97851654,0,11.39288827,,,,,,,,,,,,,0,72,72,2,1,0.088791079,0,,,,,,,,,,,,,,,,,,,,,,,,,,,,,,,,,,,,,,,,,,,,,,,,,,,,,,,,,,,,,,,,,,,,,,,,,,,,,,,,
,,62a75b7789c411b352595f2e,2022-09-08_13h19.03.526,CGTgamblingSpanTasks,2022.2.1,Win32,60.0276127,,,,,,,,2.5065,,,,,,,,,,,,,,2,v,1.4935,5.526483034,0,4.0065,1.5,,,,,,9.725876653,0,5.526483034,,,,,,,,,,,,,0,73,73,44,1,0.082550696,0,,,,,,,,,,,,,,,,,,,,,,,,,,,,,,,,,,,,,,,,,,,,,,,,,,,,,,,,,,,,,,,,,,,,,,,,,,,,,,,,
,,62a75b7789c411b352595f2e,2022-09-08_13h19.03.526,CGTgamblingSpanTasks,2022.2.1,Win32,60.0276127,,,,,,,,2.9934,,,,,,,,,,,,,,2,n,1.0066,13.4287264,1,4.4934,1.5,,,,,,13.4287264,0,1.317368801,,,,,,,,,,,,,0,74,74,100,1,0.502953125,1,,,,,,,,,,,,,,,,,,,,,,,,,,,,,,,,,,,,,,,,,,,,,,,,,,,,,,,,,,,,,,,,,,,,,,,,,,,,,,,,
,,62a75b7789c411b352595f2e,2022-09-08_13h19.03.526,CGTgamblingSpanTasks,2022.2.1,Win32,60.0276127,,,,,,,,3.1932,,,,,,,,,,,,,,2,n,0.8068,26.4985979,1,4.1932,1,,,,,,26.4985979,0,0.051324376,,,,,,,,,,,,,0,75,75,106,1,0.918747215,0,,,,,,,,,,,,,,,,,,,,,,,,,,,,,,,,,,,,,,,,,,,,,,,,,,,,,,,,,,,,,,,,,,,,,,,,,,,,,,,,
,,62a75b7789c411b352595f2e,2022-09-08_13h19.03.526,CGTgamblingSpanTasks,2022.2.1,Win32,60.0276127,,,,,,,,2.6881,,,,,,,,,,,,,,2,n,1.3119,15.87668502,1,4.1881,1.5,,,,,,15.87668502,0,8.42547829,,,,,,,,,,,,,0,76,76,56,1,0.092099462,0,,,,,,,,,,,,,,,,,,,,,,,,,,,,,,,,,,,,,,,,,,,,,,,,,,,,,,,,,,,,,,,,,,,,,,,,,,,,,,,,
,,62a75b7789c411b352595f2e,2022-09-08_13h19.03.526,CGTgamblingSpanTasks,2022.2.1,Win32,60.0276127,,,,,,,,2.993,,,,,,,,,,,,,,1,v,1.007,7.066129113,1,3.993,1,,,,,,7.066129113,0,0.585581699,,,,,,,,,,,,,0,77,77,19,1,0.545860632,1,,,,,,,,,,,,,,,,,,,,,,,,,,,,,,,,,,,,,,,,,,,,,,,,,,,,,,,,,,,,,,,,,,,,,,,,,,,,,,,,
,,62a75b7789c411b352595f2e,2022-09-08_13h19.03.526,CGTgamblingSpanTasks,2022.2.1,Win32,60.0276127,,,,,,,,2.9759,,,,,,,,,,,,,,2,n,1.0241,0,1,4.4759,1.5,,,,,,9.012590634,0,1.002188111,,,,,,,,,,,,,0,78,78,12,1,0.46958041,1,,,,,,,,,,,,,,,,,,,,,,,,,,,,,,,,,,,,,,,,,,,,,,,,,,,,,,,,,,,,,,,,,,,,,,,,,,,,,,,,
,,62a75b7789c411b352595f2e,2022-09-08_13h19.03.526,CGTgamblingSpanTasks,2022.2.1,Win32,60.0276127,,,,,,,,2.8612,,,,,,,,,,,,,,1,v,1.1388,0,1,3.8612,1,,,,,,19.3050342,0,2.030232342,,,,,,,,,,,,,0,79,79,73,1,0.484573227,1,,,,,,,,,,,,,,,,,,,,,,,,,,,,,,,,,,,,,,,,,,,,,,,,,,,,,,,,,,,,,,,,,,,,,,,,,,,,,,,,
,,62a75b7789c411b352595f2e,2022-09-08_13h19.03.526,CGTgamblingSpanTasks,2022.2.1,Win32,60.0276127,,,,,,,,2.8797,,,,,,,,,,,,,,2,n,1.1203,0,1,3.8797,1,,,,,,25.56803059,0,2.543951743,,,,,,,,,,,,,0,80,80,41,1,0.499247217,1,,,,,,,,,,,,,,,,,,,,,,,,,,,,,,,,,,,,,,,,,,,,,,,,,,,,,,,,,,,,,,,,,,,,,,,,,,,,,,,,
,,62a75b7789c411b352595f2e,2022-09-08_13h19.03.526,CGTgamblingSpanTasks,2022.2.1,Win32,60.0276127,,,,,,,,2.8851,,,,,,,,,,,,,,1,v,1.1149,0,1,4.3851,1.5,,,,,,23.0613391,0,2.387726776,,,,,,,,,,,,,0,81,81,69,1,0.488727763,1,,,,,,,,,,,,,,,,,,,,,,,,,,,,,,,,,,,,,,,,,,,,,,,,,,,,,,,,,,,,,,,,,,,,,,,,,,,,,,,,
,,62a75b7789c411b352595f2e,2022-09-08_13h19.03.526,CGTgamblingSpanTasks,2022.2.1,Win32,60.0276127,,,,,,,,3.1592,,,,,,,,,,,,,,1,v,0.8408,8.670591867,1,4.6592,1.5,,,,,,8.670591867,0,1.025847652,,,,,,,,,,,,,0,82,82,18,1,0.452680459,1,,,,,,,,,,,,,,,,,,,,,,,,,,,,,,,,,,,,,,,,,,,,,,,,,,,,,,,,,,,,,,,,,,,,,,,,,,,,,,,,
,,62a75b7789c411b352595f2e,2022-09-08_13h19.03.526,CGTgamblingSpanTasks,2022.2.1,Win32,60.0276127,,,,,,,,2.9494,,,,,,,,,,,,,,1,v,1.0506,19.68065872,1,3.9494,1,,,,,,19.68065872,0,1.843597162,,,,,,,,,,,,,0,83,83,80,1,0.514941058,1,,,,,,,,,,,,,,,,,,,,,,,,,,,,,,,,,,,,,,,,,,,,,,,,,,,,,,,,,,,,,,,,,,,,,,,,,,,,,,,,
,,62a75b7789c411b352595f2e,2022-09-08_13h19.03.526,CGTgamblingSpanTasks,2022.2.1,Win32,60.0276127,,,,,,,,2.773,,,,,,,,,,,,,,2,n,1.227,14.11762686,1,3.773,1,,,,,,14.11762686,0,8.579385201,,,,,,,,,,,,,0,84,84,60,1,0.073886959,0,,,,,,,,,,,,,,,,,,,,,,,,,,,,,,,,,,,,,,,,,,,,,,,,,,,,,,,,,,,,,,,,,,,,,,,,,,,,,,,,
,,62a75b7789c411b352595f2e,2022-09-08_13h19.03.526,CGTgamblingSpanTasks,2022.2.1,Win32,60.0276127,,,,,,,,2.0224,,,,,,,,,,,,,,1,n,1.9776,10.41201161,0,3.5224,1.5,,,,,,6.307062696,0,10.41201161,,,,,,,,,,,,,0,85,85,23,1,0.018187109,0,,,,,,,,,,,,,,,,,,,,,,,,,,,,,,,,,,,,,,,,,,,,,,,,,,,,,,,,,,,,,,,,,,,,,,,,,,,,,,,,
,,62a75b7789c411b352595f2e,2022-09-08_13h19.03.526,CGTgamblingSpanTasks,2022.2.1,Win32,60.0276127,,,,,,,,2.5681,,,,,,,,,,,,,,2,n,1.4319,0,1,3.5681,1,,,,,,7.534278541,0,0.747140182,,,,,,,,,,,,,0,86,86,37,1,0.50012466,1,,,,,,,,,,,,,,,,,,,,,,,,,,,,,,,,,,,,,,,,,,,,,,,,,,,,,,,,,,,,,,,,,,,,,,,,,,,,,,,,
,,62a75b7789c411b352595f2e,2022-09-08_13h19.03.526,CGTgamblingSpanTasks,2022.2.1,Win32,60.0276127,,,,,,,,3.1096,,,,,,,,,,,,,,2,n,0.8904,20.5726842,1,4.1096,1,,,,,,20.5726842,0,0.073558523,,,,,,,,,,,,,0,87,87,26,1,0.901008565,0,,,,,,,,,,,,,,,,,,,,,,,,,,,,,,,,,,,,,,,,,,,,,,,,,,,,,,,,,,,,,,,,,,,,,,,,,,,,,,,,
,,62a75b7789c411b352595f2e,2022-09-08_13h19.03.526,CGTgamblingSpanTasks,2022.2.1,Win32,60.0276127,,,,,,,,2.2669,,,,,,,,,,,,,,2,v,1.7331,6.781500919,0,3.2669,1,,,,,,8.363821911,0,6.781500919,,,,,,,,,,,,,0,88,88,61,1,0.044227959,0,,,,,,,,,,,,,,,,,,,,,,,,,,,,,,,,,,,,,,,,,,,,,,,,,,,,,,,,,,,,,,,,,,,,,,,,,,,,,,,,
,,62a75b7789c411b352595f2e,2022-09-08_13h19.03.526,CGTgamblingSpanTasks,2022.2.1,Win32,60.0276127,,,,,,,,2.3923,,,,,,,,,,,,,,2,n,1.6077,0,1,3.3923,1,,,,,,17.64114152,0,10.68505773,,,,,,,,,,,,,0,89,89,98,1,0.074299362,0,,,,,,,,,,,,,,,,,,,,,,,,,,,,,,,,,,,,,,,,,,,,,,,,,,,,,,,,,,,,,,,,,,,,,,,,,,,,,,,,
,,62a75b7789c411b352595f2e,2022-09-08_13h19.03.526,CGTgamblingSpanTasks,2022.2.1,Win32,60.0276127,,,,,,,,3.1777,,,,,,,,,,,,,,1,v,0.8223,17.30137174,1,4.6777,1.5,,,,,,17.30137174,0,1.716380842,,,,,,,,,,,,,0,90,90,20,1,0.500020285,1,,,,,,,,,,,,,,,,,,,,,,,,,,,,,,,,,,,,,,,,,,,,,,,,,,,,,,,,,,,,,,,,,,,,,,,,,,,,,,,,
,,62a75b7789c411b352595f2e,2022-09-08_13h19.03.526,CGTgamblingSpanTasks,2022.2.1,Win32,60.0276127,,,,,,,,3.0503,,,,,,,,,,,,,,1,v,0.9497,0,1,4.0503,1,,,,,,23.59556381,0,2.464662219,,,,,,,,,,,,,0,91,91,22,1,0.486383205,1,,,,,,,,,,,,,,,,,,,,,,,,,,,,,,,,,,,,,,,,,,,,,,,,,,,,,,,,,,,,,,,,,,,,,,,,,,,,,,,,
,,62a75b7789c411b352595f2e,2022-09-08_13h19.03.526,CGTgamblingSpanTasks,2022.2.1,Win32,60.0276127,,,,,,,,2.8529,,,,,,,,,,,,,,2,v,1.1471,11.61882862,0,4.3529,1.5,,,,,,4.022743614,0,11.61882862,,,,,,,,,,,,,0,92,92,38,1,0.011499376,0,,,,,,,,,,,,,,,,,,,,,,,,,,,,,,,,,,,,,,,,,,,,,,,,,,,,,,,,,,,,,,,,,,,,,,,,,,,,,,,,
,,62a75b7789c411b352595f2e,2022-09-08_13h19.03.526,CGTgamblingSpanTasks,2022.2.1,Win32,60.0276127,,,,,,,,2.9544,,,,,,,,,,,,,,1,n,1.0456,6.833409611,0,4.4544,1.5,,,,,,6.325091157,0,6.833409611,,,,,,,,,,,,,0,93,93,58,1,0.027113638,0,,,,,,,,,,,,,,,,,,,,,,,,,,,,,,,,,,,,,,,,,,,,,,,,,,,,,,,,,,,,,,,,,,,,,,,,,,,,,,,,
,,62a75b7789c411b352595f2e,2022-09-08_13h19.03.526,CGTgamblingSpanTasks,2022.2.1,Win32,60.0276127,,,,,,,,2.8433,,,,,,,,,,,,,,2,n,1.1567,24.57684014,1,4.3433,1.5,,,,,,24.57684014,0,0.061756244,,,,,,,,,,,,,0,94,94,68,1,0.911988903,0,,,,,,,,,,,,,,,,,,,,,,,,,,,,,,,,,,,,,,,,,,,,,,,,,,,,,,,,,,,,,,,,,,,,,,,,,,,,,,,,
,,62a75b7789c411b352595f2e,2022-09-08_13h19.03.526,CGTgamblingSpanTasks,2022.2.1,Win32,60.0276127,,,,,,,,1.6772,,,,,,,,,,,,,,1,v,2.3228,0,1,3.1772,1.5,,,,,,19.5450126,0,2.123581464,,,,,,,,,,,,,0,95,95,65,1,0.475836144,1,,,,,,,,,,,,,,,,,,,,,,,,,,,,,,,,,,,,,,,,,,,,,,,,,,,,,,,,,,,,,,,,,,,,,,,,,,,,,,,,
,,62a75b7789c411b352595f2e,2022-09-08_13h19.03.526,CGTgamblingSpanTasks,2022.2.1,Win32,60.0276127,,,,,,,,3.3597,,,,,,,,,,,,,,2,n,0.6403,0,1,4.3597,1,,,,,,24.8002852,0,0.071848086,,,,,,,,,,,,,0,96,96,16,1,0.90783559,0,,,,,,,,,,,,,,,,,,,,,,,,,,,,,,,,,,,,,,,,,,,,,,,,,,,,,,,,,,,,,,,,,,,,,,,,,,,,,,,,
,,62a75b7789c411b352595f2e,2022-09-08_13h19.03.526,CGTgamblingSpanTasks,2022.2.1,Win32,60.0276127,,,,,,,,3.3527,,,,,,,,,,,,,,2,n,0.6473,0,1,4.3527,1,,,,,,15.43649625,0,1.65459324,,,,,,,,,,,,,0,97,97,33,1,0.479480163,1,,,,,,,,,,,,,,,,,,,,,,,,,,,,,,,,,,,,,,,,,,,,,,,,,,,,,,,,,,,,,,,,,,,,,,,,,,,,,,,,
,,62a75b7789c411b352595f2e,2022-09-08_13h19.03.526,CGTgamblingSpanTasks,2022.2.1,Win32,60.0276127,,,,,,,,2.8274,,,,,,,,,,,,,,1,v,1.1726,0,1,3.8274,1,,,,,,28.13634754,0,2.532806323,,,,,,,,,,,,,0,98,98,28,1,0.525136524,1,,,,,,,,,,,,,,,,,,,,,,,,,,,,,,,,,,,,,,,,,,,,,,,,,,,,,,,,,,,,,,,,,,,,,,,,,,,,,,,,
,,62a75b7789c411b352595f2e,2022-09-08_13h19.03.526,CGTgamblingSpanTasks,2022.2.1,Win32,60.0276127,,,,,,,,3.4248,,,,,,,,,,,,,,2,n,0.5752,0,1,4.4248,1,,,,,,27.2532142,0,0.08089327,,,,,,,,,,,,,0,99,99,119,1,0.907091845,0,,,,,,,,,,,,,,,,,,,,,,,,,,,,,,,,,,,,,,,,,,,,,,,,,,,,,,,,,,,,,,,,,,,,,,,,,,,,,,,,
,,62a75b7789c411b352595f2e,2022-09-08_13h19.03.526,CGTgamblingSpanTasks,2022.2.1,Win32,60.0276127,,,,,,,,3.3899,,,,,,,,,,,,,,2,n,0.6101,0,1,4.8899,1.5,,,,,,24.479109,0,0.089582697,,,,,,,,,,,,,0,100,100,89,1,0.900200232,0,,,,,,,,,,,,,,,,,,,,,,,,,,,,,,,,,,,,,,,,,,,,,,,,,,,,,,,,,,,,,,,,,,,,,,,,,,,,,,,,
,,62a75b7789c411b352595f2e,2022-09-08_13h19.03.526,CGTgamblingSpanTasks,2022.2.1,Win32,60.0276127,,,,,,,,3.2422,,,,,,,,,,,,,,1,v,0.7578,21.03408097,1,4.7422,1.5,,,,,,21.03408097,0,2.208275162,,,,,,,,,,,,,0,101,101,0,1,0.485031246,1,,,,,,,,,,,,,,,,,,,,,,,,,,,,,,,,,,,,,,,,,,,,,,,,,,,,,,,,,,,,,,,,,,,,,,,,,,,,,,,,
,,62a75b7789c411b352595f2e,2022-09-08_13h19.03.526,CGTgamblingSpanTasks,2022.2.1,Win32,60.0276127,,,,,,,,3.2936,,,,,,,,,,,,,,1,v,0.7064,21.39646914,1,4.2936,1,,,,,,21.39646914,0,0.072474078,,,,,,,,,,,,,0,102,102,3,1,0.902848133,0,,,,,,,,,,,,,,,,,,,,,,,,,,,,,,,,,,,,,,,,,,,,,,,,,,,,,,,,,,,,,,,,,,,,,,,,,,,,,,,,
,,62a75b7789c411b352595f2e,2022-09-08_13h19.03.526,CGTgamblingSpanTasks,2022.2.1,Win32,60.0276127,,,,,,,,1.7273,,,,,,,,,,,,,,2,v,2.2727,4.904872644,0,3.2273,1.5,,,,,,4.698775357,0,4.904872644,,,,,,,,,,,,,0,103,103,75,1,0.028064484,0,,,,,,,,,,,,,,,,,,,,,,,,,,,,,,,,,,,,,,,,,,,,,,,,,,,,,,,,,,,,,,,,,,,,,,,,,,,,,,,,
,,62a75b7789c411b352595f2e,2022-09-08_13h19.03.526,CGTgamblingSpanTasks,2022.2.1,Win32,60.0276127,,,,,,,,3.2295,,,,,,,,,,,,,,2,n,0.7705,22.72923833,1,4.7295,1.5,,,,,,22.72923833,0,0.067170781,,,,,,,,,,,,,0,104,104,86,1,0.907226703,0,,,,,,,,,,,,,,,,,,,,,,,,,,,,,,,,,,,,,,,,,,,,,,,,,,,,,,,,,,,,,,,,,,,,,,,,,,,,,,,,
,,62a75b7789c411b352595f2e,2022-09-08_13h19.03.526,CGTgamblingSpanTasks,2022.2.1,Win32,60.0276127,,,,,,,,3.3492,,,,,,,,,,,,,,1,v,0.6508,28.68598705,1,4.3492,1,,,,,,28.68598705,0,0.050674956,,,,,,,,,,,,,0,105,105,62,1,0.920905497,0,,,,,,,,,,,,,,,,,,,,,,,,,,,,,,,,,,,,,,,,,,,,,,,,,,,,,,,,,,,,,,,,,,,,,,,,,,,,,,,,
,,62a75b7789c411b352595f2e,2022-09-08_13h19.03.526,CGTgamblingSpanTasks,2022.2.1,Win32,60.0276127,,,,,,,,3.0019,,,,,,,,,,,,,,1,v,0.9981,0,1,4.0019,1,,,,,,6.662965216,0,6.091504705,,,,,,,,,,,,,0,106,106,102,1,0.035087099,0,,,,,,,,,,,,,,,,,,,,,,,,,,,,,,,,,,,,,,,,,,,,,,,,,,,,,,,,,,,,,,,,,,,,,,,,,,,,,,,,
,,62a75b7789c411b352595f2e,2022-09-08_13h19.03.526,CGTgamblingSpanTasks,2022.2.1,Win32,60.0276127,,,,,,,,3.0543,,,,,,,,,,,,,,2,n,0.9457,17.85020524,1,4.0543,1,,,,,,17.85020524,0,2.058701084,,,,,,,,,,,,,0,107,107,25,1,0.459662216,1,,,,,,,,,,,,,,,,,,,,,,,,,,,,,,,,,,,,,,,,,,,,,,,,,,,,,,,,,,,,,,,,,,,,,,,,,,,,,,,,
,,62a75b7789c411b352595f2e,2022-09-08_13h19.03.526,CGTgamblingSpanTasks,2022.2.1,Win32,60.0276127,,,,,,,,2.1929,,,,,,,,,,,,,,2,v,1.8071,4.251676631,0,3.1929,1,,,,,,3.395192929,0,4.251676631,,,,,,,,,,,,,0,108,108,7,1,0.023467153,0,,,,,,,,,,,,,,,,,,,,,,,,,,,,,,,,,,,,,,,,,,,,,,,,,,,,,,,,,,,,,,,,,,,,,,,,,,,,,,,,
,,62a75b7789c411b352595f2e,2022-09-08_13h19.03.526,CGTgamblingSpanTasks,2022.2.1,Win32,60.0276127,,,,,,,,3.0374,,,,,,,,,,,,,,2,n,0.9626,25.54604005,1,4.5374,1.5,,,,,,25.54604005,0,0.088845411,,,,,,,,,,,,,0,109,109,79,1,0.901957831,0,,,,,,,,,,,,,,,,,,,,,,,,,,,,,,,,,,,,,,,,,,,,,,,,,,,,,,,,,,,,,,,,,,,,,,,,,,,,,,,,
,,62a75b7789c411b352595f2e,2022-09-08_13h19.03.526,CGTgamblingSpanTasks,2022.2.1,Win32,60.0276127,,,,,,,,2.6665,,,,,,,,,,,,,,2,n,1.3335,0,1,3.6665,1,,,,,,28.94627214,0,2.701896413,,,,,,,,,,,,,0,110,110,111,1,0.515860759,1,,,,,,,,,,,,,,,,,,,,,,,,,,,,,,,,,,,,,,,,,,,,,,,,,,,,,,,,,,,,,,,,,,,,,,,,,,,,,,,,
,,62a75b7789c411b352595f2e,2022-09-08_13h19.03.526,CGTgamblingSpanTasks,2022.2.1,Win32,60.0276127,,,,,,,,2.89,,,,,,,,,,,,,,2,n,1.11,0,1,3.89,1,,,,,,17.23907308,0,2.055848574,,,,,,,,,,,,,0,111,111,66,1,0.450504458,1,,,,,,,,,,,,,,,,,,,,,,,,,,,,,,,,,,,,,,,,,,,,,,,,,,,,,,,,,,,,,,,,,,,,,,,,,,,,,,,,
,,62a75b7789c411b352595f2e,2022-09-08_13h19.03.526,CGTgamblingSpanTasks,2022.2.1,Win32,60.0276127,,,,,,,,2.7798,,,,,,,,,,,,,,2,v,1.2202,4.462262453,0,3.7798,1,,,,,,0.192759042,0,4.462262453,,,,,,,,,,,,,0,112,112,52,1,0.003553223,0,,,,,,,,,,,,,,,,,,,,,,,,,,,,,,,,,,,,,,,,,,,,,,,,,,,,,,,,,,,,,,,,,,,,,,,,,,,,,,,,
,,62a75b7789c411b352595f2e,2022-09-08_13h19.03.526,CGTgamblingSpanTasks,2022.2.1,Win32,60.0276127,,,,,,,,3.4256,,,,,,,,,,,,,,1,v,0.5744,24.66627941,1,4.9256,1.5,,,,,,24.66627941,0,2.765426402,,,,,,,,,,,,,0,113,113,24,1,0.467360588,1,,,,,,,,,,,,,,,,,,,,,,,,,,,,,,,,,,,,,,,,,,,,,,,,,,,,,,,,,,,,,,,,,,,,,,,,,,,,,,,,
,,62a75b7789c411b352595f2e,2022-09-08_13h19.03.526,CGTgamblingSpanTasks,2022.2.1,Win32,60.0276127,,,,,,,,2.3903,,,,,,,,,,,,,,1,v,1.6097,0,1,3.8903,1.5,,,,,,27.57491653,0,2.99133314,,,,,,,,,,,,,0,114,114,10,1,0.47625893,1,,,,,,,,,,,,,,,,,,,,,,,,,,,,,,,,,,,,,,,,,,,,,,,,,,,,,,,,,,,,,,,,,,,,,,,,,,,,,,,,
,,62a75b7789c411b352595f2e,2022-09-08_13h19.03.526,CGTgamblingSpanTasks,2022.2.1,Win32,60.0276127,,,,,,,,3.2714,,,,,,,,,,,,,,2,v,0.7286,11.35147481,0,4.2714,1,,,,,,17.67865084,0,11.35147481,,,,,,,,,,,,,0,115,115,91,1,0.067304606,0,,,,,,,,,,,,,,,,,,,,,,,,,,,,,,,,,,,,,,,,,,,,,,,,,,,,,,,,,,,,,,,,,,,,,,,,,,,,,,,,
,,62a75b7789c411b352595f2e,2022-09-08_13h19.03.526,CGTgamblingSpanTasks,2022.2.1,Win32,60.0276127,,,,,,,,2.9587,,,,,,,,,,,,,,2,n,1.0413,18.11029021,1,3.9587,1,,,,,,18.11029021,0,11.41737518,,,,,,,,,,,,,0,116,116,48,1,0.069445859,0,,,,,,,,,,,,,,,,,,,,,,,,,,,,,,,,,,,,,,,,,,,,,,,,,,,,,,,,,,,,,,,,,,,,,,,,,,,,,,,,
,,62a75b7789c411b352595f2e,2022-09-08_13h19.03.526,CGTgamblingSpanTasks,2022.2.1,Win32,60.0276127,,,,,,,,2.5637,,,,,,,,,,,,,,2,n,1.4363,0,1,3.5637,1,,,,,,17.4320197,0,1.448620949,,,,,,,,,,,,,0,117,117,30,1,0.545178213,1,,,,,,,,,,,,,,,,,,,,,,,,,,,,,,,,,,,,,,,,,,,,,,,,,,,,,,,,,,,,,,,,,,,,,,,,,,,,,,,,
,,62a75b7789c411b352595f2e,2022-09-08_13h19.03.526,CGTgamblingSpanTasks,2022.2.1,Win32,60.0276127,,,,,,,,1.9515,,,,,,,,,,,,,,1,v,2.0485,25.26994993,1,3.4515,1.5,,,,,,25.26994993,0,2.78925142,,,,,,,,,,,,,0,118,118,108,1,0.471582922,1,,,,,,,,,,,,,,,,,,,,,,,,,,,,,,,,,,,,,,,,,,,,,,,,,,,,,,,,,,,,,,,,,,,,,,,,,,,,,,,,
,,62a75b7789c411b352595f2e,2022-09-08_13h19.03.526,CGTgamblingSpanTasks,2022.2.1,Win32,60.0276127,,,,,,,,2.0886,,,,,,,,,,,,,,1,n,1.9114,7.850775577,0,3.5886,1.5,,,,,,4.622707531,0,7.850775577,,,,,,,,,,,,,0,119,119,6,1,0.017737407,0,,,,,,,,,,,,,,,,,,,,,,,,,,,,,,,,,,,,,,,,,,,,,,,,,,,,,,,,,,,,,,,,,,,,,,,,,,,,,,,,
,,62a75b7789c411b352595f2e,2022-09-08_13h19.03.526,CGTgamblingSpanTasks,2022.2.1,Win32,60.0276127,,,,,,,,,,,,,,,,,,,,,,,,,,,,,,,,,,,,,,,,,,,,,,,,,,,,,,,,return,172.5128,,,,,,,,,,,,,,,,,,,,,,,,,,,,,,,,,,,,,,,,,,,,,,,,,,,,,,,,,,,,,,,,,,,,,,,,,,,,,,
,,62a75b7789c411b352595f2e,2022-09-08_13h19.03.526,CGTgamblingSpanTasks,2022.2.1,Win32,60.0276127,,,,,,,,,,,,,,,,,,,,,,,,,,,,,,,,,,,,,,,,,,,,,,,,,,,,,,,,,,return,10.6488,,,,,,,,,,,,,,,,,,,,,,,,,,,,,,,,,,,,,,,,,,,,,,,,,,,,,,,,,,,,,,,,,,,,,,,,,,,,
,,62a75b7789c411b352595f2e,2022-09-08_13h19.03.526,CGTgamblingSpanTasks,2022.2.1,Win32,60.0276127,,,,,,,,,,,,,,,,,,,,,,,,,,,,,,,,,,,,,,,,,,,,,,,,,,,,,,,,,,,,return,15.0663,,,,,,,,,,,,,,,,,,,,,,,,,,,,,,,,,,,,,,,,,,,,,,,,,,,,,,,,,,,,,,,,,,,,,,,,,,
,,62a75b7789c411b352595f2e,2022-09-08_13h19.03.526,CGTgamblingSpanTasks,2022.2.1,Win32,60.0276127,,,,,,,,,,,,,,,,,,,,,,,,,,,,,,,,,,,,,,,,,,,,,,,,,,,,,,,,,,,,,,42,0,-0.010185171,-0.401851866,1,0,0,cont_buttonPractice,0,0,0,0,1,3,342,24,2,42,,,,,,,,,,,,,,,,,,,,,,,,,,,,,,,,,,,,,,,,,,,,,,,,,,,,,,,,
,,62a75b7789c411b352595f2e,2022-09-08_13h19.03.526,CGTgamblingSpanTasks,2022.2.1,Win32,60.0276127,,,,,,,,,,,,,,,,,,,,,,,,,,,,,,,,,,,,,,,,,,,,,,,,,,,,,,,,,,,,,,937,1,0.023148148,-0.387962977,1,0,0,cont_buttonPractice,0,1,1,1,1,3,937,73,2,37,,,,,,,,,,,,,,,,,,,,,,,,,,,,,,,,,,,,,,,,,,,,,,,,,,,,,,,,
,,62a75b7789c411b352595f2e,2022-09-08_13h19.03.526,CGTgamblingSpanTasks,2022.2.1,Win32,60.0276127,,,,,,,,,,,,,,,,,,,,,,,,,,,,,,,,,,,,,,,,,,,,,,,,,,,,,,,,,,,,,,,,,,,,,,,,,,,,,,,,return,6.4338,,,,,,,,,,,,,,,,,,,,,,,,,,,,,,,,,,,,,,,,,,,,,,,,,,,,,,
,,62a75b7789c411b352595f2e,2022-09-08_13h19.03.526,CGTgamblingSpanTasks,2022.2.1,Win32,60.0276127,,,,,,,,,,,,,,,,,,,,,,,,,,,,,,,,,,,,,,,,,,,,,,,,,,,,,,,,,,,,,,,,,,,,,,,,,,,,,,,,,,"[4,1,9]",0,0,0,0,1,,,,,,,,,,,,,,,,,,,,,,,,,,,,,,,,,,,,,,,,,,,,,,,,
,,62a75b7789c411b352595f2e,2022-09-08_13h19.03.526,CGTgamblingSpanTasks,2022.2.1,Win32,60.0276127,,,,,,,,,,,,,,,,,,,,,,,,,,,,,,,,,,,,,,,,,,,,,,,,,,,,,,,,,,,,,,,,,,,,,,,,,,,,,,,,,,"[4,1,9]",1,0,1,0,1,,,,,,,,,,,,,,,,,,,,,,,,,,,,,,,,,,,,,,,,,,,,,,,,
,,62a75b7789c411b352595f2e,2022-09-08_13h19.03.526,CGTgamblingSpanTasks,2022.2.1,Win32,60.0276127,,,,,,,,,,,,,,,,,,,,,,,,,,,,,,,,,,,,,,,,,,,,,,,,,,,,,,,,,,,,,,,,,,,,,,,,,,,,,,,,,,"[4,1,9]",2,0,2,0,1,,,,,,,,,,,,,,,,,,,,,,,,,,,,,,,,,,,,,,,,,,,,,,,,
,,62a75b7789c411b352595f2e,2022-09-08_13h19.03.526,CGTgamblingSpanTasks,2022.2.1,Win32,60.0276127,,,,,,,,,,,,,,,,,,,,,,,,,,,,,,,,,,,,,,,,,,,,,,,,,,,,,,,,,,,,,,,1,,,,,,,,,,,,,,,,,,,,,,,,,419,0.006481524,-0.412037037,1,0,0,cont_button,0,0,0,0,1,1,,,,,,,,,,,,,,,,,,,,,,,,,,,,,,,,,,,
,,62a75b7789c411b352595f2e,2022-09-08_13h19.03.526,CGTgamblingSpanTasks,2022.2.1,Win32,60.0276127,,,,,,,,,,,,,,,,,,,,,,,,,,,,,,,,,,,,,,,,,,,,,,,,,,,,,,,,,,,,,,,,,,,,,,,,,,,,,,,,,,"[4,9,3,6]",0,0,0,0,1,,,,,,,,,,,,,,,,,,,,,,,,,,,,,,,,,,,,,,,,,,,,,,,,
,,62a75b7789c411b352595f2e,2022-09-08_13h19.03.526,CGTgamblingSpanTasks,2022.2.1,Win32,60.0276127,,,,,,,,,,,,,,,,,,,,,,,,,,,,,,,,,,,,,,,,,,,,,,,,,,,,,,,,,,,,,,,,,,,,,,,,,,,,,,,,,,"[4,9,3,6]",1,0,1,0,1,,,,,,,,,,,,,,,,,,,,,,,,,,,,,,,,,,,,,,,,,,,,,,,,
,,62a75b7789c411b352595f2e,2022-09-08_13h19.03.526,CGTgamblingSpanTasks,2022.2.1,Win32,60.0276127,,,,,,,,,,,,,,,,,,,,,,,,,,,,,,,,,,,,,,,,,,,,,,,,,,,,,,,,,,,,,,,,,,,,,,,,,,,,,,,,,,"[4,9,3,6]",2,0,2,0,1,,,,,,,,,,,,,,,,,,,,,,,,,,,,,,,,,,,,,,,,,,,,,,,,
,,62a75b7789c411b352595f2e,2022-09-08_13h19.03.526,CGTgamblingSpanTasks,2022.2.1,Win32,60.0276127,,,,,,,,,,,,,,,,,,,,,,,,,,,,,,,,,,,,,,,,,,,,,,,,,,,,,,,,,,,,,,,,,,,,,,,,,,,,,,,,,,"[4,9,3,6]",3,0,3,0,1,,,,,,,,,,,,,,,,,,,,,,,,,,,,,,,,,,,,,,,,,,,,,,,,
,,62a75b7789c411b352595f2e,2022-09-08_13h19.03.526,CGTgamblingSpanTasks,2022.2.1,Win32,60.0276127,,,,,,,,,,,,,,,,,,,,,,,,,,,,,,,,,,,,,,,,,,,,,,,,,,,,,,,,,,,,,,,1,,,,,,,,,,,,,,,,,,,,,,,,,4936,0.006481524,-0.412037037,1,0,0,cont_button,0,1,1,1,1,2,,,,,,,,,,,,,,,,,,,,,,,,,,,,,,,,,,,
,,62a75b7789c411b352595f2e,2022-09-08_13h19.03.526,CGTgamblingSpanTasks,2022.2.1,Win32,60.0276127,,,,,,,,,,,,,,,,,,,,,,,,,,,,,,,,,,,,,,,,,,,,,,,,,,,,,,,,,,,,,,,,,,,,,,,,,,,,,,,,,,"[4,2,3,7,9]",0,0,0,0,1,,,,,,,,,,,,,,,,,,,,,,,,,,,,,,,,,,,,,,,,,,,,,,,,
,,62a75b7789c411b352595f2e,2022-09-08_13h19.03.526,CGTgamblingSpanTasks,2022.2.1,Win32,60.0276127,,,,,,,,,,,,,,,,,,,,,,,,,,,,,,,,,,,,,,,,,,,,,,,,,,,,,,,,,,,,,,,,,,,,,,,,,,,,,,,,,,"[4,2,3,7,9]",1,0,1,0,1,,,,,,,,,,,,,,,,,,,,,,,,,,,,,,,,,,,,,,,,,,,,,,,,
,,62a75b7789c411b352595f2e,2022-09-08_13h19.03.526,CGTgamblingSpanTasks,2022.2.1,Win32,60.0276127,,,,,,,,,,,,,,,,,,,,,,,,,,,,,,,,,,,,,,,,,,,,,,,,,,,,,,,,,,,,,,,,,,,,,,,,,,,,,,,,,,"[4,2,3,7,9]",2,0,2,0,1,,,,,,,,,,,,,,,,,,,,,,,,,,,,,,,,,,,,,,,,,,,,,,,,
,,62a75b7789c411b352595f2e,2022-09-08_13h19.03.526,CGTgamblingSpanTasks,2022.2.1,Win32,60.0276127,,,,,,,,,,,,,,,,,,,,,,,,,,,,,,,,,,,,,,,,,,,,,,,,,,,,,,,,,,,,,,,,,,,,,,,,,,,,,,,,,,"[4,2,3,7,9]",3,0,3,0,1,,,,,,,,,,,,,,,,,,,,,,,,,,,,,,,,,,,,,,,,,,,,,,,,
,,62a75b7789c411b352595f2e,2022-09-08_13h19.03.526,CGTgamblingSpanTasks,2022.2.1,Win32,60.0276127,,,,,,,,,,,,,,,,,,,,,,,,,,,,,,,,,,,,,,,,,,,,,,,,,,,,,,,,,,,,,,,,,,,,,,,,,,,,,,,,,,"[4,2,3,7,9]",4,0,4,0,1,,,,,,,,,,,,,,,,,,,,,,,,,,,,,,,,,,,,,,,,,,,,,,,,
,,62a75b7789c411b352595f2e,2022-09-08_13h19.03.526,CGTgamblingSpanTasks,2022.2.1,Win32,60.0276127,,,,,,,,,,,,,,,,,,,,,,,,,,,,,,,,,,,,,,,,,,,,,,,,,,,,,,,,,,,,,,,1,,,,,,,,,,,,,,,,,,,,,,,,,42379,0.006481524,-0.412037037,1,0,0,cont_button,0,2,2,2,1,3,,,,,,,,,,,,,,,,,,,,,,,,,,,,,,,,,,,
,,62a75b7789c411b352595f2e,2022-09-08_13h19.03.526,CGTgamblingSpanTasks,2022.2.1,Win32,60.0276127,,,,,,,,,,,,,,,,,,,,,,,,,,,,,,,,,,,,,,,,,,,,,,,,,,,,,,,,,,,,,,,,,,,,,,,,,,,,,,,,,,"[5,9,1,7,8,2]",0,0,0,0,1,,,,,,,,,,,,,,,,,,,,,,,,,,,,,,,,,,,,,,,,,,,,,,,,
,,62a75b7789c411b352595f2e,2022-09-08_13h19.03.526,CGTgamblingSpanTasks,2022.2.1,Win32,60.0276127,,,,,,,,,,,,,,,,,,,,,,,,,,,,,,,,,,,,,,,,,,,,,,,,,,,,,,,,,,,,,,,,,,,,,,,,,,,,,,,,,,"[5,9,1,7,8,2]",1,0,1,0,1,,,,,,,,,,,,,,,,,,,,,,,,,,,,,,,,,,,,,,,,,,,,,,,,
,,62a75b7789c411b352595f2e,2022-09-08_13h19.03.526,CGTgamblingSpanTasks,2022.2.1,Win32,60.0276127,,,,,,,,,,,,,,,,,,,,,,,,,,,,,,,,,,,,,,,,,,,,,,,,,,,,,,,,,,,,,,,,,,,,,,,,,,,,,,,,,,"[5,9,1,7,8,2]",2,0,2,0,1,,,,,,,,,,,,,,,,,,,,,,,,,,,,,,,,,,,,,,,,,,,,,,,,
,,62a75b7789c411b352595f2e,2022-09-08_13h19.03.526,CGTgamblingSpanTasks,2022.2.1,Win32,60.0276127,,,,,,,,,,,,,,,,,,,,,,,,,,,,,,,,,,,,,,,,,,,,,,,,,,,,,,,,,,,,,,,,,,,,,,,,,,,,,,,,,,"[5,9,1,7,8,2]",3,0,3,0,1,,,,,,,,,,,,,,,,,,,,,,,,,,,,,,,,,,,,,,,,,,,,,,,,
,,62a75b7789c411b352595f2e,2022-09-08_13h19.03.526,CGTgamblingSpanTasks,2022.2.1,Win32,60.0276127,,,,,,,,,,,,,,,,,,,,,,,,,,,,,,,,,,,,,,,,,,,,,,,,,,,,,,,,,,,,,,,,,,,,,,,,,,,,,,,,,,"[5,9,1,7,8,2]",4,0,4,0,1,,,,,,,,,,,,,,,,,,,,,,,,,,,,,,,,,,,,,,,,,,,,,,,,
,,62a75b7789c411b352595f2e,2022-09-08_13h19.03.526,CGTgamblingSpanTasks,2022.2.1,Win32,60.0276127,,,,,,,,,,,,,,,,,,,,,,,,,,,,,,,,,,,,,,,,,,,,,,,,,,,,,,,,,,,,,,,,,,,,,,,,,,,,,,,,,,"[5,9,1,7,8,2]",5,0,5,0,1,,,,,,,,,,,,,,,,,,,,,,,,,,,,,,,,,,,,,,,,,,,,,,,,
,,62a75b7789c411b352595f2e,2022-09-08_13h19.03.526,CGTgamblingSpanTasks,2022.2.1,Win32,60.0276127,,,,,,,,,,,,,,,,,,,,,,,,,,,,,,,,,,,,,,,,,,,,,,,,,,,,,,,,,,,,,,,1,,,,,,,,,,,,,,,,,,,,,,,,,591782,0.006481524,-0.412037037,1,0,0,cont_button,0,3,3,3,1,4,,,,,,,,,,,,,,,,,,,,,,,,,,,,,,,,,,,
,,62a75b7789c411b352595f2e,2022-09-08_13h19.03.526,CGTgamblingSpanTasks,2022.2.1,Win32,60.0276127,,,,,,,,,,,,,,,,,,,,,,,,,,,,,,,,,,,,,,,,,,,,,,,,,,,,,,,,,,,,,,,,,,,,,,,,,,,,,,,,,,"[2,6,4,9,5,8,1]",0,0,0,0,1,,,,,,,,,,,,,,,,,,,,,,,,,,,,,,,,,,,,,,,,,,,,,,,,
,,62a75b7789c411b352595f2e,2022-09-08_13h19.03.526,CGTgamblingSpanTasks,2022.2.1,Win32,60.0276127,,,,,,,,,,,,,,,,,,,,,,,,,,,,,,,,,,,,,,,,,,,,,,,,,,,,,,,,,,,,,,,,,,,,,,,,,,,,,,,,,,"[2,6,4,9,5,8,1]",1,0,1,0,1,,,,,,,,,,,,,,,,,,,,,,,,,,,,,,,,,,,,,,,,,,,,,,,,
,,62a75b7789c411b352595f2e,2022-09-08_13h19.03.526,CGTgamblingSpanTasks,2022.2.1,Win32,60.0276127,,,,,,,,,,,,,,,,,,,,,,,,,,,,,,,,,,,,,,,,,,,,,,,,,,,,,,,,,,,,,,,,,,,,,,,,,,,,,,,,,,"[2,6,4,9,5,8,1]",2,0,2,0,1,,,,,,,,,,,,,,,,,,,,,,,,,,,,,,,,,,,,,,,,,,,,,,,,
,,62a75b7789c411b352595f2e,2022-09-08_13h19.03.526,CGTgamblingSpanTasks,2022.2.1,Win32,60.0276127,,,,,,,,,,,,,,,,,,,,,,,,,,,,,,,,,,,,,,,,,,,,,,,,,,,,,,,,,,,,,,,,,,,,,,,,,,,,,,,,,,"[2,6,4,9,5,8,1]",3,0,3,0,1,,,,,,,,,,,,,,,,,,,,,,,,,,,,,,,,,,,,,,,,,,,,,,,,
,,62a75b7789c411b352595f2e,2022-09-08_13h19.03.526,CGTgamblingSpanTasks,2022.2.1,Win32,60.0276127,,,,,,,,,,,,,,,,,,,,,,,,,,,,,,,,,,,,,,,,,,,,,,,,,,,,,,,,,,,,,,,,,,,,,,,,,,,,,,,,,,"[2,6,4,9,5,8,1]",4,0,4,0,1,,,,,,,,,,,,,,,,,,,,,,,,,,,,,,,,,,,,,,,,,,,,,,,,
,,62a75b7789c411b352595f2e,2022-09-08_13h19.03.526,CGTgamblingSpanTasks,2022.2.1,Win32,60.0276127,,,,,,,,,,,,,,,,,,,,,,,,,,,,,,,,,,,,,,,,,,,,,,,,,,,,,,,,,,,,,,,,,,,,,,,,,,,,,,,,,,"[2,6,4,9,5,8,1]",5,0,5,0,1,,,,,,,,,,,,,,,,,,,,,,,,,,,,,,,,,,,,,,,,,,,,,,,,
,,62a75b7789c411b352595f2e,2022-09-08_13h19.03.526,CGTgamblingSpanTasks,2022.2.1,Win32,60.0276127,,,,,,,,,,,,,,,,,,,,,,,,,,,,,,,,,,,,,,,,,,,,,,,,,,,,,,,,,,,,,,,,,,,,,,,,,,,,,,,,,,"[2,6,4,9,5,8,1]",6,0,6,0,1,,,,,,,,,,,,,,,,,,,,,,,,,,,,,,,,,,,,,,,,,,,,,,,,
,,62a75b7789c411b352595f2e,2022-09-08_13h19.03.526,CGTgamblingSpanTasks,2022.2.1,Win32,60.0276127,,,,,,,,,,,,,,,,,,,,,,,,,,,,,,,,,,,,,,,,,,,,,,,,,,,,,,,,,,,,,,,0,,,,,,,,,,,,,,,,,,,,,,,,,2645981,0.006481524,-0.412037037,1,0,0,cont_button,0,4,4,4,1,5,,,,,,,,,,,,,,,,,,,,,,,,,,,,,,,,,,,
,,62a75b7789c411b352595f2e,2022-09-08_13h19.03.526,CGTgamblingSpanTasks,2022.2.1,Win32,60.0276127,,,,,,,,,,,,,,,,,,,,,,,,,,,,,,,,,,,,,,,,,,,,,,,,,,,,,,,,,,,,,,,,,,,,,,,,,,,,,,,,,,"[8,5,7,3,9,4,1]",0,0,0,0,1,,,,,,,,,,,,,,,,,,,,,,,,,,,,,,,,,,,,,,,,,,,,,,,,
,,62a75b7789c411b352595f2e,2022-09-08_13h19.03.526,CGTgamblingSpanTasks,2022.2.1,Win32,60.0276127,,,,,,,,,,,,,,,,,,,,,,,,,,,,,,,,,,,,,,,,,,,,,,,,,,,,,,,,,,,,,,,,,,,,,,,,,,,,,,,,,,"[8,5,7,3,9,4,1]",1,0,1,0,1,,,,,,,,,,,,,,,,,,,,,,,,,,,,,,,,,,,,,,,,,,,,,,,,
,,62a75b7789c411b352595f2e,2022-09-08_13h19.03.526,CGTgamblingSpanTasks,2022.2.1,Win32,60.0276127,,,,,,,,,,,,,,,,,,,,,,,,,,,,,,,,,,,,,,,,,,,,,,,,,,,,,,,,,,,,,,,,,,,,,,,,,,,,,,,,,,"[8,5,7,3,9,4,1]",2,0,2,0,1,,,,,,,,,,,,,,,,,,,,,,,,,,,,,,,,,,,,,,,,,,,,,,,,
,,62a75b7789c411b352595f2e,2022-09-08_13h19.03.526,CGTgamblingSpanTasks,2022.2.1,Win32,60.0276127,,,,,,,,,,,,,,,,,,,,,,,,,,,,,,,,,,,,,,,,,,,,,,,,,,,,,,,,,,,,,,,,,,,,,,,,,,,,,,,,,,"[8,5,7,3,9,4,1]",3,0,3,0,1,,,,,,,,,,,,,,,,,,,,,,,,,,,,,,,,,,,,,,,,,,,,,,,,
,,62a75b7789c411b352595f2e,2022-09-08_13h19.03.526,CGTgamblingSpanTasks,2022.2.1,Win32,60.0276127,,,,,,,,,,,,,,,,,,,,,,,,,,,,,,,,,,,,,,,,,,,,,,,,,,,,,,,,,,,,,,,,,,,,,,,,,,,,,,,,,,"[8,5,7,3,9,4,1]",4,0,4,0,1,,,,,,,,,,,,,,,,,,,,,,,,,,,,,,,,,,,,,,,,,,,,,,,,
,,62a75b7789c411b352595f2e,2022-09-08_13h19.03.526,CGTgamblingSpanTasks,2022.2.1,Win32,60.0276127,,,,,,,,,,,,,,,,,,,,,,,,,,,,,,,,,,,,,,,,,,,,,,,,,,,,,,,,,,,,,,,,,,,,,,,,,,,,,,,,,,"[8,5,7,3,9,4,1]",5,0,5,0,1,,,,,,,,,,,,,,,,,,,,,,,,,,,,,,,,,,,,,,,,,,,,,,,,
,,62a75b7789c411b352595f2e,2022-09-08_13h19.03.526,CGTgamblingSpanTasks,2022.2.1,Win32,60.0276127,,,,,,,,,,,,,,,,,,,,,,,,,,,,,,,,,,,,,,,,,,,,,,,,,,,,,,,,,,,,,,,,,,,,,,,,,,,,,,,,,,"[8,5,7,3,9,4,1]",6,0,6,0,1,,,,,,,,,,,,,,,,,,,,,,,,,,,,,,,,,,,,,,,,,,,,,,,,
,,62a75b7789c411b352595f2e,2022-09-08_13h19.03.526,CGTgamblingSpanTasks,2022.2.1,Win32,60.0276127,,,,,,,,,,,,,,,,,,,,,,,,,,,,,,,,,,,,,,,,,,,,,,,,,,,,,,,,,,,,,,,1,,,,,,,,,,,,,,,,,,,,,,,,,8573941,0.006481524,-0.412037037,1,0,0,cont_button,0,5,5,5,1,6,,,,,,,,,,,,,,,,,,,,,,,,,,,,,,,,,,,
,,62a75b7789c411b352595f2e,2022-09-08_13h19.03.526,CGTgamblingSpanTasks,2022.2.1,Win32,60.0276127,,,,,,,,,,,,,,,,,,,,,,,,,,,,,,,,,,,,,,,,,,,,,,,,,,,,,,,,,,,,,,,,,,,,,,,,,,,,,,,,,,"[1,4,5,9,6,8,7,2]",0,0,0,0,1,,,,,,,,,,,,,,,,,,,,,,,,,,,,,,,,,,,,,,,,,,,,,,,,
,,62a75b7789c411b352595f2e,2022-09-08_13h19.03.526,CGTgamblingSpanTasks,2022.2.1,Win32,60.0276127,,,,,,,,,,,,,,,,,,,,,,,,,,,,,,,,,,,,,,,,,,,,,,,,,,,,,,,,,,,,,,,,,,,,,,,,,,,,,,,,,,"[1,4,5,9,6,8,7,2]",1,0,1,0,1,,,,,,,,,,,,,,,,,,,,,,,,,,,,,,,,,,,,,,,,,,,,,,,,
,,62a75b7789c411b352595f2e,2022-09-08_13h19.03.526,CGTgamblingSpanTasks,2022.2.1,Win32,60.0276127,,,,,,,,,,,,,,,,,,,,,,,,,,,,,,,,,,,,,,,,,,,,,,,,,,,,,,,,,,,,,,,,,,,,,,,,,,,,,,,,,,"[1,4,5,9,6,8,7,2]",2,0,2,0,1,,,,,,,,,,,,,,,,,,,,,,,,,,,,,,,,,,,,,,,,,,,,,,,,
,,62a75b7789c411b352595f2e,2022-09-08_13h19.03.526,CGTgamblingSpanTasks,2022.2.1,Win32,60.0276127,,,,,,,,,,,,,,,,,,,,,,,,,,,,,,,,,,,,,,,,,,,,,,,,,,,,,,,,,,,,,,,,,,,,,,,,,,,,,,,,,,"[1,4,5,9,6,8,7,2]",3,0,3,0,1,,,,,,,,,,,,,,,,,,,,,,,,,,,,,,,,,,,,,,,,,,,,,,,,
,,62a75b7789c411b352595f2e,2022-09-08_13h19.03.526,CGTgamblingSpanTasks,2022.2.1,Win32,60.0276127,,,,,,,,,,,,,,,,,,,,,,,,,,,,,,,,,,,,,,,,,,,,,,,,,,,,,,,,,,,,,,,,,,,,,,,,,,,,,,,,,,"[1,4,5,9,6,8,7,2]",4,0,4,0,1,,,,,,,,,,,,,,,,,,,,,,,,,,,,,,,,,,,,,,,,,,,,,,,,
,,62a75b7789c411b352595f2e,2022-09-08_13h19.03.526,CGTgamblingSpanTasks,2022.2.1,Win32,60.0276127,,,,,,,,,,,,,,,,,,,,,,,,,,,,,,,,,,,,,,,,,,,,,,,,,,,,,,,,,,,,,,,,,,,,,,,,,,,,,,,,,,"[1,4,5,9,6,8,7,2]",5,0,5,0,1,,,,,,,,,,,,,,,,,,,,,,,,,,,,,,,,,,,,,,,,,,,,,,,,
,,62a75b7789c411b352595f2e,2022-09-08_13h19.03.526,CGTgamblingSpanTasks,2022.2.1,Win32,60.0276127,,,,,,,,,,,,,,,,,,,,,,,,,,,,,,,,,,,,,,,,,,,,,,,,,,,,,,,,,,,,,,,,,,,,,,,,,,,,,,,,,,"[1,4,5,9,6,8,7,2]",6,0,6,0,1,,,,,,,,,,,,,,,,,,,,,,,,,,,,,,,,,,,,,,,,,,,,,,,,
,,62a75b7789c411b352595f2e,2022-09-08_13h19.03.526,CGTgamblingSpanTasks,2022.2.1,Win32,60.0276127,,,,,,,,,,,,,,,,,,,,,,,,,,,,,,,,,,,,,,,,,,,,,,,,,,,,,,,,,,,,,,,,,,,,,,,,,,,,,,,,,,"[1,4,5,9,6,8,7,2]",7,0,7,0,1,,,,,,,,,,,,,,,,,,,,,,,,,,,,,,,,,,,,,,,,,,,,,,,,
,,62a75b7789c411b352595f2e,2022-09-08_13h19.03.526,CGTgamblingSpanTasks,2022.2.1,Win32,60.0276127,,,,,,,,,,,,,,,,,,,,,,,,,,,,,,,,,,,,,,,,,,,,,,,,,,,,,,,,,,,,,,,1,,,,,,,,,,,,,,,,,,,,,,,,,14596872,0.006481524,-0.412037037,1,0,0,cont_button,0,6,6,6,1,7,,,,,,,,,,,,,,,,,,,,,,,,,,,,,,,,,,,
,,62a75b7789c411b352595f2e,2022-09-08_13h19.03.526,CGTgamblingSpanTasks,2022.2.1,Win32,60.0276127,,,,,,,,,,,,,,,,,,,,,,,,,,,,,,,,,,,,,,,,,,,,,,,,,,,,,,,,,,,,,,,,,,,,,,,,,,,,,,,,,,"[8,5,3,7,1,6,2,9,4]",0,0,0,0,1,,,,,,,,,,,,,,,,,,,,,,,,,,,,,,,,,,,,,,,,,,,,,,,,
,,62a75b7789c411b352595f2e,2022-09-08_13h19.03.526,CGTgamblingSpanTasks,2022.2.1,Win32,60.0276127,,,,,,,,,,,,,,,,,,,,,,,,,,,,,,,,,,,,,,,,,,,,,,,,,,,,,,,,,,,,,,,,,,,,,,,,,,,,,,,,,,"[8,5,3,7,1,6,2,9,4]",1,0,1,0,1,,,,,,,,,,,,,,,,,,,,,,,,,,,,,,,,,,,,,,,,,,,,,,,,
,,62a75b7789c411b352595f2e,2022-09-08_13h19.03.526,CGTgamblingSpanTasks,2022.2.1,Win32,60.0276127,,,,,,,,,,,,,,,,,,,,,,,,,,,,,,,,,,,,,,,,,,,,,,,,,,,,,,,,,,,,,,,,,,,,,,,,,,,,,,,,,,"[8,5,3,7,1,6,2,9,4]",2,0,2,0,1,,,,,,,,,,,,,,,,,,,,,,,,,,,,,,,,,,,,,,,,,,,,,,,,
,,62a75b7789c411b352595f2e,2022-09-08_13h19.03.526,CGTgamblingSpanTasks,2022.2.1,Win32,60.0276127,,,,,,,,,,,,,,,,,,,,,,,,,,,,,,,,,,,,,,,,,,,,,,,,,,,,,,,,,,,,,,,,,,,,,,,,,,,,,,,,,,"[8,5,3,7,1,6,2,9,4]",3,0,3,0,1,,,,,,,,,,,,,,,,,,,,,,,,,,,,,,,,,,,,,,,,,,,,,,,,
,,62a75b7789c411b352595f2e,2022-09-08_13h19.03.526,CGTgamblingSpanTasks,2022.2.1,Win32,60.0276127,,,,,,,,,,,,,,,,,,,,,,,,,,,,,,,,,,,,,,,,,,,,,,,,,,,,,,,,,,,,,,,,,,,,,,,,,,,,,,,,,,"[8,5,3,7,1,6,2,9,4]",4,0,4,0,1,,,,,,,,,,,,,,,,,,,,,,,,,,,,,,,,,,,,,,,,,,,,,,,,
,,62a75b7789c411b352595f2e,2022-09-08_13h19.03.526,CGTgamblingSpanTasks,2022.2.1,Win32,60.0276127,,,,,,,,,,,,,,,,,,,,,,,,,,,,,,,,,,,,,,,,,,,,,,,,,,,,,,,,,,,,,,,,,,,,,,,,,,,,,,,,,,"[8,5,3,7,1,6,2,9,4]",5,0,5,0,1,,,,,,,,,,,,,,,,,,,,,,,,,,,,,,,,,,,,,,,,,,,,,,,,
,,62a75b7789c411b352595f2e,2022-09-08_13h19.03.526,CGTgamblingSpanTasks,2022.2.1,Win32,60.0276127,,,,,,,,,,,,,,,,,,,,,,,,,,,,,,,,,,,,,,,,,,,,,,,,,,,,,,,,,,,,,,,,,,,,,,,,,,,,,,,,,,"[8,5,3,7,1,6,2,9,4]",6,0,6,0,1,,,,,,,,,,,,,,,,,,,,,,,,,,,,,,,,,,,,,,,,,,,,,,,,
,,62a75b7789c411b352595f2e,2022-09-08_13h19.03.526,CGTgamblingSpanTasks,2022.2.1,Win32,60.0276127,,,,,,,,,,,,,,,,,,,,,,,,,,,,,,,,,,,,,,,,,,,,,,,,,,,,,,,,,,,,,,,,,,,,,,,,,,,,,,,,,,"[8,5,3,7,1,6,2,9,4]",7,0,7,0,1,,,,,,,,,,,,,,,,,,,,,,,,,,,,,,,,,,,,,,,,,,,,,,,,
,,62a75b7789c411b352595f2e,2022-09-08_13h19.03.526,CGTgamblingSpanTasks,2022.2.1,Win32,60.0276127,,,,,,,,,,,,,,,,,,,,,,,,,,,,,,,,,,,,,,,,,,,,,,,,,,,,,,,,,,,,,,,,,,,,,,,,,,,,,,,,,,"[8,5,3,7,1,6,2,9,4]",8,0,8,0,1,,,,,,,,,,,,,,,,,,,,,,,,,,,,,,,,,,,,,,,,,,,,,,,,
,,62a75b7789c411b352595f2e,2022-09-08_13h19.03.526,CGTgamblingSpanTasks,2022.2.1,Win32,60.0276127,,,,,,,,,,,,,,,,,,,,,,,,,,,,,,,,,,,,,,,,,,,,,,,,,,,,,,,,,,,,,,,0,,,,,,,,,,,,,,,,,,,,,,,,,873576291,0.006481524,-0.412037037,1,0,0,cont_button,0,7,7,7,1,8,,,,,,,,,,,,,,,,,,,,,,,,,,,,,,,,,,,
,,62a75b7789c411b352595f2e,2022-09-08_13h19.03.526,CGTgamblingSpanTasks,2022.2.1,Win32,60.0276127,,,,,,,,,,,,,,,,,,,,,,,,,,,,,,,,,,,,,,,,,,,,,,,,,,,,,,,,,,,,,,,,,,,,,,,,,,,,,,,,,,"[5,1,2,4,3,8,7,9,6]",0,0,0,0,1,,,,,,,,,,,,,,,,,,,,,,,,,,,,,,,,,,,,,,,,,,,,,,,,
,,62a75b7789c411b352595f2e,2022-09-08_13h19.03.526,CGTgamblingSpanTasks,2022.2.1,Win32,60.0276127,,,,,,,,,,,,,,,,,,,,,,,,,,,,,,,,,,,,,,,,,,,,,,,,,,,,,,,,,,,,,,,,,,,,,,,,,,,,,,,,,,"[5,1,2,4,3,8,7,9,6]",1,0,1,0,1,,,,,,,,,,,,,,,,,,,,,,,,,,,,,,,,,,,,,,,,,,,,,,,,
,,62a75b7789c411b352595f2e,2022-09-08_13h19.03.526,CGTgamblingSpanTasks,2022.2.1,Win32,60.0276127,,,,,,,,,,,,,,,,,,,,,,,,,,,,,,,,,,,,,,,,,,,,,,,,,,,,,,,,,,,,,,,,,,,,,,,,,,,,,,,,,,"[5,1,2,4,3,8,7,9,6]",2,0,2,0,1,,,,,,,,,,,,,,,,,,,,,,,,,,,,,,,,,,,,,,,,,,,,,,,,
,,62a75b7789c411b352595f2e,2022-09-08_13h19.03.526,CGTgamblingSpanTasks,2022.2.1,Win32,60.0276127,,,,,,,,,,,,,,,,,,,,,,,,,,,,,,,,,,,,,,,,,,,,,,,,,,,,,,,,,,,,,,,,,,,,,,,,,,,,,,,,,,"[5,1,2,4,3,8,7,9,6]",3,0,3,0,1,,,,,,,,,,,,,,,,,,,,,,,,,,,,,,,,,,,,,,,,,,,,,,,,
,,62a75b7789c411b352595f2e,2022-09-08_13h19.03.526,CGTgamblingSpanTasks,2022.2.1,Win32,60.0276127,,,,,,,,,,,,,,,,,,,,,,,,,,,,,,,,,,,,,,,,,,,,,,,,,,,,,,,,,,,,,,,,,,,,,,,,,,,,,,,,,,"[5,1,2,4,3,8,7,9,6]",4,0,4,0,1,,,,,,,,,,,,,,,,,,,,,,,,,,,,,,,,,,,,,,,,,,,,,,,,
,,62a75b7789c411b352595f2e,2022-09-08_13h19.03.526,CGTgamblingSpanTasks,2022.2.1,Win32,60.0276127,,,,,,,,,,,,,,,,,,,,,,,,,,,,,,,,,,,,,,,,,,,,,,,,,,,,,,,,,,,,,,,,,,,,,,,,,,,,,,,,,,"[5,1,2,4,3,8,7,9,6]",5,0,5,0,1,,,,,,,,,,,,,,,,,,,,,,,,,,,,,,,,,,,,,,,,,,,,,,,,
,,62a75b7789c411b352595f2e,2022-09-08_13h19.03.526,CGTgamblingSpanTasks,2022.2.1,Win32,60.0276127,,,,,,,,,,,,,,,,,,,,,,,,,,,,,,,,,,,,,,,,,,,,,,,,,,,,,,,,,,,,,,,,,,,,,,,,,,,,,,,,,,"[5,1,2,4,3,8,7,9,6]",6,0,6,0,1,,,,,,,,,,,,,,,,,,,,,,,,,,,,,,,,,,,,,,,,,,,,,,,,
,,62a75b7789c411b352595f2e,2022-09-08_13h19.03.526,CGTgamblingSpanTasks,2022.2.1,Win32,60.0276127,,,,,,,,,,,,,,,,,,,,,,,,,,,,,,,,,,,,,,,,,,,,,,,,,,,,,,,,,,,,,,,,,,,,,,,,,,,,,,,,,,"[5,1,2,4,3,8,7,9,6]",7,0,7,0,1,,,,,,,,,,,,,,,,,,,,,,,,,,,,,,,,,,,,,,,,,,,,,,,,
,,62a75b7789c411b352595f2e,2022-09-08_13h19.03.526,CGTgamblingSpanTasks,2022.2.1,Win32,60.0276127,,,,,,,,,,,,,,,,,,,,,,,,,,,,,,,,,,,,,,,,,,,,,,,,,,,,,,,,,,,,,,,,,,,,,,,,,,,,,,,,,,"[5,1,2,4,3,8,7,9,6]",8,0,8,0,1,,,,,,,,,,,,,,,,,,,,,,,,,,,,,,,,,,,,,,,,,,,,,,,,
,,62a75b7789c411b352595f2e,2022-09-08_13h19.03.526,CGTgamblingSpanTasks,2022.2.1,Win32,60.0276127,,,,,,,,,,,,,,,,,,,,,,,,,,,,,,,,,,,,,,,,,,,,,,,,,,,,,,,,,,,,,,,1,,,,,,,,,,,,,,,,,,,,,,,,,512438796,0.005555541,-0.422222208,1,0,0,cont_button,0,8,8,8,1,9,,,,,,,,,,,,,,,,,,,,,,,,,,,,,,,,,,,
,,62a75b7789c411b352595f2e,2022-09-08_13h19.03.526,CGTgamblingSpanTasks,2022.2.1,Win32,60.0276127,,,,,,,,,,,,,,,,,,,,,,,,,,,,,,,,,,,,,,,,,,,,,,,,,,,,,,,,,,,,,,,,,,,,,,,,,,,,,,,,,,"[7,4,5,8,1,9,3,6,2,2]",0,0,0,0,1,,,,,,,,,,,,,,,,,,,,,,,,,,,,,,,,,,,,,,,,,,,,,,,,
,,62a75b7789c411b352595f2e,2022-09-08_13h19.03.526,CGTgamblingSpanTasks,2022.2.1,Win32,60.0276127,,,,,,,,,,,,,,,,,,,,,,,,,,,,,,,,,,,,,,,,,,,,,,,,,,,,,,,,,,,,,,,,,,,,,,,,,,,,,,,,,,"[7,4,5,8,1,9,3,6,2,2]",1,0,1,0,1,,,,,,,,,,,,,,,,,,,,,,,,,,,,,,,,,,,,,,,,,,,,,,,,
,,62a75b7789c411b352595f2e,2022-09-08_13h19.03.526,CGTgamblingSpanTasks,2022.2.1,Win32,60.0276127,,,,,,,,,,,,,,,,,,,,,,,,,,,,,,,,,,,,,,,,,,,,,,,,,,,,,,,,,,,,,,,,,,,,,,,,,,,,,,,,,,"[7,4,5,8,1,9,3,6,2,2]",2,0,2,0,1,,,,,,,,,,,,,,,,,,,,,,,,,,,,,,,,,,,,,,,,,,,,,,,,
,,62a75b7789c411b352595f2e,2022-09-08_13h19.03.526,CGTgamblingSpanTasks,2022.2.1,Win32,60.0276127,,,,,,,,,,,,,,,,,,,,,,,,,,,,,,,,,,,,,,,,,,,,,,,,,,,,,,,,,,,,,,,,,,,,,,,,,,,,,,,,,,"[7,4,5,8,1,9,3,6,2,2]",3,0,3,0,1,,,,,,,,,,,,,,,,,,,,,,,,,,,,,,,,,,,,,,,,,,,,,,,,
,,62a75b7789c411b352595f2e,2022-09-08_13h19.03.526,CGTgamblingSpanTasks,2022.2.1,Win32,60.0276127,,,,,,,,,,,,,,,,,,,,,,,,,,,,,,,,,,,,,,,,,,,,,,,,,,,,,,,,,,,,,,,,,,,,,,,,,,,,,,,,,,"[7,4,5,8,1,9,3,6,2,2]",4,0,4,0,1,,,,,,,,,,,,,,,,,,,,,,,,,,,,,,,,,,,,,,,,,,,,,,,,
,,62a75b7789c411b352595f2e,2022-09-08_13h19.03.526,CGTgamblingSpanTasks,2022.2.1,Win32,60.0276127,,,,,,,,,,,,,,,,,,,,,,,,,,,,,,,,,,,,,,,,,,,,,,,,,,,,,,,,,,,,,,,,,,,,,,,,,,,,,,,,,,"[7,4,5,8,1,9,3,6,2,2]",5,0,5,0,1,,,,,,,,,,,,,,,,,,,,,,,,,,,,,,,,,,,,,,,,,,,,,,,,
,,62a75b7789c411b352595f2e,2022-09-08_13h19.03.526,CGTgamblingSpanTasks,2022.2.1,Win32,60.0276127,,,,,,,,,,,,,,,,,,,,,,,,,,,,,,,,,,,,,,,,,,,,,,,,,,,,,,,,,,,,,,,,,,,,,,,,,,,,,,,,,,"[7,4,5,8,1,9,3,6,2,2]",6,0,6,0,1,,,,,,,,,,,,,,,,,,,,,,,,,,,,,,,,,,,,,,,,,,,,,,,,
,,62a75b7789c411b352595f2e,2022-09-08_13h19.03.526,CGTgamblingSpanTasks,2022.2.1,Win32,60.0276127,,,,,,,,,,,,,,,,,,,,,,,,,,,,,,,,,,,,,,,,,,,,,,,,,,,,,,,,,,,,,,,,,,,,,,,,,,,,,,,,,,"[7,4,5,8,1,9,3,6,2,2]",7,0,7,0,1,,,,,,,,,,,,,,,,,,,,,,,,,,,,,,,,,,,,,,,,,,,,,,,,
,,62a75b7789c411b352595f2e,2022-09-08_13h19.03.526,CGTgamblingSpanTasks,2022.2.1,Win32,60.0276127,,,,,,,,,,,,,,,,,,,,,,,,,,,,,,,,,,,,,,,,,,,,,,,,,,,,,,,,,,,,,,,,,,,,,,,,,,,,,,,,,,"[7,4,5,8,1,9,3,6,2,2]",8,0,8,0,1,,,,,,,,,,,,,,,,,,,,,,,,,,,,,,,,,,,,,,,,,,,,,,,,
,,62a75b7789c411b352595f2e,2022-09-08_13h19.03.526,CGTgamblingSpanTasks,2022.2.1,Win32,60.0276127,,,,,,,,,,,,,,,,,,,,,,,,,,,,,,,,,,,,,,,,,,,,,,,,,,,,,,,,,,,,,,,,,,,,,,,,,,,,,,,,,,"[7,4,5,8,1,9,3,6,2,2]",9,0,9,0,1,,,,,,,,,,,,,,,,,,,,,,,,,,,,,,,,,,,,,,,,,,,,,,,,
,,62a75b7789c411b352595f2e,2022-09-08_13h19.03.526,CGTgamblingSpanTasks,2022.2.1,Win32,60.0276127,,,,,,,,,,,,,,,,,,,,,,,,,,,,,,,,,,,,,,,,,,,,,,,,,,,,,,,,,,,,,,,0,,,,,,,,,,,,,,,,,,,,,,,,,7458731262,0.005555541,-0.414814843,1,0,0,cont_button,0,9,9,9,1,10,,,,,,,,,,,,,,,,,,,,,,,,,,,,,,,,,,,
,,62a75b7789c411b352595f2e,2022-09-08_13h19.03.526,CGTgamblingSpanTasks,2022.2.1,Win32,60.0276127,,,,,,,,,,,,,,,,,,,,,,,,,,,,,,,,,,,,,,,,,,,,,,,,,,,,,,,,,,,,,,,,,,,,,,,,,,,,,,,,,,"[2,5,3,6,4,9,1,8,7,7]",0,0,0,0,1,,,,,,,,,,,,,,,,,,,,,,,,,,,,,,,,,,,,,,,,,,,,,,,,
,,62a75b7789c411b352595f2e,2022-09-08_13h19.03.526,CGTgamblingSpanTasks,2022.2.1,Win32,60.0276127,,,,,,,,,,,,,,,,,,,,,,,,,,,,,,,,,,,,,,,,,,,,,,,,,,,,,,,,,,,,,,,,,,,,,,,,,,,,,,,,,,"[2,5,3,6,4,9,1,8,7,7]",1,0,1,0,1,,,,,,,,,,,,,,,,,,,,,,,,,,,,,,,,,,,,,,,,,,,,,,,,
,,62a75b7789c411b352595f2e,2022-09-08_13h19.03.526,CGTgamblingSpanTasks,2022.2.1,Win32,60.0276127,,,,,,,,,,,,,,,,,,,,,,,,,,,,,,,,,,,,,,,,,,,,,,,,,,,,,,,,,,,,,,,,,,,,,,,,,,,,,,,,,,"[2,5,3,6,4,9,1,8,7,7]",2,0,2,0,1,,,,,,,,,,,,,,,,,,,,,,,,,,,,,,,,,,,,,,,,,,,,,,,,
,,62a75b7789c411b352595f2e,2022-09-08_13h19.03.526,CGTgamblingSpanTasks,2022.2.1,Win32,60.0276127,,,,,,,,,,,,,,,,,,,,,,,,,,,,,,,,,,,,,,,,,,,,,,,,,,,,,,,,,,,,,,,,,,,,,,,,,,,,,,,,,,"[2,5,3,6,4,9,1,8,7,7]",3,0,3,0,1,,,,,,,,,,,,,,,,,,,,,,,,,,,,,,,,,,,,,,,,,,,,,,,,
,,62a75b7789c411b352595f2e,2022-09-08_13h19.03.526,CGTgamblingSpanTasks,2022.2.1,Win32,60.0276127,,,,,,,,,,,,,,,,,,,,,,,,,,,,,,,,,,,,,,,,,,,,,,,,,,,,,,,,,,,,,,,,,,,,,,,,,,,,,,,,,,"[2,5,3,6,4,9,1,8,7,7]",4,0,4,0,1,,,,,,,,,,,,,,,,,,,,,,,,,,,,,,,,,,,,,,,,,,,,,,,,
,,62a75b7789c411b352595f2e,2022-09-08_13h19.03.526,CGTgamblingSpanTasks,2022.2.1,Win32,60.0276127,,,,,,,,,,,,,,,,,,,,,,,,,,,,,,,,,,,,,,,,,,,,,,,,,,,,,,,,,,,,,,,,,,,,,,,,,,,,,,,,,,"[2,5,3,6,4,9,1,8,7,7]",5,0,5,0,1,,,,,,,,,,,,,,,,,,,,,,,,,,,,,,,,,,,,,,,,,,,,,,,,
,,62a75b7789c411b352595f2e,2022-09-08_13h19.03.526,CGTgamblingSpanTasks,2022.2.1,Win32,60.0276127,,,,,,,,,,,,,,,,,,,,,,,,,,,,,,,,,,,,,,,,,,,,,,,,,,,,,,,,,,,,,,,,,,,,,,,,,,,,,,,,,,"[2,5,3,6,4,9,1,8,7,7]",6,0,6,0,1,,,,,,,,,,,,,,,,,,,,,,,,,,,,,,,,,,,,,,,,,,,,,,,,
,,62a75b7789c411b352595f2e,2022-09-08_13h19.03.526,CGTgamblingSpanTasks,2022.2.1,Win32,60.0276127,,,,,,,,,,,,,,,,,,,,,,,,,,,,,,,,,,,,,,,,,,,,,,,,,,,,,,,,,,,,,,,,,,,,,,,,,,,,,,,,,,"[2,5,3,6,4,9,1,8,7,7]",7,0,7,0,1,,,,,,,,,,,,,,,,,,,,,,,,,,,,,,,,,,,,,,,,,,,,,,,,
,,62a75b7789c411b352595f2e,2022-09-08_13h19.03.526,CGTgamblingSpanTasks,2022.2.1,Win32,60.0276127,,,,,,,,,,,,,,,,,,,,,,,,,,,,,,,,,,,,,,,,,,,,,,,,,,,,,,,,,,,,,,,,,,,,,,,,,,,,,,,,,,"[2,5,3,6,4,9,1,8,7,7]",8,0,8,0,1,,,,,,,,,,,,,,,,,,,,,,,,,,,,,,,,,,,,,,,,,,,,,,,,
,,62a75b7789c411b352595f2e,2022-09-08_13h19.03.526,CGTgamblingSpanTasks,2022.2.1,Win32,60.0276127,,,,,,,,,,,,,,,,,,,,,,,,,,,,,,,,,,,,,,,,,,,,,,,,,,,,,,,,,,,,,,,,,,,,,,,,,,,,,,,,,,"[2,5,3,6,4,9,1,8,7,7]",9,0,9,0,1,,,,,,,,,,,,,,,,,,,,,,,,,,,,,,,,,,,,,,,,,,,,,,,,
,,62a75b7789c411b352595f2e,2022-09-08_13h19.03.526,CGTgamblingSpanTasks,2022.2.1,Win32,60.0276127,,,,,,,,,,,,,,,,,,,,,,,,,,,,,,,,,,,,,,,,,,,,,,,,,,,,,,,,,,,,,,,0,,,,,,,,,,,,,,,,,,,,,,,,,253489122,0.005555541,-0.414814843,1,0,0,cont_button,0,10,10,10,1,11,,,,,,,,,,,,,,,,,,,,,,,,,,,,,,,,,,,
,,62a75b7789c411b352595f2e,2022-09-08_13h19.03.526,CGTgamblingSpanTasks,2022.2.1,Win32,60.0276127,,,,,,,,,,,,,,,,,,,,,,,,,,,,,,,,,,,,,,,,,,,,,,,,,,,,,,,,,,,,,,,,,,,,,,,,,,,,,,,,,,"[9,2,5,3,7,4,6,8,1]",0,0,0,0,1,,,,,,,,,,,,,,,,,,,,,,,,,,,,,,,,,,,,,,,,,,,,,,,,
,,62a75b7789c411b352595f2e,2022-09-08_13h19.03.526,CGTgamblingSpanTasks,2022.2.1,Win32,60.0276127,,,,,,,,,,,,,,,,,,,,,,,,,,,,,,,,,,,,,,,,,,,,,,,,,,,,,,,,,,,,,,,,,,,,,,,,,,,,,,,,,,"[9,2,5,3,7,4,6,8,1]",1,0,1,0,1,,,,,,,,,,,,,,,,,,,,,,,,,,,,,,,,,,,,,,,,,,,,,,,,
,,62a75b7789c411b352595f2e,2022-09-08_13h19.03.526,CGTgamblingSpanTasks,2022.2.1,Win32,60.0276127,,,,,,,,,,,,,,,,,,,,,,,,,,,,,,,,,,,,,,,,,,,,,,,,,,,,,,,,,,,,,,,,,,,,,,,,,,,,,,,,,,"[9,2,5,3,7,4,6,8,1]",2,0,2,0,1,,,,,,,,,,,,,,,,,,,,,,,,,,,,,,,,,,,,,,,,,,,,,,,,
,,62a75b7789c411b352595f2e,2022-09-08_13h19.03.526,CGTgamblingSpanTasks,2022.2.1,Win32,60.0276127,,,,,,,,,,,,,,,,,,,,,,,,,,,,,,,,,,,,,,,,,,,,,,,,,,,,,,,,,,,,,,,,,,,,,,,,,,,,,,,,,,"[9,2,5,3,7,4,6,8,1]",3,0,3,0,1,,,,,,,,,,,,,,,,,,,,,,,,,,,,,,,,,,,,,,,,,,,,,,,,
,,62a75b7789c411b352595f2e,2022-09-08_13h19.03.526,CGTgamblingSpanTasks,2022.2.1,Win32,60.0276127,,,,,,,,,,,,,,,,,,,,,,,,,,,,,,,,,,,,,,,,,,,,,,,,,,,,,,,,,,,,,,,,,,,,,,,,,,,,,,,,,,"[9,2,5,3,7,4,6,8,1]",4,0,4,0,1,,,,,,,,,,,,,,,,,,,,,,,,,,,,,,,,,,,,,,,,,,,,,,,,
,,62a75b7789c411b352595f2e,2022-09-08_13h19.03.526,CGTgamblingSpanTasks,2022.2.1,Win32,60.0276127,,,,,,,,,,,,,,,,,,,,,,,,,,,,,,,,,,,,,,,,,,,,,,,,,,,,,,,,,,,,,,,,,,,,,,,,,,,,,,,,,,"[9,2,5,3,7,4,6,8,1]",5,0,5,0,1,,,,,,,,,,,,,,,,,,,,,,,,,,,,,,,,,,,,,,,,,,,,,,,,
,,62a75b7789c411b352595f2e,2022-09-08_13h19.03.526,CGTgamblingSpanTasks,2022.2.1,Win32,60.0276127,,,,,,,,,,,,,,,,,,,,,,,,,,,,,,,,,,,,,,,,,,,,,,,,,,,,,,,,,,,,,,,,,,,,,,,,,,,,,,,,,,"[9,2,5,3,7,4,6,8,1]",6,0,6,0,1,,,,,,,,,,,,,,,,,,,,,,,,,,,,,,,,,,,,,,,,,,,,,,,,
,,62a75b7789c411b352595f2e,2022-09-08_13h19.03.526,CGTgamblingSpanTasks,2022.2.1,Win32,60.0276127,,,,,,,,,,,,,,,,,,,,,,,,,,,,,,,,,,,,,,,,,,,,,,,,,,,,,,,,,,,,,,,,,,,,,,,,,,,,,,,,,,"[9,2,5,3,7,4,6,8,1]",7,0,7,0,1,,,,,,,,,,,,,,,,,,,,,,,,,,,,,,,,,,,,,,,,,,,,,,,,
,,62a75b7789c411b352595f2e,2022-09-08_13h19.03.526,CGTgamblingSpanTasks,2022.2.1,Win32,60.0276127,,,,,,,,,,,,,,,,,,,,,,,,,,,,,,,,,,,,,,,,,,,,,,,,,,,,,,,,,,,,,,,,,,,,,,,,,,,,,,,,,,"[9,2,5,3,7,4,6,8,1]",8,0,8,0,1,,,,,,,,,,,,,,,,,,,,,,,,,,,,,,,,,,,,,,,,,,,,,,,,
,,62a75b7789c411b352595f2e,2022-09-08_13h19.03.526,CGTgamblingSpanTasks,2022.2.1,Win32,60.0276127,,,,,,,,,,,,,,,,,,,,,,,,,,,,,,,,,,,,,,,,,,,,,,,,,,,,,,,,,,,,,,,0,,,,,,,,,,,,,,,,,,,,,,,,,925474681,0.005555541,-0.414814843,1,0,0,cont_button,0,11,11,11,1,12,,,,,,,,,,,,,,,,,,,,,,,,,,,,,,,,,,,
,,62a75b7789c411b352595f2e,2022-09-08_13h19.03.526,CGTgamblingSpanTasks,2022.2.1,Win32,60.0276127,,,,,,,,,,,,,,,,,,,,,,,,,,,,,,,,,,,,,,,,,,,,,,,,,,,,,,,,,,,,,,,,,,,,,,,,,,,,,,,,,,"[5,1,4,9,6,2,7,3,8]",0,0,0,0,1,,,,,,,,,,,,,,,,,,,,,,,,,,,,,,,,,,,,,,,,,,,,,,,,
,,62a75b7789c411b352595f2e,2022-09-08_13h19.03.526,CGTgamblingSpanTasks,2022.2.1,Win32,60.0276127,,,,,,,,,,,,,,,,,,,,,,,,,,,,,,,,,,,,,,,,,,,,,,,,,,,,,,,,,,,,,,,,,,,,,,,,,,,,,,,,,,"[5,1,4,9,6,2,7,3,8]",1,0,1,0,1,,,,,,,,,,,,,,,,,,,,,,,,,,,,,,,,,,,,,,,,,,,,,,,,
,,62a75b7789c411b352595f2e,2022-09-08_13h19.03.526,CGTgamblingSpanTasks,2022.2.1,Win32,60.0276127,,,,,,,,,,,,,,,,,,,,,,,,,,,,,,,,,,,,,,,,,,,,,,,,,,,,,,,,,,,,,,,,,,,,,,,,,,,,,,,,,,"[5,1,4,9,6,2,7,3,8]",2,0,2,0,1,,,,,,,,,,,,,,,,,,,,,,,,,,,,,,,,,,,,,,,,,,,,,,,,
,,62a75b7789c411b352595f2e,2022-09-08_13h19.03.526,CGTgamblingSpanTasks,2022.2.1,Win32,60.0276127,,,,,,,,,,,,,,,,,,,,,,,,,,,,,,,,,,,,,,,,,,,,,,,,,,,,,,,,,,,,,,,,,,,,,,,,,,,,,,,,,,"[5,1,4,9,6,2,7,3,8]",3,0,3,0,1,,,,,,,,,,,,,,,,,,,,,,,,,,,,,,,,,,,,,,,,,,,,,,,,
,,62a75b7789c411b352595f2e,2022-09-08_13h19.03.526,CGTgamblingSpanTasks,2022.2.1,Win32,60.0276127,,,,,,,,,,,,,,,,,,,,,,,,,,,,,,,,,,,,,,,,,,,,,,,,,,,,,,,,,,,,,,,,,,,,,,,,,,,,,,,,,,"[5,1,4,9,6,2,7,3,8]",4,0,4,0,1,,,,,,,,,,,,,,,,,,,,,,,,,,,,,,,,,,,,,,,,,,,,,,,,
,,62a75b7789c411b352595f2e,2022-09-08_13h19.03.526,CGTgamblingSpanTasks,2022.2.1,Win32,60.0276127,,,,,,,,,,,,,,,,,,,,,,,,,,,,,,,,,,,,,,,,,,,,,,,,,,,,,,,,,,,,,,,,,,,,,,,,,,,,,,,,,,"[5,1,4,9,6,2,7,3,8]",5,0,5,0,1,,,,,,,,,,,,,,,,,,,,,,,,,,,,,,,,,,,,,,,,,,,,,,,,
,,62a75b7789c411b352595f2e,2022-09-08_13h19.03.526,CGTgamblingSpanTasks,2022.2.1,Win32,60.0276127,,,,,,,,,,,,,,,,,,,,,,,,,,,,,,,,,,,,,,,,,,,,,,,,,,,,,,,,,,,,,,,,,,,,,,,,,,,,,,,,,,"[5,1,4,9,6,2,7,3,8]",6,0,6,0,1,,,,,,,,,,,,,,,,,,,,,,,,,,,,,,,,,,,,,,,,,,,,,,,,
,,62a75b7789c411b352595f2e,2022-09-08_13h19.03.526,CGTgamblingSpanTasks,2022.2.1,Win32,60.0276127,,,,,,,,,,,,,,,,,,,,,,,,,,,,,,,,,,,,,,,,,,,,,,,,,,,,,,,,,,,,,,,,,,,,,,,,,,,,,,,,,,"[5,1,4,9,6,2,7,3,8]",7,0,7,0,1,,,,,,,,,,,,,,,,,,,,,,,,,,,,,,,,,,,,,,,,,,,,,,,,
,,62a75b7789c411b352595f2e,2022-09-08_13h19.03.526,CGTgamblingSpanTasks,2022.2.1,Win32,60.0276127,,,,,,,,,,,,,,,,,,,,,,,,,,,,,,,,,,,,,,,,,,,,,,,,,,,,,,,,,,,,,,,,,,,,,,,,,,,,,,,,,,"[5,1,4,9,6,2,7,3,8]",8,0,8,0,1,,,,,,,,,,,,,,,,,,,,,,,,,,,,,,,,,,,,,,,,,,,,,,,,
,,62a75b7789c411b352595f2e,2022-09-08_13h19.03.526,CGTgamblingSpanTasks,2022.2.1,Win32,60.0276127,,,,,,,,,,,,,,,,,,,,,,,,,,,,,,,,,,,,,,,,,,,,,,,,,,,,,,,,,,,,,,,1,,,,,,,,,,,,,,,,,,,,,,,,,514962738,-0.013888889,-0.419444473,1,0,0,cont_button,0,12,12,12,1,13,,,,,,,,,,,,,,,,,,,,,,,,,,,,,,,,,,,
,,62a75b7789c411b352595f2e,2022-09-08_13h19.03.526,CGTgamblingSpanTasks,2022.2.1,Win32,60.0276127,,,,,,,,,,,,,,,,,,,,,,,,,,,,,,,,,,,,,,,,,,,,,,,,,,,,,,,,,,,,,,,,,,,,,,,,,,,,,,,,,,"[7,3,2,4,8,6,1,5,9,9]",0,0,0,0,1,,,,,,,,,,,,,,,,,,,,,,,,,,,,,,,,,,,,,,,,,,,,,,,,
,,62a75b7789c411b352595f2e,2022-09-08_13h19.03.526,CGTgamblingSpanTasks,2022.2.1,Win32,60.0276127,,,,,,,,,,,,,,,,,,,,,,,,,,,,,,,,,,,,,,,,,,,,,,,,,,,,,,,,,,,,,,,,,,,,,,,,,,,,,,,,,,"[7,3,2,4,8,6,1,5,9,9]",1,0,1,0,1,,,,,,,,,,,,,,,,,,,,,,,,,,,,,,,,,,,,,,,,,,,,,,,,
,,62a75b7789c411b352595f2e,2022-09-08_13h19.03.526,CGTgamblingSpanTasks,2022.2.1,Win32,60.0276127,,,,,,,,,,,,,,,,,,,,,,,,,,,,,,,,,,,,,,,,,,,,,,,,,,,,,,,,,,,,,,,,,,,,,,,,,,,,,,,,,,"[7,3,2,4,8,6,1,5,9,9]",2,0,2,0,1,,,,,,,,,,,,,,,,,,,,,,,,,,,,,,,,,,,,,,,,,,,,,,,,
,,62a75b7789c411b352595f2e,2022-09-08_13h19.03.526,CGTgamblingSpanTasks,2022.2.1,Win32,60.0276127,,,,,,,,,,,,,,,,,,,,,,,,,,,,,,,,,,,,,,,,,,,,,,,,,,,,,,,,,,,,,,,,,,,,,,,,,,,,,,,,,,"[7,3,2,4,8,6,1,5,9,9]",3,0,3,0,1,,,,,,,,,,,,,,,,,,,,,,,,,,,,,,,,,,,,,,,,,,,,,,,,
,,62a75b7789c411b352595f2e,2022-09-08_13h19.03.526,CGTgamblingSpanTasks,2022.2.1,Win32,60.0276127,,,,,,,,,,,,,,,,,,,,,,,,,,,,,,,,,,,,,,,,,,,,,,,,,,,,,,,,,,,,,,,,,,,,,,,,,,,,,,,,,,"[7,3,2,4,8,6,1,5,9,9]",4,0,4,0,1,,,,,,,,,,,,,,,,,,,,,,,,,,,,,,,,,,,,,,,,,,,,,,,,
,,62a75b7789c411b352595f2e,2022-09-08_13h19.03.526,CGTgamblingSpanTasks,2022.2.1,Win32,60.0276127,,,,,,,,,,,,,,,,,,,,,,,,,,,,,,,,,,,,,,,,,,,,,,,,,,,,,,,,,,,,,,,,,,,,,,,,,,,,,,,,,,"[7,3,2,4,8,6,1,5,9,9]",5,0,5,0,1,,,,,,,,,,,,,,,,,,,,,,,,,,,,,,,,,,,,,,,,,,,,,,,,
,,62a75b7789c411b352595f2e,2022-09-08_13h19.03.526,CGTgamblingSpanTasks,2022.2.1,Win32,60.0276127,,,,,,,,,,,,,,,,,,,,,,,,,,,,,,,,,,,,,,,,,,,,,,,,,,,,,,,,,,,,,,,,,,,,,,,,,,,,,,,,,,"[7,3,2,4,8,6,1,5,9,9]",6,0,6,0,1,,,,,,,,,,,,,,,,,,,,,,,,,,,,,,,,,,,,,,,,,,,,,,,,
,,62a75b7789c411b352595f2e,2022-09-08_13h19.03.526,CGTgamblingSpanTasks,2022.2.1,Win32,60.0276127,,,,,,,,,,,,,,,,,,,,,,,,,,,,,,,,,,,,,,,,,,,,,,,,,,,,,,,,,,,,,,,,,,,,,,,,,,,,,,,,,,"[7,3,2,4,8,6,1,5,9,9]",7,0,7,0,1,,,,,,,,,,,,,,,,,,,,,,,,,,,,,,,,,,,,,,,,,,,,,,,,
,,62a75b7789c411b352595f2e,2022-09-08_13h19.03.526,CGTgamblingSpanTasks,2022.2.1,Win32,60.0276127,,,,,,,,,,,,,,,,,,,,,,,,,,,,,,,,,,,,,,,,,,,,,,,,,,,,,,,,,,,,,,,,,,,,,,,,,,,,,,,,,,"[7,3,2,4,8,6,1,5,9,9]",8,0,8,0,1,,,,,,,,,,,,,,,,,,,,,,,,,,,,,,,,,,,,,,,,,,,,,,,,
,,62a75b7789c411b352595f2e,2022-09-08_13h19.03.526,CGTgamblingSpanTasks,2022.2.1,Win32,60.0276127,,,,,,,,,,,,,,,,,,,,,,,,,,,,,,,,,,,,,,,,,,,,,,,,,,,,,,,,,,,,,,,,,,,,,,,,,,,,,,,,,,"[7,3,2,4,8,6,1,5,9,9]",9,0,9,0,1,,,,,,,,,,,,,,,,,,,,,,,,,,,,,,,,,,,,,,,,,,,,,,,,
,,62a75b7789c411b352595f2e,2022-09-08_13h19.03.526,CGTgamblingSpanTasks,2022.2.1,Win32,60.0276127,,,,,,,,,,,,,,,,,,,,,,,,,,,,,,,,,,,,,,,,,,,,,,,,,,,,,,,,,,,,,,,0,,,,,,,,,,,,,,,,,,,,,,,,,7493261899,0.103703746,-0.373148176,1,0,0,cont_button,0,13,13,13,1,14,,,,,,,,,,,,,,,,,,,,,,,,,,,,,,,,,,,
,,62a75b7789c411b352595f2e,2022-09-08_13h19.03.526,CGTgamblingSpanTasks,2022.2.1,Win32,60.0276127,,,,,,,,,,,,,,,,,,,,,,,,,,,,,,,,,,,,,,,,,,,,,,,,,,,,,,,,,,,,,,,,,,,,,,,,,,,,,,,,,,,,,,,,,,,,,,,,,,,,,return,6.7164,,,,,,,,,,,,,,,,,,,,,,,,,,,,,,,,,
,,62a75b7789c411b352595f2e,2022-09-08_13h19.03.526,CGTgamblingSpanTasks,2022.2.1,Win32,60.0276127,,,,,,,,,,,,,,,,,,,,,,,,,,,,,,,,,,,,,,,,,,,,,,,,,,,,,,,,,,,,,,,,,,,,,,,,,,,,,,,,,,,,,,,,,,,,,,,,,,,,,,,return,15.5887,,,,,,,,,,,,,,,,,,,,,,,,,,,,,,,
,,62a75b7789c411b352595f2e,2022-09-08_13h19.03.526,CGTgamblingSpanTasks,2022.2.1,Win32,60.0276127,,,,,,,,,,,,,,,,,,,,,,,,,,,,,,,,,,,,,,,,,,,,,,,,,,,,,,,,,,,,,,,1,,,,,,,,,,,,3,342,24,2,42,,,,,,,,,,,,,,,,,,,,,,,,,,42,0.104629658,-0.395370413,1,0,0,cont_buttonPractice_2,0,0,0,0,1,,,,,,,,,,,,,,,,,,,
,,62a75b7789c411b352595f2e,2022-09-08_13h19.03.526,CGTgamblingSpanTasks,2022.2.1,Win32,60.0276127,,,,,,,,,,,,,,,,,,,,,,,,,,,,,,,,,,,,,,,,,,,,,,,,,,,,,,,,,,,,,,,1,,,,,,,,,,,,3,937,73,2,37,,,,,,,,,,,,,,,,,,,,,,,,,,37,0.104629658,-0.395370413,1,0,0,cont_buttonPractice_2,0,1,1,1,1,,,,,,,,,,,,,,,,,,,
,,62a75b7789c411b352595f2e,2022-09-08_13h19.03.526,CGTgamblingSpanTasks,2022.2.1,Win32,60.0276127,,,,,,,,,,,,,,,,,,,,,,,,,,,,,,,,,,,,,,,,,,,,,,,,,,,,,,,,,,,,,,,,,,,,,,,,,,,,,,,,,,,,,,,,,,,,,,,,,,,,,,,,,,,,,,,,,,,,,return,11.8422,,,,,,,,,,,,,,,,,
,,62a75b7789c411b352595f2e,2022-09-08_13h19.03.526,CGTgamblingSpanTasks,2022.2.1,Win32,60.0276127,,,,,,,,,,,,,,,,,,,,,,,,,,,,,,,,,,,,,,,,,,,,,,,,,,,,,,,,,,,,,,,,,,,,,,,,,,,,,,,,,,"[2,8]",,,,,,,,,,,,,,,,,,,,,,,,,,,,,,,,,,,,,0,0,0,0,1,,,,,,,,,,,,
,,62a75b7789c411b352595f2e,2022-09-08_13h19.03.526,CGTgamblingSpanTasks,2022.2.1,Win32,60.0276127,,,,,,,,,,,,,,,,,,,,,,,,,,,,,,,,,,,,,,,,,,,,,,,,,,,,,,,,,,,,,,,,,,,,,,,,,,,,,,,,,,"[2,8]",,,,,,,,,,,,,,,,,,,,,,,,,,,,,,,,,,,,,1,0,1,0,1,,,,,,,,,,,,
,,62a75b7789c411b352595f2e,2022-09-08_13h19.03.526,CGTgamblingSpanTasks,2022.2.1,Win32,60.0276127,,,,,,,,,,,,,,,,,,,,,,,,,,,,,,,,,,,,,,,,,,,,,,,,,,,,,,,,,,,,,,,1,,,,,,,,,,,,,,,,,,,,,,,,,,,,,,,,,,,,,1,,,,,,,,,,,,,,,,,,,,,,,,82,0.104629658,-0.395370413,1,0,0,cont_buttonBS,0,0,0,0,1
,,62a75b7789c411b352595f2e,2022-09-08_13h19.03.526,CGTgamblingSpanTasks,2022.2.1,Win32,60.0276127,,,,,,,,,,,,,,,,,,,,,,,,,,,,,,,,,,,,,,,,,,,,,,,,,,,,,,,,,,,,,,,,,,,,,,,,,,,,,,,,,,"[2,6,5]",,,,,,,,,,,,,,,,,,,,,,,,,,,,,,,,,,,,,0,0,0,0,1,,,,,,,,,,,,
,,62a75b7789c411b352595f2e,2022-09-08_13h19.03.526,CGTgamblingSpanTasks,2022.2.1,Win32,60.0276127,,,,,,,,,,,,,,,,,,,,,,,,,,,,,,,,,,,,,,,,,,,,,,,,,,,,,,,,,,,,,,,,,,,,,,,,,,,,,,,,,,"[2,6,5]",,,,,,,,,,,,,,,,,,,,,,,,,,,,,,,,,,,,,1,0,1,0,1,,,,,,,,,,,,
,,62a75b7789c411b352595f2e,2022-09-08_13h19.03.526,CGTgamblingSpanTasks,2022.2.1,Win32,60.0276127,,,,,,,,,,,,,,,,,,,,,,,,,,,,,,,,,,,,,,,,,,,,,,,,,,,,,,,,,,,,,,,,,,,,,,,,,,,,,,,,,,"[2,6,5]",,,,,,,,,,,,,,,,,,,,,,,,,,,,,,,,,,,,,2,0,2,0,1,,,,,,,,,,,,
,,62a75b7789c411b352595f2e,2022-09-08_13h19.03.526,CGTgamblingSpanTasks,2022.2.1,Win32,60.0276127,,,,,,,,,,,,,,,,,,,,,,,,,,,,,,,,,,,,,,,,,,,,,,,,,,,,,,,,,,,,,,,1,,,,,,,,,,,,,,,,,,,,,,,,,,,,,,,,,,,,,2,,,,,,,,,,,,,,,,,,,,,,,,562,0.104629658,-0.395370413,1,0,0,cont_buttonBS,0,1,1,1,1
,,62a75b7789c411b352595f2e,2022-09-08_13h19.03.526,CGTgamblingSpanTasks,2022.2.1,Win32,60.0276127,,,,,,,,,,,,,,,,,,,,,,,,,,,,,,,,,,,,,,,,,,,,,,,,,,,,,,,,,,,,,,,,,,,,,,,,,,,,,,,,,,"[6,4,8,3]",,,,,,,,,,,,,,,,,,,,,,,,,,,,,,,,,,,,,0,0,0,0,1,,,,,,,,,,,,
,,62a75b7789c411b352595f2e,2022-09-08_13h19.03.526,CGTgamblingSpanTasks,2022.2.1,Win32,60.0276127,,,,,,,,,,,,,,,,,,,,,,,,,,,,,,,,,,,,,,,,,,,,,,,,,,,,,,,,,,,,,,,,,,,,,,,,,,,,,,,,,,"[6,4,8,3]",,,,,,,,,,,,,,,,,,,,,,,,,,,,,,,,,,,,,1,0,1,0,1,,,,,,,,,,,,
,,62a75b7789c411b352595f2e,2022-09-08_13h19.03.526,CGTgamblingSpanTasks,2022.2.1,Win32,60.0276127,,,,,,,,,,,,,,,,,,,,,,,,,,,,,,,,,,,,,,,,,,,,,,,,,,,,,,,,,,,,,,,,,,,,,,,,,,,,,,,,,,"[6,4,8,3]",,,,,,,,,,,,,,,,,,,,,,,,,,,,,,,,,,,,,2,0,2,0,1,,,,,,,,,,,,
,,62a75b7789c411b352595f2e,2022-09-08_13h19.03.526,CGTgamblingSpanTasks,2022.2.1,Win32,60.0276127,,,,,,,,,,,,,,,,,,,,,,,,,,,,,,,,,,,,,,,,,,,,,,,,,,,,,,,,,,,,,,,,,,,,,,,,,,,,,,,,,,"[6,4,8,3]",,,,,,,,,,,,,,,,,,,,,,,,,,,,,,,,,,,,,3,0,3,0,1,,,,,,,,,,,,
,,62a75b7789c411b352595f2e,2022-09-08_13h19.03.526,CGTgamblingSpanTasks,2022.2.1,Win32,60.0276127,,,,,,,,,,,,,,,,,,,,,,,,,,,,,,,,,,,,,,,,,,,,,,,,,,,,,,,,,,,,,,,1,,,,,,,,,,,,,,,,,,,,,,,,,,,,,,,,,,,,,3,,,,,,,,,,,,,,,,,,,,,,,,3846,0.071296339,-0.412037037,1,0,0,cont_buttonBS,0,2,2,2,1
,,62a75b7789c411b352595f2e,2022-09-08_13h19.03.526,CGTgamblingSpanTasks,2022.2.1,Win32,60.0276127,,,,,,,,,,,,,,,,,,,,,,,,,,,,,,,,,,,,,,,,,,,,,,,,,,,,,,,,,,,,,,,,,,,,,,,,,,,,,,,,,,"[4,6,9,7,2]",,,,,,,,,,,,,,,,,,,,,,,,,,,,,,,,,,,,,0,0,0,0,1,,,,,,,,,,,,
,,62a75b7789c411b352595f2e,2022-09-08_13h19.03.526,CGTgamblingSpanTasks,2022.2.1,Win32,60.0276127,,,,,,,,,,,,,,,,,,,,,,,,,,,,,,,,,,,,,,,,,,,,,,,,,,,,,,,,,,,,,,,,,,,,,,,,,,,,,,,,,,"[4,6,9,7,2]",,,,,,,,,,,,,,,,,,,,,,,,,,,,,,,,,,,,,1,0,1,0,1,,,,,,,,,,,,
,,62a75b7789c411b352595f2e,2022-09-08_13h19.03.526,CGTgamblingSpanTasks,2022.2.1,Win32,60.0276127,,,,,,,,,,,,,,,,,,,,,,,,,,,,,,,,,,,,,,,,,,,,,,,,,,,,,,,,,,,,,,,,,,,,,,,,,,,,,,,,,,"[4,6,9,7,2]",,,,,,,,,,,,,,,,,,,,,,,,,,,,,,,,,,,,,2,0,2,0,1,,,,,,,,,,,,
,,62a75b7789c411b352595f2e,2022-09-08_13h19.03.526,CGTgamblingSpanTasks,2022.2.1,Win32,60.0276127,,,,,,,,,,,,,,,,,,,,,,,,,,,,,,,,,,,,,,,,,,,,,,,,,,,,,,,,,,,,,,,,,,,,,,,,,,,,,,,,,,"[4,6,9,7,2]",,,,,,,,,,,,,,,,,,,,,,,,,,,,,,,,,,,,,3,0,3,0,1,,,,,,,,,,,,
,,62a75b7789c411b352595f2e,2022-09-08_13h19.03.526,CGTgamblingSpanTasks,2022.2.1,Win32,60.0276127,,,,,,,,,,,,,,,,,,,,,,,,,,,,,,,,,,,,,,,,,,,,,,,,,,,,,,,,,,,,,,,,,,,,,,,,,,,,,,,,,,"[4,6,9,7,2]",,,,,,,,,,,,,,,,,,,,,,,,,,,,,,,,,,,,,4,0,4,0,1,,,,,,,,,,,,
,,62a75b7789c411b352595f2e,2022-09-08_13h19.03.526,CGTgamblingSpanTasks,2022.2.1,Win32,60.0276127,,,,,,,,,,,,,,,,,,,,,,,,,,,,,,,,,,,,,,,,,,,,,,,,,,,,,,,,,,,,,,,1,,,,,,,,,,,,,,,,,,,,,,,,,,,,,,,,,,,,,4,,,,,,,,,,,,,,,,,,,,,,,,27964,0.087962963,-0.365740741,1,0,0,cont_buttonBS,0,3,3,3,1
,,62a75b7789c411b352595f2e,2022-09-08_13h19.03.526,CGTgamblingSpanTasks,2022.2.1,Win32,60.0276127,,,,,,,,,,,,,,,,,,,,,,,,,,,,,,,,,,,,,,,,,,,,,,,,,,,,,,,,,,,,,,,,,,,,,,,,,,,,,,,,,,"[1,8,9,5,7,6]",,,,,,,,,,,,,,,,,,,,,,,,,,,,,,,,,,,,,0,0,0,0,1,,,,,,,,,,,,
,,62a75b7789c411b352595f2e,2022-09-08_13h19.03.526,CGTgamblingSpanTasks,2022.2.1,Win32,60.0276127,,,,,,,,,,,,,,,,,,,,,,,,,,,,,,,,,,,,,,,,,,,,,,,,,,,,,,,,,,,,,,,,,,,,,,,,,,,,,,,,,,"[1,8,9,5,7,6]",,,,,,,,,,,,,,,,,,,,,,,,,,,,,,,,,,,,,1,0,1,0,1,,,,,,,,,,,,
,,62a75b7789c411b352595f2e,2022-09-08_13h19.03.526,CGTgamblingSpanTasks,2022.2.1,Win32,60.0276127,,,,,,,,,,,,,,,,,,,,,,,,,,,,,,,,,,,,,,,,,,,,,,,,,,,,,,,,,,,,,,,,,,,,,,,,,,,,,,,,,,"[1,8,9,5,7,6]",,,,,,,,,,,,,,,,,,,,,,,,,,,,,,,,,,,,,2,0,2,0,1,,,,,,,,,,,,
,,62a75b7789c411b352595f2e,2022-09-08_13h19.03.526,CGTgamblingSpanTasks,2022.2.1,Win32,60.0276127,,,,,,,,,,,,,,,,,,,,,,,,,,,,,,,,,,,,,,,,,,,,,,,,,,,,,,,,,,,,,,,,,,,,,,,,,,,,,,,,,,"[1,8,9,5,7,6]",,,,,,,,,,,,,,,,,,,,,,,,,,,,,,,,,,,,,3,0,3,0,1,,,,,,,,,,,,
,,62a75b7789c411b352595f2e,2022-09-08_13h19.03.526,CGTgamblingSpanTasks,2022.2.1,Win32,60.0276127,,,,,,,,,,,,,,,,,,,,,,,,,,,,,,,,,,,,,,,,,,,,,,,,,,,,,,,,,,,,,,,,,,,,,,,,,,,,,,,,,,"[1,8,9,5,7,6]",,,,,,,,,,,,,,,,,,,,,,,,,,,,,,,,,,,,,4,0,4,0,1,,,,,,,,,,,,
,,62a75b7789c411b352595f2e,2022-09-08_13h19.03.526,CGTgamblingSpanTasks,2022.2.1,Win32,60.0276127,,,,,,,,,,,,,,,,,,,,,,,,,,,,,,,,,,,,,,,,,,,,,,,,,,,,,,,,,,,,,,,,,,,,,,,,,,,,,,,,,,"[1,8,9,5,7,6]",,,,,,,,,,,,,,,,,,,,,,,,,,,,,,,,,,,,,5,0,5,0,1,,,,,,,,,,,,
,,62a75b7789c411b352595f2e,2022-09-08_13h19.03.526,CGTgamblingSpanTasks,2022.2.1,Win32,60.0276127,,,,,,,,,,,,,,,,,,,,,,,,,,,,,,,,,,,,,,,,,,,,,,,,,,,,,,,,,,,,,,,1,,,,,,,,,,,,,,,,,,,,,,,,,,,,,,,,,,,,,5,,,,,,,,,,,,,,,,,,,,,,,,675981,0.05277782,-0.389814801,1,0,0,cont_buttonBS,0,4,4,4,1
,,62a75b7789c411b352595f2e,2022-09-08_13h19.03.526,CGTgamblingSpanTasks,2022.2.1,Win32,60.0276127,,,,,,,,,,,,,,,,,,,,,,,,,,,,,,,,,,,,,,,,,,,,,,,,,,,,,,,,,,,,,,,,,,,,,,,,,,,,,,,,,,"[8,3,1,6,7,2,5]",,,,,,,,,,,,,,,,,,,,,,,,,,,,,,,,,,,,,0,0,0,0,1,,,,,,,,,,,,
,,62a75b7789c411b352595f2e,2022-09-08_13h19.03.526,CGTgamblingSpanTasks,2022.2.1,Win32,60.0276127,,,,,,,,,,,,,,,,,,,,,,,,,,,,,,,,,,,,,,,,,,,,,,,,,,,,,,,,,,,,,,,,,,,,,,,,,,,,,,,,,,"[8,3,1,6,7,2,5]",,,,,,,,,,,,,,,,,,,,,,,,,,,,,,,,,,,,,1,0,1,0,1,,,,,,,,,,,,
,,62a75b7789c411b352595f2e,2022-09-08_13h19.03.526,CGTgamblingSpanTasks,2022.2.1,Win32,60.0276127,,,,,,,,,,,,,,,,,,,,,,,,,,,,,,,,,,,,,,,,,,,,,,,,,,,,,,,,,,,,,,,,,,,,,,,,,,,,,,,,,,"[8,3,1,6,7,2,5]",,,,,,,,,,,,,,,,,,,,,,,,,,,,,,,,,,,,,2,0,2,0,1,,,,,,,,,,,,
,,62a75b7789c411b352595f2e,2022-09-08_13h19.03.526,CGTgamblingSpanTasks,2022.2.1,Win32,60.0276127,,,,,,,,,,,,,,,,,,,,,,,,,,,,,,,,,,,,,,,,,,,,,,,,,,,,,,,,,,,,,,,,,,,,,,,,,,,,,,,,,,"[8,3,1,6,7,2,5]",,,,,,,,,,,,,,,,,,,,,,,,,,,,,,,,,,,,,3,0,3,0,1,,,,,,,,,,,,
,,62a75b7789c411b352595f2e,2022-09-08_13h19.03.526,CGTgamblingSpanTasks,2022.2.1,Win32,60.0276127,,,,,,,,,,,,,,,,,,,,,,,,,,,,,,,,,,,,,,,,,,,,,,,,,,,,,,,,,,,,,,,,,,,,,,,,,,,,,,,,,,"[8,3,1,6,7,2,5]",,,,,,,,,,,,,,,,,,,,,,,,,,,,,,,,,,,,,4,0,4,0,1,,,,,,,,,,,,
,,62a75b7789c411b352595f2e,2022-09-08_13h19.03.526,CGTgamblingSpanTasks,2022.2.1,Win32,60.0276127,,,,,,,,,,,,,,,,,,,,,,,,,,,,,,,,,,,,,,,,,,,,,,,,,,,,,,,,,,,,,,,,,,,,,,,,,,,,,,,,,,"[8,3,1,6,7,2,5]",,,,,,,,,,,,,,,,,,,,,,,,,,,,,,,,,,,,,5,0,5,0,1,,,,,,,,,,,,
,,62a75b7789c411b352595f2e,2022-09-08_13h19.03.526,CGTgamblingSpanTasks,2022.2.1,Win32,60.0276127,,,,,,,,,,,,,,,,,,,,,,,,,,,,,,,,,,,,,,,,,,,,,,,,,,,,,,,,,,,,,,,,,,,,,,,,,,,,,,,,,,"[8,3,1,6,7,2,5]",,,,,,,,,,,,,,,,,,,,,,,,,,,,,,,,,,,,,6,0,6,0,1,,,,,,,,,,,,
,,62a75b7789c411b352595f2e,2022-09-08_13h19.03.526,CGTgamblingSpanTasks,2022.2.1,Win32,60.0276127,,,,,,,,,,,,,,,,,,,,,,,,,,,,,,,,,,,,,,,,,,,,,,,,,,,,,,,,,,,,,,,0,,,,,,,,,,,,,,,,,,,,,,,,,,,,,,,,,,,,,6,,,,,,,,,,,,,,,,,,,,,,,,2657318,0.050000014,-0.412962949,1,0,0,cont_buttonBS,0,5,5,5,1
,,62a75b7789c411b352595f2e,2022-09-08_13h19.03.526,CGTgamblingSpanTasks,2022.2.1,Win32,60.0276127,,,,,,,,,,,,,,,,,,,,,,,,,,,,,,,,,,,,,,,,,,,,,,,,,,,,,,,,,,,,,,,,,,,,,,,,,,,,,,,,,,"[4,6,9,8,1,3,7]",,,,,,,,,,,,,,,,,,,,,,,,,,,,,,,,,,,,,0,0,0,0,1,,,,,,,,,,,,
,,62a75b7789c411b352595f2e,2022-09-08_13h19.03.526,CGTgamblingSpanTasks,2022.2.1,Win32,60.0276127,,,,,,,,,,,,,,,,,,,,,,,,,,,,,,,,,,,,,,,,,,,,,,,,,,,,,,,,,,,,,,,,,,,,,,,,,,,,,,,,,,"[4,6,9,8,1,3,7]",,,,,,,,,,,,,,,,,,,,,,,,,,,,,,,,,,,,,1,0,1,0,1,,,,,,,,,,,,
