initITIstatic,initITIdynamic,participant,date,expName,psychopyVersion,OS,frameRate,inst1.keys,inst1.rt,startPracResp.keys,startPracResp.rt,choice1.keys,choice1.rt,outcome,extraITI,trials.thisRepN,trials.thisTrialN,trials.thisN,trials.thisIndex,trials.ran,riskyGain,riskyLoss,alternative,isi,iti,loc,postPractResp.keys,postPractResp.rt,realloc,realChoice.keys,realChoice.rt,outcomes,choices,actualITI,init ITI,staticRDM.thisRepN,staticRDM.thisTrialN,staticRDM.thisN,staticRDM.thisIndex,staticRDM.ran,riskyoption1,riskyoption2,safeoption,ischecktrial,dynamicChoiceSetName,dynamicChoiceSetPath,bestRho,bestMu,trials_2.thisRepN,trials_2.thisTrialN,trials_2.thisN,trials_2.thisIndex,trials_2.ran,key_resp.keys,key_resp.rt,dynamicRDM.thisRepN,dynamicRDM.thisTrialN,dynamicRDM.thisN,dynamicRDM.thisIndex,dynamicRDM.ran,choiceP,easy0difficult1,stopBreak.keys,stopBreak.rt,movealong.keys,movealong.rt,startPractice.keys,startPractice.rt,textboxPractice.text,correct,mousePractice.x,mousePractice.y,mousePractice.leftButton,mousePractice.midButton,mousePractice.rightButton,mousePractice.clicked_name,trialFSPractice.thisRepN,trialFSPractice.thisTrialN,trialFSPractice.thisN,trialFSPractice.thisIndex,trialFSPractice.ran,digitSpanForward,digits,digitsReverse,digitSpanReverse,digitsReverseCorrAnswer,startFSreal.keys,startFSreal.rt,digitsForTrial,digitLoop.thisRepN,digitLoop.thisTrialN,digitLoop.thisN,digitLoop.thisIndex,digitLoop.ran,textbox.text,mouse_3.x,mouse_3.y,mouse_3.leftButton,mouse_3.midButton,mouse_3.rightButton,mouse_3.clicked_name,trialsFS.thisRepN,trialsFS.thisTrialN,trialsFS.thisN,trialsFS.thisIndex,trialsFS.ran,trialNumber,moveToBS.keys,moveToBS.rt,startBSprac.keys,startBSprac.rt,textboxPractice_2.text,mousePractice_2.x,mousePractice_2.y,mousePractice_2.leftButton,mousePractice_2.midButton,mousePractice_2.rightButton,mousePractice_2.clicked_name,trialsPracticeBS.thisRepN,trialsPracticeBS.thisTrialN,trialsPracticeBS.thisN,trialsPracticeBS.thisIndex,trialsPracticeBS.ran,startBSreal.keys,startBSreal.rt,digitLoopBS.thisRepN,digitLoopBS.thisTrialN,digitLoopBS.thisN,digitLoopBS.thisIndex,digitLoopBS.ran,textboxBS.text,mouseBS.x,mouseBS.y,mouseBS.leftButton,mouseBS.midButton,mouseBS.rightButton,mouseBS.clicked_name,trialsBS.thisRepN,trialsBS.thisTrialN,trialsBS.thisN,trialsBS.thisIndex,trialsBS.ran
"[1,1.5,1.5,1,1.5,1.5,1,1,1,1.5,1.5,1,1,1,1,1,1.5,1,1,1.5,1.5,1,1.5,1,1.5,1,1.5,1.5,1,1,1,1.5,1.5,1.5,1.5,1,1.5,1,1,1.5,1.5,1,1.5,1,1.5,1,1,1.5,1.5,1.5]","[1,1,1,1.5,1,1,1,1,1.5,1.5,1,1.5,1.5,1.5,1.5,1,1.5,1.5,1,1.5,1,1.5,1,1,1,1,1.5,1,1.5,1.5,1.5,1,1,1,1,1,1,1,1,1.5,1.5,1,1,1.5,1.5,1.5,1.5,1.5,1,1,1.5,1,1.5,1,1,1,1,1.5,1,1.5,1,1,1.5,1.5,1.5,1.5,1,1.5,1.5,1,1.5,1,1,1.5,1.5,1,1,1,1,1,1,1.5,1,1,1,1,1.5,1.5,1.5,1,1,1.5,1.5,1,1,1.5,1.5,1.5,1.5,1.5,1,1,1.5,1.5,1,1.5,1.5,1.5,1,1.5,1.5,1.5,1.5,1,1.5,1.5,1,1.5,1.5,1.5]",5f29aa2ef40fa7112bcb2b80,2022-09-08_10h17.14.639,CGTgamblingSpanTasks,2022.2.1,Win32,59.96641881,,,,,,,,,,,,,,,,,,,,,,,,,,,,,,,,,,,,,,,,,,,,,,,,,,,,,,,,,,,,,,,,,,,,,,,,,,,,,,,,,,,,,,,,,,,,,,,,,,,,,,,,,,,,,,,,,,,,,,,,,,,,,,,,,,,,,,,
,,5f29aa2ef40fa7112bcb2b80,2022-09-08_10h17.14.639,CGTgamblingSpanTasks,2022.2.1,Win32,59.96641881,return,8.7549,,,,,,,,,,,,,,,,,,,,,,,,,,,,,,,,,,,,,,,,,,,,,,,,,,,,,,,,,,,,,,,,,,,,,,,,,,,,,,,,,,,,,,,,,,,,,,,,,,,,,,,,,,,,,,,,,,,,,,,,,,,,,,,,,,,,,
,,5f29aa2ef40fa7112bcb2b80,2022-09-08_10h17.14.639,CGTgamblingSpanTasks,2022.2.1,Win32,59.96641881,,,v,4.5421,,,,,,,,,,,,,,,,,,,,,,,,,,,,,,,,,,,,,,,,,,,,,,,,,,,,,,,,,,,,,,,,,,,,,,,,,,,,,,,,,,,,,,,,,,,,,,,,,,,,,,,,,,,,,,,,,,,,,,,,,,,,,,,,,,,
,,5f29aa2ef40fa7112bcb2b80,2022-09-08_10h17.14.639,CGTgamblingSpanTasks,2022.2.1,Win32,59.96641881,,,,,v,2.7739,0,1.2261,0,0,0,0,1,18.23,0,9.45,2,1,1,,,,,,,,,,,,,,,,,,,,,,,,,,,,,,,,,,,,,,,,,,,,,,,,,,,,,,,,,,,,,,,,,,,,,,,,,,,,,,,,,,,,,,,,,,,,,,,,,,,,,,,,,,,,,,,,,,,,
,,5f29aa2ef40fa7112bcb2b80,2022-09-08_10h17.14.639,CGTgamblingSpanTasks,2022.2.1,Win32,59.96641881,,,,,n,2.2424,35.16,1.7576,0,1,1,1,1,53.27,0,35.16,1,1.5,1,,,,,,,,,,,,,,,,,,,,,,,,,,,,,,,,,,,,,,,,,,,,,,,,,,,,,,,,,,,,,,,,,,,,,,,,,,,,,,,,,,,,,,,,,,,,,,,,,,,,,,,,,,,,,,,,,,,,
,,5f29aa2ef40fa7112bcb2b80,2022-09-08_10h17.14.639,CGTgamblingSpanTasks,2022.2.1,Win32,59.96641881,,,,,n,2.7451,0,1.2549,0,2,2,2,1,8.27,0,1.15,1,1.5,2,,,,,,,,,,,,,,,,,,,,,,,,,,,,,,,,,,,,,,,,,,,,,,,,,,,,,,,,,,,,,,,,,,,,,,,,,,,,,,,,,,,,,,,,,,,,,,,,,,,,,,,,,,,,,,,,,,,,
,,5f29aa2ef40fa7112bcb2b80,2022-09-08_10h17.14.639,CGTgamblingSpanTasks,2022.2.1,Win32,59.96641881,,,,,n,2.4325,40.41,1.5675,0,3,3,3,1,45.88,0,40.41,3,1,1,,,,,,,,,,,,,,,,,,,,,,,,,,,,,,,,,,,,,,,,,,,,,,,,,,,,,,,,,,,,,,,,,,,,,,,,,,,,,,,,,,,,,,,,,,,,,,,,,,,,,,,,,,,,,,,,,,,,
,,5f29aa2ef40fa7112bcb2b80,2022-09-08_10h17.14.639,CGTgamblingSpanTasks,2022.2.1,Win32,59.96641881,,,,,v,2.2939,11.96,1.7061,0,4,4,4,1,21.56,0,11.96,1,1.5,2,,,,,,,,,,,,,,,,,,,,,,,,,,,,,,,,,,,,,,,,,,,,,,,,,,,,,,,,,,,,,,,,,,,,,,,,,,,,,,,,,,,,,,,,,,,,,,,,,,,,,,,,,,,,,,,,,,,,
,,5f29aa2ef40fa7112bcb2b80,2022-09-08_10h17.14.639,CGTgamblingSpanTasks,2022.2.1,Win32,59.96641881,,,,,,,,,,,,,,,,,,,,n,3.8007,,,,,,,,,,,,,,,,,,,,,,,,,,,,,,,,,,,,,,,,,,,,,,,,,,,,,,,,,,,,,,,,,,,,,,,,,,,,,,,,,,,,,,,,,,,,,,,,,,,,,,,,,,,,,,,,,,
,,5f29aa2ef40fa7112bcb2b80,2022-09-08_10h17.14.639,CGTgamblingSpanTasks,2022.2.1,Win32,59.96641881,,,,,,,,1.5651,,,,,,,,,,,,,,2,n,2.4349,0,1,2.5651,1,0,0,0,21,1,17.59,0,9.2,0,,,,,,,,,,,,,,,,,,,,,,,,,,,,,,,,,,,,,,,,,,,,,,,,,,,,,,,,,,,,,,,,,,,,,,,,,,,,,,,,,,,,,,,,,,,,,,,,,,
,,5f29aa2ef40fa7112bcb2b80,2022-09-08_10h17.14.639,CGTgamblingSpanTasks,2022.2.1,Win32,59.96641881,,,,,,,,2.2069,,,,,,,,,,,,,,2,n,1.7931,0,1,3.7069,1.5,0,1,1,0,1,20.03,0,1.99,0,,,,,,,,,,,,,,,,,,,,,,,,,,,,,,,,,,,,,,,,,,,,,,,,,,,,,,,,,,,,,,,,,,,,,,,,,,,,,,,,,,,,,,,,,,,,,,,,,,
,,5f29aa2ef40fa7112bcb2b80,2022-09-08_10h17.14.639,CGTgamblingSpanTasks,2022.2.1,Win32,59.96641881,,,,,,,,1.8055,,,,,,,,,,,,,,1,n,2.1945,6.88,0,3.3055,1.5,0,2,2,36,1,10.24,0,6.88,0,,,,,,,,,,,,,,,,,,,,,,,,,,,,,,,,,,,,,,,,,,,,,,,,,,,,,,,,,,,,,,,,,,,,,,,,,,,,,,,,,,,,,,,,,,,,,,,,,,
,,5f29aa2ef40fa7112bcb2b80,2022-09-08_10h17.14.639,CGTgamblingSpanTasks,2022.2.1,Win32,59.96641881,,,,,,,,2.1971,,,,,,,,,,,,,,2,v,1.8029,10.46,0,3.1971,1,0,3,3,39,1,15.09,0,10.46,0,,,,,,,,,,,,,,,,,,,,,,,,,,,,,,,,,,,,,,,,,,,,,,,,,,,,,,,,,,,,,,,,,,,,,,,,,,,,,,,,,,,,,,,,,,,,,,,,,,
,,5f29aa2ef40fa7112bcb2b80,2022-09-08_10h17.14.639,CGTgamblingSpanTasks,2022.2.1,Win32,59.96641881,,,,,,,,1.4411,,,,,,,,,,,,,,2,n,2.5589,13.45,1,2.9411,1.5,0,4,4,10,1,13.45,0,5.27,0,,,,,,,,,,,,,,,,,,,,,,,,,,,,,,,,,,,,,,,,,,,,,,,,,,,,,,,,,,,,,,,,,,,,,,,,,,,,,,,,,,,,,,,,,,,,,,,,,,
,,5f29aa2ef40fa7112bcb2b80,2022-09-08_10h17.14.639,CGTgamblingSpanTasks,2022.2.1,Win32,59.96641881,,,,,,,,0.972,,,,,,,,,,,,,,1,n,3.028,6.4,0,2.472,1.5,0,5,5,26,1,11.2,0,6.4,0,,,,,,,,,,,,,,,,,,,,,,,,,,,,,,,,,,,,,,,,,,,,,,,,,,,,,,,,,,,,,,,,,,,,,,,,,,,,,,,,,,,,,,,,,,,,,,,,,,
,,5f29aa2ef40fa7112bcb2b80,2022-09-08_10h17.14.639,CGTgamblingSpanTasks,2022.2.1,Win32,59.96641881,,,,,,,,1.8646,,,,,,,,,,,,,,1,v,2.1354,20.53,1,2.8646,1,0,6,6,9,1,20.53,0,7.73,0,,,,,,,,,,,,,,,,,,,,,,,,,,,,,,,,,,,,,,,,,,,,,,,,,,,,,,,,,,,,,,,,,,,,,,,,,,,,,,,,,,,,,,,,,,,,,,,,,,
,,5f29aa2ef40fa7112bcb2b80,2022-09-08_10h17.14.639,CGTgamblingSpanTasks,2022.2.1,Win32,59.96641881,,,,,,,,0.8731,,,,,,,,,,,,,,2,v,3.1269,10.68,0,1.8731,1,0,7,7,48,1,10.68,0,10.68,1,,,,,,,,,,,,,,,,,,,,,,,,,,,,,,,,,,,,,,,,,,,,,,,,,,,,,,,,,,,,,,,,,,,,,,,,,,,,,,,,,,,,,,,,,,,,,,,,,,
,,5f29aa2ef40fa7112bcb2b80,2022-09-08_10h17.14.639,CGTgamblingSpanTasks,2022.2.1,Win32,59.96641881,,,,,,,,2.5748,,,,,,,,,,,,,,1,n,1.4252,9.87,0,3.5748,1,0,8,8,29,1,16.26,0,9.87,0,,,,,,,,,,,,,,,,,,,,,,,,,,,,,,,,,,,,,,,,,,,,,,,,,,,,,,,,,,,,,,,,,,,,,,,,,,,,,,,,,,,,,,,,,,,,,,,,,,
,,5f29aa2ef40fa7112bcb2b80,2022-09-08_10h17.14.639,CGTgamblingSpanTasks,2022.2.1,Win32,59.96641881,,,,,,,,2.176,,,,,,,,,,,,,,2,n,1.824,16.11,1,3.676,1.5,0,9,9,43,1,16.11,6.99,6.99,1,,,,,,,,,,,,,,,,,,,,,,,,,,,,,,,,,,,,,,,,,,,,,,,,,,,,,,,,,,,,,,,,,,,,,,,,,,,,,,,,,,,,,,,,,,,,,,,,,,
,,5f29aa2ef40fa7112bcb2b80,2022-09-08_10h17.14.639,CGTgamblingSpanTasks,2022.2.1,Win32,59.96641881,,,,,,,,2.0732,,,,,,,,,,,,,,1,n,1.9268,10.25,0,3.5732,1.5,0,10,10,46,1,0,0,10.25,1,,,,,,,,,,,,,,,,,,,,,,,,,,,,,,,,,,,,,,,,,,,,,,,,,,,,,,,,,,,,,,,,,,,,,,,,,,,,,,,,,,,,,,,,,,,,,,,,,,
,,5f29aa2ef40fa7112bcb2b80,2022-09-08_10h17.14.639,CGTgamblingSpanTasks,2022.2.1,Win32,59.96641881,,,,,,,,2.0505,,,,,,,,,,,,,,2,v,1.9495,6.94,0,3.0505,1,0,11,11,38,1,10.12,0,6.94,0,,,,,,,,,,,,,,,,,,,,,,,,,,,,,,,,,,,,,,,,,,,,,,,,,,,,,,,,,,,,,,,,,,,,,,,,,,,,,,,,,,,,,,,,,,,,,,,,,,
,,5f29aa2ef40fa7112bcb2b80,2022-09-08_10h17.14.639,CGTgamblingSpanTasks,2022.2.1,Win32,59.96641881,,,,,,,,2.1679,,,,,,,,,,,,,,2,n,1.8321,12.36,1,3.1679,1,0,12,12,16,1,12.36,0,5.82,0,,,,,,,,,,,,,,,,,,,,,,,,,,,,,,,,,,,,,,,,,,,,,,,,,,,,,,,,,,,,,,,,,,,,,,,,,,,,,,,,,,,,,,,,,,,,,,,,,,
,,5f29aa2ef40fa7112bcb2b80,2022-09-08_10h17.14.639,CGTgamblingSpanTasks,2022.2.1,Win32,59.96641881,,,,,,,,2.6788,,,,,,,,,,,,,,2,n,1.3212,0,1,3.6788,1,0,13,13,40,1,10.35,0,0,1,,,,,,,,,,,,,,,,,,,,,,,,,,,,,,,,,,,,,,,,,,,,,,,,,,,,,,,,,,,,,,,,,,,,,,,,,,,,,,,,,,,,,,,,,,,,,,,,,,
,,5f29aa2ef40fa7112bcb2b80,2022-09-08_10h17.14.639,CGTgamblingSpanTasks,2022.2.1,Win32,59.96641881,,,,,,,,2.4563,,,,,,,,,,,,,,2,v,1.5437,10.02,0,3.4563,1,0,14,14,31,1,15.96,0,10.02,0,,,,,,,,,,,,,,,,,,,,,,,,,,,,,,,,,,,,,,,,,,,,,,,,,,,,,,,,,,,,,,,,,,,,,,,,,,,,,,,,,,,,,,,,,,,,,,,,,,
,,5f29aa2ef40fa7112bcb2b80,2022-09-08_10h17.14.639,CGTgamblingSpanTasks,2022.2.1,Win32,59.96641881,,,,,,,,2.555,,,,,,,,,,,,,,1,v,1.445,13.1,1,3.555,1,0,15,15,44,1,13.1,7.73,4.68,1,,,,,,,,,,,,,,,,,,,,,,,,,,,,,,,,,,,,,,,,,,,,,,,,,,,,,,,,,,,,,,,,,,,,,,,,,,,,,,,,,,,,,,,,,,,,,,,,,,
,,5f29aa2ef40fa7112bcb2b80,2022-09-08_10h17.14.639,CGTgamblingSpanTasks,2022.2.1,Win32,59.96641881,,,,,,,,2.5075,,,,,,,,,,,,,,1,v,1.4925,25.2,1,4.0075,1.5,0,16,16,3,1,25.2,0,5.4,0,,,,,,,,,,,,,,,,,,,,,,,,,,,,,,,,,,,,,,,,,,,,,,,,,,,,,,,,,,,,,,,,,,,,,,,,,,,,,,,,,,,,,,,,,,,,,,,,,,
,,5f29aa2ef40fa7112bcb2b80,2022-09-08_10h17.14.639,CGTgamblingSpanTasks,2022.2.1,Win32,59.96641881,,,,,,,,2.7815,,,,,,,,,,,,,,1,n,1.2185,7.55,0,3.7815,1,0,17,17,45,1,0,0,7.55,1,,,,,,,,,,,,,,,,,,,,,,,,,,,,,,,,,,,,,,,,,,,,,,,,,,,,,,,,,,,,,,,,,,,,,,,,,,,,,,,,,,,,,,,,,,,,,,,,,,
,,5f29aa2ef40fa7112bcb2b80,2022-09-08_10h17.14.639,CGTgamblingSpanTasks,2022.2.1,Win32,59.96641881,,,,,,,,2.1537,,,,,,,,,,,,,,2,n,1.8463,17.94,1,3.1537,1,0,18,18,19,1,17.94,0,9.03,0,,,,,,,,,,,,,,,,,,,,,,,,,,,,,,,,,,,,,,,,,,,,,,,,,,,,,,,,,,,,,,,,,,,,,,,,,,,,,,,,,,,,,,,,,,,,,,,,,,
,,5f29aa2ef40fa7112bcb2b80,2022-09-08_10h17.14.639,CGTgamblingSpanTasks,2022.2.1,Win32,59.96641881,,,,,,,,2.3011,,,,,,,,,,,,,,1,v,1.6989,17.73,1,3.8011,1.5,0,19,19,2,1,17.73,0,3.13,0,,,,,,,,,,,,,,,,,,,,,,,,,,,,,,,,,,,,,,,,,,,,,,,,,,,,,,,,,,,,,,,,,,,,,,,,,,,,,,,,,,,,,,,,,,,,,,,,,,
,,5f29aa2ef40fa7112bcb2b80,2022-09-08_10h17.14.639,CGTgamblingSpanTasks,2022.2.1,Win32,59.96641881,,,,,,,,2.0644,,,,,,,,,,,,,,1,v,1.9356,17.28,1,3.5644,1.5,0,20,20,23,1,17.28,0,9.36,0,,,,,,,,,,,,,,,,,,,,,,,,,,,,,,,,,,,,,,,,,,,,,,,,,,,,,,,,,,,,,,,,,,,,,,,,,,,,,,,,,,,,,,,,,,,,,,,,,,
,,5f29aa2ef40fa7112bcb2b80,2022-09-08_10h17.14.639,CGTgamblingSpanTasks,2022.2.1,Win32,59.96641881,,,,,,,,1.5929,,,,,,,,,,,,,,2,n,2.4071,15.47,1,2.5929,1,0,21,21,35,1,15.47,0,10.27,0,,,,,,,,,,,,,,,,,,,,,,,,,,,,,,,,,,,,,,,,,,,,,,,,,,,,,,,,,,,,,,,,,,,,,,,,,,,,,,,,,,,,,,,,,,,,,,,,,,
,,5f29aa2ef40fa7112bcb2b80,2022-09-08_10h17.14.639,CGTgamblingSpanTasks,2022.2.1,Win32,59.96641881,,,,,,,,2.0702,,,,,,,,,,,,,,2,v,1.9298,4,0,3.5702,1.5,0,22,22,4,1,16,0,4,0,,,,,,,,,,,,,,,,,,,,,,,,,,,,,,,,,,,,,,,,,,,,,,,,,,,,,,,,,,,,,,,,,,,,,,,,,,,,,,,,,,,,,,,,,,,,,,,,,,
,,5f29aa2ef40fa7112bcb2b80,2022-09-08_10h17.14.639,CGTgamblingSpanTasks,2022.2.1,Win32,59.96641881,,,,,,,,2.1259,,,,,,,,,,,,,,1,v,1.8741,13.04,1,3.1259,1,0,23,23,12,1,13.04,0,5.48,0,,,,,,,,,,,,,,,,,,,,,,,,,,,,,,,,,,,,,,,,,,,,,,,,,,,,,,,,,,,,,,,,,,,,,,,,,,,,,,,,,,,,,,,,,,,,,,,,,,
,,5f29aa2ef40fa7112bcb2b80,2022-09-08_10h17.14.639,CGTgamblingSpanTasks,2022.2.1,Win32,59.96641881,,,,,,,,1.9504,,,,,,,,,,,,,,2,n,2.0496,14.26,1,3.4504,1.5,0,24,24,41,1,14.26,0,0,1,,,,,,,,,,,,,,,,,,,,,,,,,,,,,,,,,,,,,,,,,,,,,,,,,,,,,,,,,,,,,,,,,,,,,,,,,,,,,,,,,,,,,,,,,,,,,,,,,,
,,5f29aa2ef40fa7112bcb2b80,2022-09-08_10h17.14.639,CGTgamblingSpanTasks,2022.2.1,Win32,59.96641881,,,,,,,,0,,,,,,,,,,,,,,1,,,,,1,1,0,25,25,32,1,10.55,0,6.73,0,,,,,,,,,,,,,,,,,,,,,,,,,,,,,,,,,,,,,,,,,,,,,,,,,,,,,,,,,,,,,,,,,,,,,,,,,,,,,,,,,,,,,,,,,,,,,,,,,,
,,5f29aa2ef40fa7112bcb2b80,2022-09-08_10h17.14.639,CGTgamblingSpanTasks,2022.2.1,Win32,59.96641881,,,,,,,,0.4997,,,,,,,,,,,,,,2,n,3.5003,0,1,1.9997,1.5,0,26,26,30,1,10.73,0,6.63,0,,,,,,,,,,,,,,,,,,,,,,,,,,,,,,,,,,,,,,,,,,,,,,,,,,,,,,,,,,,,,,,,,,,,,,,,,,,,,,,,,,,,,,,,,,,,,,,,,,
,,5f29aa2ef40fa7112bcb2b80,2022-09-08_10h17.14.639,CGTgamblingSpanTasks,2022.2.1,Win32,59.96641881,,,,,,,,2.6501,,,,,,,,,,,,,,1,v,1.3499,17,1,4.1501,1.5,0,27,27,25,1,17,0,9.5,0,,,,,,,,,,,,,,,,,,,,,,,,,,,,,,,,,,,,,,,,,,,,,,,,,,,,,,,,,,,,,,,,,,,,,,,,,,,,,,,,,,,,,,,,,,,,,,,,,,
,,5f29aa2ef40fa7112bcb2b80,2022-09-08_10h17.14.639,CGTgamblingSpanTasks,2022.2.1,Win32,59.96641881,,,,,,,,2.7808,,,,,,,,,,,,,,1,v,1.2192,0,1,3.7808,1,0,28,28,11,1,19.86,0,8.07,0,,,,,,,,,,,,,,,,,,,,,,,,,,,,,,,,,,,,,,,,,,,,,,,,,,,,,,,,,,,,,,,,,,,,,,,,,,,,,,,,,,,,,,,,,,,,,,,,,,
,,5f29aa2ef40fa7112bcb2b80,2022-09-08_10h17.14.639,CGTgamblingSpanTasks,2022.2.1,Win32,59.96641881,,,,,,,,1.9813,,,,,,,,,,,,,,1,n,2.0187,5.66,0,2.9813,1,0,29,29,14,1,12.68,0,5.66,0,,,,,,,,,,,,,,,,,,,,,,,,,,,,,,,,,,,,,,,,,,,,,,,,,,,,,,,,,,,,,,,,,,,,,,,,,,,,,,,,,,,,,,,,,,,,,,,,,,
,,5f29aa2ef40fa7112bcb2b80,2022-09-08_10h17.14.639,CGTgamblingSpanTasks,2022.2.1,Win32,59.96641881,,,,,,,,1.591,,,,,,,,,,,,,,1,n,2.409,6.29,0,2.591,1,0,30,30,24,1,11.43,0,6.29,0,,,,,,,,,,,,,,,,,,,,,,,,,,,,,,,,,,,,,,,,,,,,,,,,,,,,,,,,,,,,,,,,,,,,,,,,,,,,,,,,,,,,,,,,,,,,,,,,,,
,,5f29aa2ef40fa7112bcb2b80,2022-09-08_10h17.14.639,CGTgamblingSpanTasks,2022.2.1,Win32,59.96641881,,,,,,,,0.3406,,,,,,,,,,,,,,2,v,3.6594,6.81,0,1.8406,1.5,0,31,31,34,1,10.39,0,6.81,0,,,,,,,,,,,,,,,,,,,,,,,,,,,,,,,,,,,,,,,,,,,,,,,,,,,,,,,,,,,,,,,,,,,,,,,,,,,,,,,,,,,,,,,,,,,,,,,,,,
,,5f29aa2ef40fa7112bcb2b80,2022-09-08_10h17.14.639,CGTgamblingSpanTasks,2022.2.1,Win32,59.96641881,,,,,,,,2.883,,,,,,,,,,,,,,1,v,1.117,0,1,4.383,1.5,0,32,32,37,1,15.27,0,10.37,0,,,,,,,,,,,,,,,,,,,,,,,,,,,,,,,,,,,,,,,,,,,,,,,,,,,,,,,,,,,,,,,,,,,,,,,,,,,,,,,,,,,,,,,,,,,,,,,,,,
,,5f29aa2ef40fa7112bcb2b80,2022-09-08_10h17.14.639,CGTgamblingSpanTasks,2022.2.1,Win32,59.96641881,,,,,,,,2.4722,,,,,,,,,,,,,,1,n,1.5278,5.96,0,3.9722,1.5,0,33,33,18,1,12.08,0,5.96,0,,,,,,,,,,,,,,,,,,,,,,,,,,,,,,,,,,,,,,,,,,,,,,,,,,,,,,,,,,,,,,,,,,,,,,,,,,,,,,,,,,,,,,,,,,,,,,,,,,
,,5f29aa2ef40fa7112bcb2b80,2022-09-08_10h17.14.639,CGTgamblingSpanTasks,2022.2.1,Win32,59.96641881,,,,,,,,2.2162,,,,,,,,,,,,,,1,n,1.7838,4.64,0,3.7162,1.5,0,34,34,6,1,14.72,0,4.64,0,,,,,,,,,,,,,,,,,,,,,,,,,,,,,,,,,,,,,,,,,,,,,,,,,,,,,,,,,,,,,,,,,,,,,,,,,,,,,,,,,,,,,,,,,,,,,,,,,,
,,5f29aa2ef40fa7112bcb2b80,2022-09-08_10h17.14.639,CGTgamblingSpanTasks,2022.2.1,Win32,59.96641881,,,,,,,,1.0398,,,,,,,,,,,,,,1,n,2.9602,7.34,0,2.0398,1,0,35,35,7,1,21.32,0,7.34,0,,,,,,,,,,,,,,,,,,,,,,,,,,,,,,,,,,,,,,,,,,,,,,,,,,,,,,,,,,,,,,,,,,,,,,,,,,,,,,,,,,,,,,,,,,,,,,,,,,
,,5f29aa2ef40fa7112bcb2b80,2022-09-08_10h17.14.639,CGTgamblingSpanTasks,2022.2.1,Win32,59.96641881,,,,,,,,1.8165,,,,,,,,,,,,,,1,n,2.1835,6.53,0,3.3165,1.5,0,36,36,28,1,10.95,0,6.53,0,,,,,,,,,,,,,,,,,,,,,,,,,,,,,,,,,,,,,,,,,,,,,,,,,,,,,,,,,,,,,,,,,,,,,,,,,,,,,,,,,,,,,,,,,,,,,,,,,,
,,5f29aa2ef40fa7112bcb2b80,2022-09-08_10h17.14.639,CGTgamblingSpanTasks,2022.2.1,Win32,59.96641881,,,,,,,,2.3038,,,,,,,,,,,,,,1,v,1.6962,13.94,1,3.3038,1,0,37,37,8,1,13.94,0,5.03,0,,,,,,,,,,,,,,,,,,,,,,,,,,,,,,,,,,,,,,,,,,,,,,,,,,,,,,,,,,,,,,,,,,,,,,,,,,,,,,,,,,,,,,,,,,,,,,,,,,
,,5f29aa2ef40fa7112bcb2b80,2022-09-08_10h17.14.639,CGTgamblingSpanTasks,2022.2.1,Win32,59.96641881,,,,,,,,0,,,,,,,,,,,,,,1,,,,,1,1,0,38,38,47,1,0,0,3.13,1,,,,,,,,,,,,,,,,,,,,,,,,,,,,,,,,,,,,,,,,,,,,,,,,,,,,,,,,,,,,,,,,,,,,,,,,,,,,,,,,,,,,,,,,,,,,,,,,,,
,,5f29aa2ef40fa7112bcb2b80,2022-09-08_10h17.14.639,CGTgamblingSpanTasks,2022.2.1,Win32,59.96641881,,,,,,,,2.1052,,,,,,,,,,,,,,2,n,1.8948,19.86,1,3.6052,1.5,0,39,39,42,1,19.86,0,0,1,,,,,,,,,,,,,,,,,,,,,,,,,,,,,,,,,,,,,,,,,,,,,,,,,,,,,,,,,,,,,,,,,,,,,,,,,,,,,,,,,,,,,,,,,,,,,,,,,,
,,5f29aa2ef40fa7112bcb2b80,2022-09-08_10h17.14.639,CGTgamblingSpanTasks,2022.2.1,Win32,59.96641881,,,,,,,,0,,,,,,,,,,,,,,1,,,,,1.5,1.5,0,40,40,49,1,6.79,0,9.92,1,,,,,,,,,,,,,,,,,,,,,,,,,,,,,,,,,,,,,,,,,,,,,,,,,,,,,,,,,,,,,,,,,,,,,,,,,,,,,,,,,,,,,,,,,,,,,,,,,,
,,5f29aa2ef40fa7112bcb2b80,2022-09-08_10h17.14.639,CGTgamblingSpanTasks,2022.2.1,Win32,59.96641881,,,,,,,,2.8376,,,,,,,,,,,,,,2,n,1.1624,0,1,3.8376,1,0,41,41,17,1,18.33,0,8.84,0,,,,,,,,,,,,,,,,,,,,,,,,,,,,,,,,,,,,,,,,,,,,,,,,,,,,,,,,,,,,,,,,,,,,,,,,,,,,,,,,,,,,,,,,,,,,,,,,,,
,,5f29aa2ef40fa7112bcb2b80,2022-09-08_10h17.14.639,CGTgamblingSpanTasks,2022.2.1,Win32,59.96641881,,,,,,,,2.8896,,,,,,,,,,,,,,1,n,1.1104,8.36,0,4.3896,1.5,0,42,42,13,1,19.28,0,8.36,0,,,,,,,,,,,,,,,,,,,,,,,,,,,,,,,,,,,,,,,,,,,,,,,,,,,,,,,,,,,,,,,,,,,,,,,,,,,,,,,,,,,,,,,,,,,,,,,,,,
,,5f29aa2ef40fa7112bcb2b80,2022-09-08_10h17.14.639,CGTgamblingSpanTasks,2022.2.1,Win32,59.96641881,,,,,,,,0.8808,,,,,,,,,,,,,,1,v,3.1192,0,1,1.8808,1,0,43,43,15,1,18.77,0,8.61,0,,,,,,,,,,,,,,,,,,,,,,,,,,,,,,,,,,,,,,,,,,,,,,,,,,,,,,,,,,,,,,,,,,,,,,,,,,,,,,,,,,,,,,,,,,,,,,,,,,
,,5f29aa2ef40fa7112bcb2b80,2022-09-08_10h17.14.639,CGTgamblingSpanTasks,2022.2.1,Win32,59.96641881,,,,,,,,2.7659,,,,,,,,,,,,,,2,v,1.2341,6.51,0,4.2659,1.5,0,44,44,5,1,22.97,0,6.51,0,,,,,,,,,,,,,,,,,,,,,,,,,,,,,,,,,,,,,,,,,,,,,,,,,,,,,,,,,,,,,,,,,,,,,,,,,,,,,,,,,,,,,,,,,,,,,,,,,,
,,5f29aa2ef40fa7112bcb2b80,2022-09-08_10h17.14.639,CGTgamblingSpanTasks,2022.2.1,Win32,59.96641881,,,,,,,,3.0817,,,,,,,,,,,,,,2,v,0.9183,9.7,0,4.0817,1,0,45,45,27,1,16.6,0,9.7,0,,,,,,,,,,,,,,,,,,,,,,,,,,,,,,,,,,,,,,,,,,,,,,,,,,,,,,,,,,,,,,,,,,,,,,,,,,,,,,,,,,,,,,,,,,,,,,,,,,
,,5f29aa2ef40fa7112bcb2b80,2022-09-08_10h17.14.639,CGTgamblingSpanTasks,2022.2.1,Win32,59.96641881,,,,,,,,2.9721,,,,,,,,,,,,,,1,n,1.0279,6.08,0,3.9721,1,0,46,46,20,1,11.84,0,6.08,0,,,,,,,,,,,,,,,,,,,,,,,,,,,,,,,,,,,,,,,,,,,,,,,,,,,,,,,,,,,,,,,,,,,,,,,,,,,,,,,,,,,,,,,,,,,,,,,,,,
,,5f29aa2ef40fa7112bcb2b80,2022-09-08_10h17.14.639,CGTgamblingSpanTasks,2022.2.1,Win32,59.96641881,,,,,,,,0.4312,,,,,,,,,,,,,,2,v,3.5688,10.15,0,1.9312,1.5,0,47,47,33,1,15.7,0,10.15,0,,,,,,,,,,,,,,,,,,,,,,,,,,,,,,,,,,,,,,,,,,,,,,,,,,,,,,,,,,,,,,,,,,,,,,,,,,,,,,,,,,,,,,,,,,,,,,,,,,
,,5f29aa2ef40fa7112bcb2b80,2022-09-08_10h17.14.639,CGTgamblingSpanTasks,2022.2.1,Win32,59.96641881,,,,,,,,2.489,,,,,,,,,,,,,,2,n,1.511,11.62,1,3.989,1.5,0,48,48,22,1,11.62,0,6.19,0,,,,,,,,,,,,,,,,,,,,,,,,,,,,,,,,,,,,,,,,,,,,,,,,,,,,,,,,,,,,,,,,,,,,,,,,,,,,,,,,,,,,,,,,,,,,,,,,,,
,,5f29aa2ef40fa7112bcb2b80,2022-09-08_10h17.14.639,CGTgamblingSpanTasks,2022.2.1,Win32,59.96641881,,,,,,,,2.735,,,,,,,,,,,,,,1,v,1.265,0,1,4.235,1.5,0,49,49,1,1,28.21,0,3.89,0,,,,,,,,,,,,,,,,,,,,,,,,,,,,,,,,,,,,,,,,,,,,,,,,,,,,,,,,,,,,,,,,,,,,,,,,,,,,,,,,,,,,,,,,,,,,,,,,,,
,,5f29aa2ef40fa7112bcb2b80,2022-09-08_10h17.14.639,CGTgamblingSpanTasks,2022.2.1,Win32,59.96641881,,,,,,,,,,,,,,,,,,,,,,,,,,,,,,,,,,,,,,bespoke_choiceset_rhoInd066_muInd006.csv,bespoke_choicesets/bespoke_choiceset_rhoInd066_muInd006.csv,66,6,0,0,0,0,1,,,,,,,,,,,,,,,,,,,,,,,,,,,,,,,,,,,,,,,,,,,,,,,,,,,,,,,,,,,,,,,,,,,,,,,,,,,,,,,,,,,,,,,,,
,,5f29aa2ef40fa7112bcb2b80,2022-09-08_10h17.14.639,CGTgamblingSpanTasks,2022.2.1,Win32,59.96641881,,,,,,,,,,,,,,,,,,,,,,,,,,,,,,,,,,,,,,,,,,,,,,,,,,,,,,,,,,,,,,,,,,,,,,,,,,,,,,,,,,,,,,,,,,,,,,,,,,,,,,,,,,,,,,,,,,,,,,,,,,,,,,,,,,,,,,,
,,5f29aa2ef40fa7112bcb2b80,2022-09-08_10h17.14.639,CGTgamblingSpanTasks,2022.2.1,Win32,59.96641881,,,,,,,,,,,,,,,,,,,,,,,,,,,,,,,,,,,,,,,,,,,,,,,n,114.1527,,,,,,,,,,,,,,,,,,,,,,,,,,,,,,,,,,,,,,,,,,,,,,,,,,,,,,,,,,,,,,,,,,,,,,,,,,,,,,,,,,,,,,,
,,5f29aa2ef40fa7112bcb2b80,2022-09-08_10h17.14.639,CGTgamblingSpanTasks,2022.2.1,Win32,59.96641881,,,,,,,,2.6448,,,,,,,,,,,,,,1,n,1.3552,1.716380842,0,3.6448,1,,,,,,17.30137174,0,1.716380842,,,,,,,,,,,,,0,0,0,20,1,0.500020285,1,,,,,,,,,,,,,,,,,,,,,,,,,,,,,,,,,,,,,,,,,,,,,,,,,,,,,,,,,,,,,,,,,,,,,,,,,,,,,,,,
,,5f29aa2ef40fa7112bcb2b80,2022-09-08_10h17.14.639,CGTgamblingSpanTasks,2022.2.1,Win32,59.96641881,,,,,,,,2.5995,,,,,,,,,,,,,,2,n,1.4005,24.57684014,1,3.5995,1,,,,,,24.57684014,0,0.061756244,,,,,,,,,,,,,0,1,1,68,1,0.911988903,0,,,,,,,,,,,,,,,,,,,,,,,,,,,,,,,,,,,,,,,,,,,,,,,,,,,,,,,,,,,,,,,,,,,,,,,,,,,,,,,,
,,5f29aa2ef40fa7112bcb2b80,2022-09-08_10h17.14.639,CGTgamblingSpanTasks,2022.2.1,Win32,59.96641881,,,,,,,,2.7041,,,,,,,,,,,,,,1,v,1.2959,24.35708027,1,3.7041,1,,,,,,24.35708027,0,2.738695417,,,,,,,,,,,,,0,2,2,114,1,0.466573634,1,,,,,,,,,,,,,,,,,,,,,,,,,,,,,,,,,,,,,,,,,,,,,,,,,,,,,,,,,,,,,,,,,,,,,,,,,,,,,,,,
,,5f29aa2ef40fa7112bcb2b80,2022-09-08_10h17.14.639,CGTgamblingSpanTasks,2022.2.1,Win32,59.96641881,,,,,,,,2.1188,,,,,,,,,,,,,,2,v,1.8812,10.31611309,0,3.6188,1.5,,,,,,19.30622782,0,10.31611309,,,,,,,,,,,,,0,3,3,1,1,0.091105656,0,,,,,,,,,,,,,,,,,,,,,,,,,,,,,,,,,,,,,,,,,,,,,,,,,,,,,,,,,,,,,,,,,,,,,,,,,,,,,,,,
,,5f29aa2ef40fa7112bcb2b80,2022-09-08_10h17.14.639,CGTgamblingSpanTasks,2022.2.1,Win32,59.96641881,,,,,,,,2.6923,,,,,,,,,,,,,,1,v,1.3077,21.17800335,1,3.6923,1,,,,,,21.17800335,0,0.059830985,,,,,,,,,,,,,0,4,4,67,1,0.908594974,0,,,,,,,,,,,,,,,,,,,,,,,,,,,,,,,,,,,,,,,,,,,,,,,,,,,,,,,,,,,,,,,,,,,,,,,,,,,,,,,,
,,5f29aa2ef40fa7112bcb2b80,2022-09-08_10h17.14.639,CGTgamblingSpanTasks,2022.2.1,Win32,59.96641881,,,,,,,,2.4513,,,,,,,,,,,,,,2,n,1.5487,25.56803059,1,3.4513,1,,,,,,25.56803059,0,2.543951743,,,,,,,,,,,,,0,5,5,41,1,0.499247217,1,,,,,,,,,,,,,,,,,,,,,,,,,,,,,,,,,,,,,,,,,,,,,,,,,,,,,,,,,,,,,,,,,,,,,,,,,,,,,,,,
,,5f29aa2ef40fa7112bcb2b80,2022-09-08_10h17.14.639,CGTgamblingSpanTasks,2022.2.1,Win32,59.96641881,,,,,,,,2.4998,,,,,,,,,,,,,,1,v,1.5002,0,1,3.4998,1,,,,,,19.68065872,0,1.843597162,,,,,,,,,,,,,0,6,6,80,1,0.514941058,1,,,,,,,,,,,,,,,,,,,,,,,,,,,,,,,,,,,,,,,,,,,,,,,,,,,,,,,,,,,,,,,,,,,,,,,,,,,,,,,,
,,5f29aa2ef40fa7112bcb2b80,2022-09-08_10h17.14.639,CGTgamblingSpanTasks,2022.2.1,Win32,59.96641881,,,,,,,,2.7183,,,,,,,,,,,,,,1,n,1.2817,11.61882862,0,3.7183,1,,,,,,4.022743614,0,11.61882862,,,,,,,,,,,,,0,7,7,38,1,0.011499376,0,,,,,,,,,,,,,,,,,,,,,,,,,,,,,,,,,,,,,,,,,,,,,,,,,,,,,,,,,,,,,,,,,,,,,,,,,,,,,,,,
,,5f29aa2ef40fa7112bcb2b80,2022-09-08_10h17.14.639,CGTgamblingSpanTasks,2022.2.1,Win32,59.96641881,,,,,,,,2.641,,,,,,,,,,,,,,2,n,1.359,29.30724159,1,4.141,1.5,,,,,,29.30724159,0,3.247012935,,,,,,,,,,,,,0,8,8,71,1,0.470571125,1,,,,,,,,,,,,,,,,,,,,,,,,,,,,,,,,,,,,,,,,,,,,,,,,,,,,,,,,,,,,,,,,,,,,,,,,,,,,,,,,
,,5f29aa2ef40fa7112bcb2b80,2022-09-08_10h17.14.639,CGTgamblingSpanTasks,2022.2.1,Win32,59.96641881,,,,,,,,2.8585,,,,,,,,,,,,,,2,n,1.1415,18.51345298,1,4.3585,1.5,,,,,,18.51345298,0,1.932334278,,,,,,,,,,,,,0,9,9,31,1,0.48658696,1,,,,,,,,,,,,,,,,,,,,,,,,,,,,,,,,,,,,,,,,,,,,,,,,,,,,,,,,,,,,,,,,,,,,,,,,,,,,,,,,
,,5f29aa2ef40fa7112bcb2b80,2022-09-08_10h17.14.639,CGTgamblingSpanTasks,2022.2.1,Win32,59.96641881,,,,,,,,3.1081,,,,,,,,,,,,,,1,v,0.8919,0,1,4.1081,1,,,,,,23.24777057,0,2.003482335,,,,,,,,,,,,,0,10,10,59,1,0.536135174,1,,,,,,,,,,,,,,,,,,,,,,,,,,,,,,,,,,,,,,,,,,,,,,,,,,,,,,,,,,,,,,,,,,,,,,,,,,,,,,,,
,,5f29aa2ef40fa7112bcb2b80,2022-09-08_10h17.14.639,CGTgamblingSpanTasks,2022.2.1,Win32,59.96641881,,,,,,,,2.5977,,,,,,,,,,,,,,1,n,1.4023,8.653432553,0,4.0977,1.5,,,,,,15.13999312,0,8.653432553,,,,,,,,,,,,,0,11,11,54,1,0.081767484,0,,,,,,,,,,,,,,,,,,,,,,,,,,,,,,,,,,,,,,,,,,,,,,,,,,,,,,,,,,,,,,,,,,,,,,,,,,,,,,,,
,,5f29aa2ef40fa7112bcb2b80,2022-09-08_10h17.14.639,CGTgamblingSpanTasks,2022.2.1,Win32,59.96641881,,,,,,,,2.5991,,,,,,,,,,,,,,1,v,1.4009,8.670591867,1,4.0991,1.5,,,,,,8.670591867,0,1.025847652,,,,,,,,,,,,,0,12,12,18,1,0.452680459,1,,,,,,,,,,,,,,,,,,,,,,,,,,,,,,,,,,,,,,,,,,,,,,,,,,,,,,,,,,,,,,,,,,,,,,,,,,,,,,,,
,,5f29aa2ef40fa7112bcb2b80,2022-09-08_10h17.14.639,CGTgamblingSpanTasks,2022.2.1,Win32,59.96641881,,,,,,,,2.95,,,,,,,,,,,,,,2,n,1.05,18.50662664,1,4.45,1.5,,,,,,18.50662664,0,0.052546026,,,,,,,,,,,,,0,13,13,112,1,0.908444837,0,,,,,,,,,,,,,,,,,,,,,,,,,,,,,,,,,,,,,,,,,,,,,,,,,,,,,,,,,,,,,,,,,,,,,,,,,,,,,,,,
,,5f29aa2ef40fa7112bcb2b80,2022-09-08_10h17.14.639,CGTgamblingSpanTasks,2022.2.1,Win32,59.96641881,,,,,,,,2.9255,,,,,,,,,,,,,,1,v,1.0745,0,1,4.4255,1.5,,,,,,29.75778644,0,2.810531415,,,,,,,,,,,,,0,14,14,113,1,0.512824233,1,,,,,,,,,,,,,,,,,,,,,,,,,,,,,,,,,,,,,,,,,,,,,,,,,,,,,,,,,,,,,,,,,,,,,,,,,,,,,,,,
,,5f29aa2ef40fa7112bcb2b80,2022-09-08_10h17.14.639,CGTgamblingSpanTasks,2022.2.1,Win32,59.96641881,,,,,,,,2.8739,,,,,,,,,,,,,,1,n,1.1261,4.904872644,0,3.8739,1,,,,,,4.698775357,0,4.904872644,,,,,,,,,,,,,0,15,15,75,1,0.028064484,0,,,,,,,,,,,,,,,,,,,,,,,,,,,,,,,,,,,,,,,,,,,,,,,,,,,,,,,,,,,,,,,,,,,,,,,,,,,,,,,,
,,5f29aa2ef40fa7112bcb2b80,2022-09-08_10h17.14.639,CGTgamblingSpanTasks,2022.2.1,Win32,59.96641881,,,,,,,,3.0423,,,,,,,,,,,,,,2,n,0.9577,27.12325385,1,4.5423,1.5,,,,,,27.12325385,0,0.080932047,,,,,,,,,,,,,0,16,16,14,1,0.906929184,0,,,,,,,,,,,,,,,,,,,,,,,,,,,,,,,,,,,,,,,,,,,,,,,,,,,,,,,,,,,,,,,,,,,,,,,,,,,,,,,,
,,5f29aa2ef40fa7112bcb2b80,2022-09-08_10h17.14.639,CGTgamblingSpanTasks,2022.2.1,Win32,59.96641881,,,,,,,,2.6844,,,,,,,,,,,,,,2,n,1.3156,27.7711693,1,4.1844,1.5,,,,,,27.7711693,0,2.320849632,,,,,,,,,,,,,0,17,17,94,1,0.543786368,1,,,,,,,,,,,,,,,,,,,,,,,,,,,,,,,,,,,,,,,,,,,,,,,,,,,,,,,,,,,,,,,,,,,,,,,,,,,,,,,,
,,5f29aa2ef40fa7112bcb2b80,2022-09-08_10h17.14.639,CGTgamblingSpanTasks,2022.2.1,Win32,59.96641881,,,,,,,,2.7867,,,,,,,,,,,,,,1,v,1.2133,0,1,3.7867,1,,,,,,20.5726842,0,0.073558523,,,,,,,,,,,,,0,18,18,26,1,0.901008565,0,,,,,,,,,,,,,,,,,,,,,,,,,,,,,,,,,,,,,,,,,,,,,,,,,,,,,,,,,,,,,,,,,,,,,,,,,,,,,,,,
,,5f29aa2ef40fa7112bcb2b80,2022-09-08_10h17.14.639,CGTgamblingSpanTasks,2022.2.1,Win32,59.96641881,,,,,,,,2.0817,,,,,,,,,,,,,,2,n,1.9183,27.39221343,1,3.5817,1.5,,,,,,27.39221343,0,2.743407746,,,,,,,,,,,,,0,19,19,47,1,0.49752044,1,,,,,,,,,,,,,,,,,,,,,,,,,,,,,,,,,,,,,,,,,,,,,,,,,,,,,,,,,,,,,,,,,,,,,,,,,,,,,,,,
,,5f29aa2ef40fa7112bcb2b80,2022-09-08_10h17.14.639,CGTgamblingSpanTasks,2022.2.1,Win32,59.96641881,,,,,,,,2.8903,,,,,,,,,,,,,,2,n,1.1097,0,1,3.8903,1,,,,,,27.37527992,0,2.860319095,,,,,,,,,,,,,0,20,20,39,1,0.486304156,1,,,,,,,,,,,,,,,,,,,,,,,,,,,,,,,,,,,,,,,,,,,,,,,,,,,,,,,,,,,,,,,,,,,,,,,,,,,,,,,,
,,5f29aa2ef40fa7112bcb2b80,2022-09-08_10h17.14.639,CGTgamblingSpanTasks,2022.2.1,Win32,59.96641881,,,,,,,,2.7545,,,,,,,,,,,,,,1,v,1.2455,28.94627214,1,4.2545,1.5,,,,,,28.94627214,0,2.701896413,,,,,,,,,,,,,0,21,21,111,1,0.515860759,1,,,,,,,,,,,,,,,,,,,,,,,,,,,,,,,,,,,,,,,,,,,,,,,,,,,,,,,,,,,,,,,,,,,,,,,,,,,,,,,,
,,5f29aa2ef40fa7112bcb2b80,2022-09-08_10h17.14.639,CGTgamblingSpanTasks,2022.2.1,Win32,59.96641881,,,,,,,,3.0556,,,,,,,,,,,,,,2,v,0.9444,2.502728921,0,4.0556,1,,,,,,21.7711579,0,2.502728921,,,,,,,,,,,,,0,22,22,101,1,0.460552621,1,,,,,,,,,,,,,,,,,,,,,,,,,,,,,,,,,,,,,,,,,,,,,,,,,,,,,,,,,,,,,,,,,,,,,,,,,,,,,,,,
,,5f29aa2ef40fa7112bcb2b80,2022-09-08_10h17.14.639,CGTgamblingSpanTasks,2022.2.1,Win32,59.96641881,,,,,,,,0,,,,,,,,,,,,,,2,,,,,1,1,,,,,,17.23907308,0,2.055848574,,,,,,,,,,,,,0,23,23,66,1,0.450504458,1,,,,,,,,,,,,,,,,,,,,,,,,,,,,,,,,,,,,,,,,,,,,,,,,,,,,,,,,,,,,,,,,,,,,,,,,,,,,,,,,
,,5f29aa2ef40fa7112bcb2b80,2022-09-08_10h17.14.639,CGTgamblingSpanTasks,2022.2.1,Win32,59.96641881,,,,,,,,0,,,,,,,,,,,,,,1,,,,,1,1,,,,,,28.68598705,0,0.050674956,,,,,,,,,,,,,0,24,24,62,1,0.920905497,0,,,,,,,,,,,,,,,,,,,,,,,,,,,,,,,,,,,,,,,,,,,,,,,,,,,,,,,,,,,,,,,,,,,,,,,,,,,,,,,,
,,5f29aa2ef40fa7112bcb2b80,2022-09-08_10h17.14.639,CGTgamblingSpanTasks,2022.2.1,Win32,59.96641881,,,,,,,,0,,,,,,,,,,,,,,2,,,,,1,1,,,,,,13.4287264,0,1.317368801,,,,,,,,,,,,,0,25,25,100,1,0.502953125,1,,,,,,,,,,,,,,,,,,,,,,,,,,,,,,,,,,,,,,,,,,,,,,,,,,,,,,,,,,,,,,,,,,,,,,,,,,,,,,,,
,,5f29aa2ef40fa7112bcb2b80,2022-09-08_10h17.14.639,CGTgamblingSpanTasks,2022.2.1,Win32,59.96641881,,,,,,,,0,,,,,,,,,,,,,,1,,,,,1.5,1.5,,,,,,10.05300841,0,8.512335864,,,,,,,,,,,,,0,26,26,74,1,0.040729225,0,,,,,,,,,,,,,,,,,,,,,,,,,,,,,,,,,,,,,,,,,,,,,,,,,,,,,,,,,,,,,,,,,,,,,,,,,,,,,,,,
,,5f29aa2ef40fa7112bcb2b80,2022-09-08_10h17.14.639,CGTgamblingSpanTasks,2022.2.1,Win32,59.96641881,,,,,,,,2.2321,,,,,,,,,,,,,,1,v,1.7679,25.0707644,1,3.2321,1,,,,,,25.0707644,0,0.067651625,,,,,,,,,,,,,0,27,27,70,1,0.909952349,0,,,,,,,,,,,,,,,,,,,,,,,,,,,,,,,,,,,,,,,,,,,,,,,,,,,,,,,,,,,,,,,,,,,,,,,,,,,,,,,,
,,5f29aa2ef40fa7112bcb2b80,2022-09-08_10h17.14.639,CGTgamblingSpanTasks,2022.2.1,Win32,59.96641881,,,,,,,,3.1406,,,,,,,,,,,,,,2,n,0.8594,14.3363647,1,4.6406,1.5,,,,,,14.3363647,0,1.396635362,,,,,,,,,,,,,0,28,28,78,1,0.504775474,1,,,,,,,,,,,,,,,,,,,,,,,,,,,,,,,,,,,,,,,,,,,,,,,,,,,,,,,,,,,,,,,,,,,,,,,,,,,,,,,,
,,5f29aa2ef40fa7112bcb2b80,2022-09-08_10h17.14.639,CGTgamblingSpanTasks,2022.2.1,Win32,59.96641881,,,,,,,,3.122,,,,,,,,,,,,,,2,n,0.878,24.8002852,1,4.622,1.5,,,,,,24.8002852,0,0.071848086,,,,,,,,,,,,,0,29,29,16,1,0.90783559,0,,,,,,,,,,,,,,,,,,,,,,,,,,,,,,,,,,,,,,,,,,,,,,,,,,,,,,,,,,,,,,,,,,,,,,,,,,,,,,,,
,,5f29aa2ef40fa7112bcb2b80,2022-09-08_10h17.14.639,CGTgamblingSpanTasks,2022.2.1,Win32,59.96641881,,,,,,,,2.4904,,,,,,,,,,,,,,2,v,1.5096,6.091504705,0,3.9904,1.5,,,,,,6.662965216,0,6.091504705,,,,,,,,,,,,,0,30,30,102,1,0.035087099,0,,,,,,,,,,,,,,,,,,,,,,,,,,,,,,,,,,,,,,,,,,,,,,,,,,,,,,,,,,,,,,,,,,,,,,,,,,,,,,,,
,,5f29aa2ef40fa7112bcb2b80,2022-09-08_10h17.14.639,CGTgamblingSpanTasks,2022.2.1,Win32,59.96641881,,,,,,,,2.2078,,,,,,,,,,,,,,1,v,1.7922,0,1,3.2078,1,,,,,,27.94544945,0,2.32030209,,,,,,,,,,,,,0,31,31,115,1,0.545390564,1,,,,,,,,,,,,,,,,,,,,,,,,,,,,,,,,,,,,,,,,,,,,,,,,,,,,,,,,,,,,,,,,,,,,,,,,,,,,,,,,
,,5f29aa2ef40fa7112bcb2b80,2022-09-08_10h17.14.639,CGTgamblingSpanTasks,2022.2.1,Win32,59.96641881,,,,,,,,2.9954,,,,,,,,,,,,,,2,n,1.0046,0,1,3.9954,1,,,,,,21.39646914,0,0.072474078,,,,,,,,,,,,,0,32,32,3,1,0.902848133,0,,,,,,,,,,,,,,,,,,,,,,,,,,,,,,,,,,,,,,,,,,,,,,,,,,,,,,,,,,,,,,,,,,,,,,,,,,,,,,,,
,,5f29aa2ef40fa7112bcb2b80,2022-09-08_10h17.14.639,CGTgamblingSpanTasks,2022.2.1,Win32,59.96641881,,,,,,,,1.8633,,,,,,,,,,,,,,2,v,2.1367,1.878232496,0,2.8633,1,,,,,,17.92584289,0,1.878232496,,,,,,,,,,,,,0,33,33,5,1,0.485559263,1,,,,,,,,,,,,,,,,,,,,,,,,,,,,,,,,,,,,,,,,,,,,,,,,,,,,,,,,,,,,,,,,,,,,,,,,,,,,,,,,
,,5f29aa2ef40fa7112bcb2b80,2022-09-08_10h17.14.639,CGTgamblingSpanTasks,2022.2.1,Win32,59.96641881,,,,,,,,3.0401,,,,,,,,,,,,,,1,v,0.9599,22.25959835,1,4.0401,1,,,,,,22.25959835,0,0.065383587,,,,,,,,,,,,,0,34,34,97,1,0.907413875,0,,,,,,,,,,,,,,,,,,,,,,,,,,,,,,,,,,,,,,,,,,,,,,,,,,,,,,,,,,,,,,,,,,,,,,,,,,,,,,,,
,,5f29aa2ef40fa7112bcb2b80,2022-09-08_10h17.14.639,CGTgamblingSpanTasks,2022.2.1,Win32,59.96641881,,,,,,,,2.947,,,,,,,,,,,,,,2,n,1.053,0,1,3.947,1,,,,,,27.93093084,0,0.050207531,,,,,,,,,,,,,0,35,35,83,1,0.920505936,0,,,,,,,,,,,,,,,,,,,,,,,,,,,,,,,,,,,,,,,,,,,,,,,,,,,,,,,,,,,,,,,,,,,,,,,,,,,,,,,,
,,5f29aa2ef40fa7112bcb2b80,2022-09-08_10h17.14.639,CGTgamblingSpanTasks,2022.2.1,Win32,59.96641881,,,,,,,,2.968,,,,,,,,,,,,,,1,v,1.032,0,1,3.968,1,,,,,,26.11188619,0,0.081942421,,,,,,,,,,,,,0,36,36,105,1,0.905343856,0,,,,,,,,,,,,,,,,,,,,,,,,,,,,,,,,,,,,,,,,,,,,,,,,,,,,,,,,,,,,,,,,,,,,,,,,,,,,,,,,
,,5f29aa2ef40fa7112bcb2b80,2022-09-08_10h17.14.639,CGTgamblingSpanTasks,2022.2.1,Win32,59.96641881,,,,,,,,0.3403,,,,,,,,,,,,,,1,n,3.6597,2.469465385,0,1.3403,1,,,,,,21.16780451,0,2.469465385,,,,,,,,,,,,,0,37,37,32,1,0.456531699,1,,,,,,,,,,,,,,,,,,,,,,,,,,,,,,,,,,,,,,,,,,,,,,,,,,,,,,,,,,,,,,,,,,,,,,,,,,,,,,,,
,,5f29aa2ef40fa7112bcb2b80,2022-09-08_10h17.14.639,CGTgamblingSpanTasks,2022.2.1,Win32,59.96641881,,,,,,,,2.0418,,,,,,,,,,,,,,2,v,1.9582,7.50753835,0,3.0418,1,,,,,,2.231316635,0,7.50753835,,,,,,,,,,,,,0,38,38,29,1,0.010273427,0,,,,,,,,,,,,,,,,,,,,,,,,,,,,,,,,,,,,,,,,,,,,,,,,,,,,,,,,,,,,,,,,,,,,,,,,,,,,,,,,
,,5f29aa2ef40fa7112bcb2b80,2022-09-08_10h17.14.639,CGTgamblingSpanTasks,2022.2.1,Win32,59.96641881,,,,,,,,2.4001,,,,,,,,,,,,,,1,v,1.5999,25.26994993,1,3.9001,1.5,,,,,,25.26994993,0,2.78925142,,,,,,,,,,,,,0,39,39,108,1,0.471582922,1,,,,,,,,,,,,,,,,,,,,,,,,,,,,,,,,,,,,,,,,,,,,,,,,,,,,,,,,,,,,,,,,,,,,,,,,,,,,,,,,
,,5f29aa2ef40fa7112bcb2b80,2022-09-08_10h17.14.639,CGTgamblingSpanTasks,2022.2.1,Win32,59.96641881,,,,,,,,3.1582,,,,,,,,,,,,,,1,n,0.8418,2.397643354,0,4.6582,1.5,,,,,,22.62475578,0,2.397643354,,,,,,,,,,,,,0,40,40,93,1,0.482527609,1,,,,,,,,,,,,,,,,,,,,,,,,,,,,,,,,,,,,,,,,,,,,,,,,,,,,,,,,,,,,,,,,,,,,,,,,,,,,,,,,
,,5f29aa2ef40fa7112bcb2b80,2022-09-08_10h17.14.639,CGTgamblingSpanTasks,2022.2.1,Win32,59.96641881,,,,,,,,2.8214,,,,,,,,,,,,,,1,n,1.1786,7.850775577,0,3.8214,1,,,,,,4.622707531,0,7.850775577,,,,,,,,,,,,,0,41,41,6,1,0.017737407,0,,,,,,,,,,,,,,,,,,,,,,,,,,,,,,,,,,,,,,,,,,,,,,,,,,,,,,,,,,,,,,,,,,,,,,,,,,,,,,,,
,,5f29aa2ef40fa7112bcb2b80,2022-09-08_10h17.14.639,CGTgamblingSpanTasks,2022.2.1,Win32,59.96641881,,,,,,,,2.7718,,,,,,,,,,,,,,1,v,1.2282,0,1,3.7718,1,,,,,,21.00799273,0,0.067969053,,,,,,,,,,,,,0,42,42,92,1,0.904360262,0,,,,,,,,,,,,,,,,,,,,,,,,,,,,,,,,,,,,,,,,,,,,,,,,,,,,,,,,,,,,,,,,,,,,,,,,,,,,,,,,
,,5f29aa2ef40fa7112bcb2b80,2022-09-08_10h17.14.639,CGTgamblingSpanTasks,2022.2.1,Win32,59.96641881,,,,,,,,2.7391,,,,,,,,,,,,,,2,v,1.2609,5.683635938,0,4.2391,1.5,,,,,,4.941039335,0,5.683635938,,,,,,,,,,,,,0,43,43,9,1,0.025481984,0,,,,,,,,,,,,,,,,,,,,,,,,,,,,,,,,,,,,,,,,,,,,,,,,,,,,,,,,,,,,,,,,,,,,,,,,,,,,,,,,
,,5f29aa2ef40fa7112bcb2b80,2022-09-08_10h17.14.639,CGTgamblingSpanTasks,2022.2.1,Win32,59.96641881,,,,,,,,3.1094,,,,,,,,,,,,,,2,n,0.8906,0,1,4.6094,1.5,,,,,,8.217594828,0,0.951019374,,,,,,,,,,,,,0,44,44,87,1,0.458722936,1,,,,,,,,,,,,,,,,,,,,,,,,,,,,,,,,,,,,,,,,,,,,,,,,,,,,,,,,,,,,,,,,,,,,,,,,,,,,,,,,
,,5f29aa2ef40fa7112bcb2b80,2022-09-08_10h17.14.639,CGTgamblingSpanTasks,2022.2.1,Win32,59.96641881,,,,,,,,2.9999,,,,,,,,,,,,,,1,v,1.0001,18.16238569,1,4.4999,1.5,,,,,,18.16238569,0,1.540604093,,,,,,,,,,,,,0,45,45,34,1,0.540092491,1,,,,,,,,,,,,,,,,,,,,,,,,,,,,,,,,,,,,,,,,,,,,,,,,,,,,,,,,,,,,,,,,,,,,,,,,,,,,,,,,
,,5f29aa2ef40fa7112bcb2b80,2022-09-08_10h17.14.639,CGTgamblingSpanTasks,2022.2.1,Win32,59.96641881,,,,,,,,2.6006,,,,,,,,,,,,,,1,v,1.3994,15.73000491,1,4.1006,1.5,,,,,,15.73000491,0,8.830252162,,,,,,,,,,,,,0,46,46,95,1,0.084193143,0,,,,,,,,,,,,,,,,,,,,,,,,,,,,,,,,,,,,,,,,,,,,,,,,,,,,,,,,,,,,,,,,,,,,,,,,,,,,,,,,
,,5f29aa2ef40fa7112bcb2b80,2022-09-08_10h17.14.639,CGTgamblingSpanTasks,2022.2.1,Win32,59.96641881,,,,,,,,3.0061,,,,,,,,,,,,,,2,n,0.9939,9.012590634,1,4.5061,1.5,,,,,,9.012590634,0,1.002188111,,,,,,,,,,,,,0,47,47,12,1,0.46958041,1,,,,,,,,,,,,,,,,,,,,,,,,,,,,,,,,,,,,,,,,,,,,,,,,,,,,,,,,,,,,,,,,,,,,,,,,,,,,,,,,
,,5f29aa2ef40fa7112bcb2b80,2022-09-08_10h17.14.639,CGTgamblingSpanTasks,2022.2.1,Win32,59.96641881,,,,,,,,2.6416,,,,,,,,,,,,,,2,v,1.3584,10.68505773,0,3.6416,1,,,,,,17.64114152,0,10.68505773,,,,,,,,,,,,,0,48,48,98,1,0.074299362,0,,,,,,,,,,,,,,,,,,,,,,,,,,,,,,,,,,,,,,,,,,,,,,,,,,,,,,,,,,,,,,,,,,,,,,,,,,,,,,,,
,,5f29aa2ef40fa7112bcb2b80,2022-09-08_10h17.14.639,CGTgamblingSpanTasks,2022.2.1,Win32,59.96641881,,,,,,,,2.535,,,,,,,,,,,,,,1,n,1.465,0.747140182,0,3.535,1,,,,,,7.534278541,0,0.747140182,,,,,,,,,,,,,0,49,49,37,1,0.50012466,1,,,,,,,,,,,,,,,,,,,,,,,,,,,,,,,,,,,,,,,,,,,,,,,,,,,,,,,,,,,,,,,,,,,,,,,,,,,,,,,,
,,5f29aa2ef40fa7112bcb2b80,2022-09-08_10h17.14.639,CGTgamblingSpanTasks,2022.2.1,Win32,59.96641881,,,,,,,,2.0512,,,,,,,,,,,,,,1,v,1.9488,0,1,3.5512,1.5,,,,,,18.20422443,0,1.635040165,,,,,,,,,,,,,0,50,50,82,1,0.525708991,1,,,,,,,,,,,,,,,,,,,,,,,,,,,,,,,,,,,,,,,,,,,,,,,,,,,,,,,,,,,,,,,,,,,,,,,,,,,,,,,,
,,5f29aa2ef40fa7112bcb2b80,2022-09-08_10h17.14.639,CGTgamblingSpanTasks,2022.2.1,Win32,59.96641881,,,,,,,,2.3375,,,,,,,,,,,,,,1,n,1.6625,0.097022401,0,3.3375,1,,,,,,27.53810185,0,0.097022401,,,,,,,,,,,,,0,51,51,50,1,0.901515865,0,,,,,,,,,,,,,,,,,,,,,,,,,,,,,,,,,,,,,,,,,,,,,,,,,,,,,,,,,,,,,,,,,,,,,,,,,,,,,,,,
,,5f29aa2ef40fa7112bcb2b80,2022-09-08_10h17.14.639,CGTgamblingSpanTasks,2022.2.1,Win32,59.96641881,,,,,,,,2.9554,,,,,,,,,,,,,,1,n,1.0446,11.35147481,0,4.4554,1.5,,,,,,17.67865084,0,11.35147481,,,,,,,,,,,,,0,52,52,91,1,0.067304606,0,,,,,,,,,,,,,,,,,,,,,,,,,,,,,,,,,,,,,,,,,,,,,,,,,,,,,,,,,,,,,,,,,,,,,,,,,,,,,,,,
,,5f29aa2ef40fa7112bcb2b80,2022-09-08_10h17.14.639,CGTgamblingSpanTasks,2022.2.1,Win32,59.96641881,,,,,,,,2.5298,,,,,,,,,,,,,,1,v,1.4702,13.84410806,1,3.5298,1,,,,,,13.84410806,0,1.535873964,,,,,,,,,,,,,0,53,53,88,1,0.470209002,1,,,,,,,,,,,,,,,,,,,,,,,,,,,,,,,,,,,,,,,,,,,,,,,,,,,,,,,,,,,,,,,,,,,,,,,,,,,,,,,,
,,5f29aa2ef40fa7112bcb2b80,2022-09-08_10h17.14.639,CGTgamblingSpanTasks,2022.2.1,Win32,59.96641881,,,,,,,,2.7174,,,,,,,,,,,,,,2,n,1.2826,0,1,3.7174,1,,,,,,24.479109,0,0.089582697,,,,,,,,,,,,,0,54,54,89,1,0.900200232,0,,,,,,,,,,,,,,,,,,,,,,,,,,,,,,,,,,,,,,,,,,,,,,,,,,,,,,,,,,,,,,,,,,,,,,,,,,,,,,,,
,,5f29aa2ef40fa7112bcb2b80,2022-09-08_10h17.14.639,CGTgamblingSpanTasks,2022.2.1,Win32,59.96641881,,,,,,,,2.4209,,,,,,,,,,,,,,1,n,1.5791,6.781500919,0,3.4209,1,,,,,,8.363821911,0,6.781500919,,,,,,,,,,,,,0,55,55,61,1,0.044227959,0,,,,,,,,,,,,,,,,,,,,,,,,,,,,,,,,,,,,,,,,,,,,,,,,,,,,,,,,,,,,,,,,,,,,,,,,,,,,,,,,
,,5f29aa2ef40fa7112bcb2b80,2022-09-08_10h17.14.639,CGTgamblingSpanTasks,2022.2.1,Win32,59.96641881,,,,,,,,2.8079,,,,,,,,,,,,,,1,n,1.1921,2.293289792,0,3.8079,1,,,,,,22.86604061,0,2.293289792,,,,,,,,,,,,,0,56,56,51,1,0.49715382,1,,,,,,,,,,,,,,,,,,,,,,,,,,,,,,,,,,,,,,,,,,,,,,,,,,,,,,,,,,,,,,,,,,,,,,,,,,,,,,,,
,,5f29aa2ef40fa7112bcb2b80,2022-09-08_10h17.14.639,CGTgamblingSpanTasks,2022.2.1,Win32,59.96641881,,,,,,,,2.3001,,,,,,,,,,,,,,2,v,1.6999,5.526483034,0,3.8001,1.5,,,,,,9.725876653,0,5.526483034,,,,,,,,,,,,,0,57,57,44,1,0.082550696,0,,,,,,,,,,,,,,,,,,,,,,,,,,,,,,,,,,,,,,,,,,,,,,,,,,,,,,,,,,,,,,,,,,,,,,,,,,,,,,,,
,,5f29aa2ef40fa7112bcb2b80,2022-09-08_10h17.14.639,CGTgamblingSpanTasks,2022.2.1,Win32,59.96641881,,,,,,,,3.0069,,,,,,,,,,,,,,1,n,0.9931,7.646213173,0,4.0069,1,,,,,,2.042350179,0,7.646213173,,,,,,,,,,,,,0,58,58,53,1,0.009522273,0,,,,,,,,,,,,,,,,,,,,,,,,,,,,,,,,,,,,,,,,,,,,,,,,,,,,,,,,,,,,,,,,,,,,,,,,,,,,,,,,
,,5f29aa2ef40fa7112bcb2b80,2022-09-08_10h17.14.639,CGTgamblingSpanTasks,2022.2.1,Win32,59.96641881,,,,,,,,2.8529,,,,,,,,,,,,,,2,v,1.1471,2.532806323,0,4.3529,1.5,,,,,,28.13634754,0,2.532806323,,,,,,,,,,,,,0,59,59,28,1,0.525136524,1,,,,,,,,,,,,,,,,,,,,,,,,,,,,,,,,,,,,,,,,,,,,,,,,,,,,,,,,,,,,,,,,,,,,,,,,,,,,,,,,
,,5f29aa2ef40fa7112bcb2b80,2022-09-08_10h17.14.639,CGTgamblingSpanTasks,2022.2.1,Win32,59.96641881,,,,,,,,2.7228,,,,,,,,,,,,,,2,v,1.2772,1.591282699,0,3.7228,1,,,,,,13.96521039,0,1.591282699,,,,,,,,,,,,,0,60,60,49,1,0.462956344,1,,,,,,,,,,,,,,,,,,,,,,,,,,,,,,,,,,,,,,,,,,,,,,,,,,,,,,,,,,,,,,,,,,,,,,,,,,,,,,,,
,,5f29aa2ef40fa7112bcb2b80,2022-09-08_10h17.14.639,CGTgamblingSpanTasks,2022.2.1,Win32,59.96641881,,,,,,,,2.6823,,,,,,,,,,,,,,1,n,1.3177,2.058701084,0,3.6823,1,,,,,,17.85020524,0,2.058701084,,,,,,,,,,,,,0,61,61,25,1,0.459662216,1,,,,,,,,,,,,,,,,,,,,,,,,,,,,,,,,,,,,,,,,,,,,,,,,,,,,,,,,,,,,,,,,,,,,,,,,,,,,,,,,
,,5f29aa2ef40fa7112bcb2b80,2022-09-08_10h17.14.639,CGTgamblingSpanTasks,2022.2.1,Win32,59.96641881,,,,,,,,2.9578,,,,,,,,,,,,,,2,v,1.0422,6.833409611,0,4.4578,1.5,,,,,,6.325091157,0,6.833409611,,,,,,,,,,,,,0,62,62,58,1,0.027113638,0,,,,,,,,,,,,,,,,,,,,,,,,,,,,,,,,,,,,,,,,,,,,,,,,,,,,,,,,,,,,,,,,,,,,,,,,,,,,,,,,
,,5f29aa2ef40fa7112bcb2b80,2022-09-08_10h17.14.639,CGTgamblingSpanTasks,2022.2.1,Win32,59.96641881,,,,,,,,3.0584,,,,,,,,,,,,,,1,n,0.9416,1.65459324,0,4.5584,1.5,,,,,,15.43649625,0,1.65459324,,,,,,,,,,,,,0,63,63,33,1,0.479480163,1,,,,,,,,,,,,,,,,,,,,,,,,,,,,,,,,,,,,,,,,,,,,,,,,,,,,,,,,,,,,,,,,,,,,,,,,,,,,,,,,
,,5f29aa2ef40fa7112bcb2b80,2022-09-08_10h17.14.639,CGTgamblingSpanTasks,2022.2.1,Win32,59.96641881,,,,,,,,2.6232,,,,,,,,,,,,,,2,v,1.3768,9.936178001,0,4.1232,1.5,,,,,,19.58698544,0,9.936178001,,,,,,,,,,,,,0,64,64,77,1,0.098812204,0,,,,,,,,,,,,,,,,,,,,,,,,,,,,,,,,,,,,,,,,,,,,,,,,,,,,,,,,,,,,,,,,,,,,,,,,,,,,,,,,
,,5f29aa2ef40fa7112bcb2b80,2022-09-08_10h17.14.639,CGTgamblingSpanTasks,2022.2.1,Win32,59.96641881,,,,,,,,2.9817,,,,,,,,,,,,,,1,n,1.0183,10.41201161,0,4.4817,1.5,,,,,,6.307062696,0,10.41201161,,,,,,,,,,,,,0,65,65,23,1,0.018187109,0,,,,,,,,,,,,,,,,,,,,,,,,,,,,,,,,,,,,,,,,,,,,,,,,,,,,,,,,,,,,,,,,,,,,,,,,,,,,,,,,
,,5f29aa2ef40fa7112bcb2b80,2022-09-08_10h17.14.639,CGTgamblingSpanTasks,2022.2.1,Win32,59.96641881,,,,,,,,1.2926,,,,,,,,,,,,,,2,n,2.7074,0,1,2.2926,1,,,,,,26.16821818,0,0.093528069,,,,,,,,,,,,,0,66,66,42,1,0.901022427,0,,,,,,,,,,,,,,,,,,,,,,,,,,,,,,,,,,,,,,,,,,,,,,,,,,,,,,,,,,,,,,,,,,,,,,,,,,,,,,,,
,,5f29aa2ef40fa7112bcb2b80,2022-09-08_10h17.14.639,CGTgamblingSpanTasks,2022.2.1,Win32,59.96641881,,,,,,,,2.0648,,,,,,,,,,,,,,1,n,1.9352,2.771762788,0,3.5648,1.5,,,,,,27.88092897,0,2.771762788,,,,,,,,,,,,,0,67,67,117,1,0.499466648,1,,,,,,,,,,,,,,,,,,,,,,,,,,,,,,,,,,,,,,,,,,,,,,,,,,,,,,,,,,,,,,,,,,,,,,,,,,,,,,,,
,,5f29aa2ef40fa7112bcb2b80,2022-09-08_10h17.14.639,CGTgamblingSpanTasks,2022.2.1,Win32,59.96641881,,,,,,,,2.7832,,,,,,,,,,,,,,1,n,1.2168,3.117906378,0,4.2832,1.5,,,,,,28.14876717,0,3.117906378,,,,,,,,,,,,,0,68,68,76,1,0.470636736,1,,,,,,,,,,,,,,,,,,,,,,,,,,,,,,,,,,,,,,,,,,,,,,,,,,,,,,,,,,,,,,,,,,,,,,,,,,,,,,,,
,,5f29aa2ef40fa7112bcb2b80,2022-09-08_10h17.14.639,CGTgamblingSpanTasks,2022.2.1,Win32,59.96641881,,,,,,,,3.0742,,,,,,,,,,,,,,2,v,0.9258,4.251676631,0,4.0742,1,,,,,,3.395192929,0,4.251676631,,,,,,,,,,,,,0,69,69,7,1,0.023467153,0,,,,,,,,,,,,,,,,,,,,,,,,,,,,,,,,,,,,,,,,,,,,,,,,,,,,,,,,,,,,,,,,,,,,,,,,,,,,,,,,
,,5f29aa2ef40fa7112bcb2b80,2022-09-08_10h17.14.639,CGTgamblingSpanTasks,2022.2.1,Win32,59.96641881,,,,,,,,2.9999,,,,,,,,,,,,,,2,v,1.0001,2.229247341,0,4.4999,1.5,,,,,,21.48443242,0,2.229247341,,,,,,,,,,,,,0,70,70,63,1,0.488155912,1,,,,,,,,,,,,,,,,,,,,,,,,,,,,,,,,,,,,,,,,,,,,,,,,,,,,,,,,,,,,,,,,,,,,,,,,,,,,,,,,
,,5f29aa2ef40fa7112bcb2b80,2022-09-08_10h17.14.639,CGTgamblingSpanTasks,2022.2.1,Win32,59.96641881,,,,,,,,0,,,,,,,,,,,,,,1,,,,,1,1,,,,,,8.17598802,0,11.19311486,,,,,,,,,,,,,0,71,71,110,1,0.021568003,0,,,,,,,,,,,,,,,,,,,,,,,,,,,,,,,,,,,,,,,,,,,,,,,,,,,,,,,,,,,,,,,,,,,,,,,,,,,,,,,,
,,5f29aa2ef40fa7112bcb2b80,2022-09-08_10h17.14.639,CGTgamblingSpanTasks,2022.2.1,Win32,59.96641881,,,,,,,,2.6912,,,,,,,,,,,,,,1,n,1.3088,2.257683666,0,3.6912,1,,,,,,22.0050376,0,2.257683666,,,,,,,,,,,,,0,72,72,4,1,0.491147312,1,,,,,,,,,,,,,,,,,,,,,,,,,,,,,,,,,,,,,,,,,,,,,,,,,,,,,,,,,,,,,,,,,,,,,,,,,,,,,,,,
,,5f29aa2ef40fa7112bcb2b80,2022-09-08_10h17.14.639,CGTgamblingSpanTasks,2022.2.1,Win32,59.96641881,,,,,,,,3.1562,,,,,,,,,,,,,,2,v,0.8438,2.387726776,0,4.6562,1.5,,,,,,23.0613391,0,2.387726776,,,,,,,,,,,,,0,73,73,69,1,0.488727763,1,,,,,,,,,,,,,,,,,,,,,,,,,,,,,,,,,,,,,,,,,,,,,,,,,,,,,,,,,,,,,,,,,,,,,,,,,,,,,,,,
,,5f29aa2ef40fa7112bcb2b80,2022-09-08_10h17.14.639,CGTgamblingSpanTasks,2022.2.1,Win32,59.96641881,,,,,,,,2.439,,,,,,,,,,,,,,2,v,1.561,2.123581464,0,3.939,1.5,,,,,,19.5450126,0,2.123581464,,,,,,,,,,,,,0,74,74,65,1,0.475836144,1,,,,,,,,,,,,,,,,,,,,,,,,,,,,,,,,,,,,,,,,,,,,,,,,,,,,,,,,,,,,,,,,,,,,,,,,,,,,,,,,
,,5f29aa2ef40fa7112bcb2b80,2022-09-08_10h17.14.639,CGTgamblingSpanTasks,2022.2.1,Win32,59.96641881,,,,,,,,2.7489,,,,,,,,,,,,,,1,n,1.2511,2.208275162,0,3.7489,1,,,,,,21.03408097,0,2.208275162,,,,,,,,,,,,,0,75,75,0,1,0.485031246,1,,,,,,,,,,,,,,,,,,,,,,,,,,,,,,,,,,,,,,,,,,,,,,,,,,,,,,,,,,,,,,,,,,,,,,,,,,,,,,,,
,,5f29aa2ef40fa7112bcb2b80,2022-09-08_10h17.14.639,CGTgamblingSpanTasks,2022.2.1,Win32,59.96641881,,,,,,,,2.2736,,,,,,,,,,,,,,2,v,1.7264,8.42547829,0,3.2736,1,,,,,,15.87668502,0,8.42547829,,,,,,,,,,,,,0,76,76,56,1,0.092099462,0,,,,,,,,,,,,,,,,,,,,,,,,,,,,,,,,,,,,,,,,,,,,,,,,,,,,,,,,,,,,,,,,,,,,,,,,,,,,,,,,
,,5f29aa2ef40fa7112bcb2b80,2022-09-08_10h17.14.639,CGTgamblingSpanTasks,2022.2.1,Win32,59.96641881,,,,,,,,2.5909,,,,,,,,,,,,,,1,n,1.4091,1.448620949,0,3.5909,1,,,,,,17.4320197,0,1.448620949,,,,,,,,,,,,,0,77,77,30,1,0.545178213,1,,,,,,,,,,,,,,,,,,,,,,,,,,,,,,,,,,,,,,,,,,,,,,,,,,,,,,,,,,,,,,,,,,,,,,,,,,,,,,,,
,,5f29aa2ef40fa7112bcb2b80,2022-09-08_10h17.14.639,CGTgamblingSpanTasks,2022.2.1,Win32,59.96641881,,,,,,,,0,,,,,,,,,,,,,,2,,,,,1,1,,,,,,25.21882231,0,0.085746782,,,,,,,,,,,,,0,78,78,64,1,0.90272076,0,,,,,,,,,,,,,,,,,,,,,,,,,,,,,,,,,,,,,,,,,,,,,,,,,,,,,,,,,,,,,,,,,,,,,,,,,,,,,,,,
,,5f29aa2ef40fa7112bcb2b80,2022-09-08_10h17.14.639,CGTgamblingSpanTasks,2022.2.1,Win32,59.96641881,,,,,,,,0,,,,,,,,,,,,,,1,,,,,1,1,,,,,,20.31034258,0,1.870404296,,,,,,,,,,,,,0,79,79,85,1,0.519325853,1,,,,,,,,,,,,,,,,,,,,,,,,,,,,,,,,,,,,,,,,,,,,,,,,,,,,,,,,,,,,,,,,,,,,,,,,,,,,,,,,
,,5f29aa2ef40fa7112bcb2b80,2022-09-08_10h17.14.639,CGTgamblingSpanTasks,2022.2.1,Win32,59.96641881,,,,,,,,1.6167,,,,,,,,,,,,,,1,n,2.3833,2.067660742,0,2.6167,1,,,,,,21.2188881,0,2.067660742,,,,,,,,,,,,,0,80,80,107,1,0.50470775,1,,,,,,,,,,,,,,,,,,,,,,,,,,,,,,,,,,,,,,,,,,,,,,,,,,,,,,,,,,,,,,,,,,,,,,,,,,,,,,,,
,,5f29aa2ef40fa7112bcb2b80,2022-09-08_10h17.14.639,CGTgamblingSpanTasks,2022.2.1,Win32,59.96641881,,,,,,,,2.7165,,,,,,,,,,,,,,2,v,1.2835,2.485985001,0,4.2165,1.5,,,,,,23.4214135,0,2.485985001,,,,,,,,,,,,,0,81,81,81,1,0.482105905,1,,,,,,,,,,,,,,,,,,,,,,,,,,,,,,,,,,,,,,,,,,,,,,,,,,,,,,,,,,,,,,,,,,,,,,,,,,,,,,,,
,,5f29aa2ef40fa7112bcb2b80,2022-09-08_10h17.14.639,CGTgamblingSpanTasks,2022.2.1,Win32,59.96641881,,,,,,,,3.2144,,,,,,,,,,,,,,2,v,0.7856,4.462262453,0,4.2144,1,,,,,,0.192759042,0,4.462262453,,,,,,,,,,,,,0,82,82,52,1,0.003553223,0,,,,,,,,,,,,,,,,,,,,,,,,,,,,,,,,,,,,,,,,,,,,,,,,,,,,,,,,,,,,,,,,,,,,,,,,,,,,,,,,
,,5f29aa2ef40fa7112bcb2b80,2022-09-08_10h17.14.639,CGTgamblingSpanTasks,2022.2.1,Win32,59.96641881,,,,,,,,2.3007,,,,,,,,,,,,,,2,v,1.6993,2.893007023,0,3.3007,1,,,,,,28.9323758,0,2.893007023,,,,,,,,,,,,,0,83,83,11,1,0.497943321,1,,,,,,,,,,,,,,,,,,,,,,,,,,,,,,,,,,,,,,,,,,,,,,,,,,,,,,,,,,,,,,,,,,,,,,,,,,,,,,,,
,,5f29aa2ef40fa7112bcb2b80,2022-09-08_10h17.14.639,CGTgamblingSpanTasks,2022.2.1,Win32,59.96641881,,,,,,,,2.6913,,,,,,,,,,,,,,1,n,1.3087,11.42134125,0,3.6913,1,,,,,,12.9904115,0,11.42134125,,,,,,,,,,,,,0,84,84,118,1,0.037876033,0,,,,,,,,,,,,,,,,,,,,,,,,,,,,,,,,,,,,,,,,,,,,,,,,,,,,,,,,,,,,,,,,,,,,,,,,,,,,,,,,
,,5f29aa2ef40fa7112bcb2b80,2022-09-08_10h17.14.639,CGTgamblingSpanTasks,2022.2.1,Win32,59.96641881,,,,,,,,1.7741,,,,,,,,,,,,,,2,v,2.2259,2.201057101,0,2.7741,1,,,,,,26.36733703,0,2.201057101,,,,,,,,,,,,,0,85,85,90,1,0.544064207,1,,,,,,,,,,,,,,,,,,,,,,,,,,,,,,,,,,,,,,,,,,,,,,,,,,,,,,,,,,,,,,,,,,,,,,,,,,,,,,,,
,,5f29aa2ef40fa7112bcb2b80,2022-09-08_10h17.14.639,CGTgamblingSpanTasks,2022.2.1,Win32,59.96641881,,,,,,,,2.4258,,,,,,,,,,,,,,1,n,1.5742,0.088432325,0,3.9258,1.5,,,,,,27.60724521,0,0.088432325,,,,,,,,,,,,,0,86,86,17,1,0.904684186,0,,,,,,,,,,,,,,,,,,,,,,,,,,,,,,,,,,,,,,,,,,,,,,,,,,,,,,,,,,,,,,,,,,,,,,,,,,,,,,,,
,,5f29aa2ef40fa7112bcb2b80,2022-09-08_10h17.14.639,CGTgamblingSpanTasks,2022.2.1,Win32,59.96641881,,,,,,,,2.7543,,,,,,,,,,,,,,2,n,1.2457,27.76752685,1,4.2543,1.5,,,,,,27.76752685,0,0.083968035,,,,,,,,,,,,,0,87,87,13,1,0.906513967,0,,,,,,,,,,,,,,,,,,,,,,,,,,,,,,,,,,,,,,,,,,,,,,,,,,,,,,,,,,,,,,,,,,,,,,,,,,,,,,,,
,,5f29aa2ef40fa7112bcb2b80,2022-09-08_10h17.14.639,CGTgamblingSpanTasks,2022.2.1,Win32,59.96641881,,,,,,,,2.3932,,,,,,,,,,,,,,2,n,1.6068,19.3050342,1,3.8932,1.5,,,,,,19.3050342,0,2.030232342,,,,,,,,,,,,,0,88,88,73,1,0.484573227,1,,,,,,,,,,,,,,,,,,,,,,,,,,,,,,,,,,,,,,,,,,,,,,,,,,,,,,,,,,,,,,,,,,,,,,,,,,,,,,,,
,,5f29aa2ef40fa7112bcb2b80,2022-09-08_10h17.14.639,CGTgamblingSpanTasks,2022.2.1,Win32,59.96641881,,,,,,,,2.8309,,,,,,,,,,,,,,2,n,1.1691,0,1,3.8309,1,,,,,,17.5608285,0,1.825111303,,,,,,,,,,,,,0,89,89,104,1,0.487721116,1,,,,,,,,,,,,,,,,,,,,,,,,,,,,,,,,,,,,,,,,,,,,,,,,,,,,,,,,,,,,,,,,,,,,,,,,,,,,,,,,
,,5f29aa2ef40fa7112bcb2b80,2022-09-08_10h17.14.639,CGTgamblingSpanTasks,2022.2.1,Win32,59.96641881,,,,,,,,1.1676,,,,,,,,,,,,,,1,n,2.8324,0.585581699,0,2.1676,1,,,,,,7.066129113,0,0.585581699,,,,,,,,,,,,,0,90,90,19,1,0.545860632,1,,,,,,,,,,,,,,,,,,,,,,,,,,,,,,,,,,,,,,,,,,,,,,,,,,,,,,,,,,,,,,,,,,,,,,,,,,,,,,,,
,,5f29aa2ef40fa7112bcb2b80,2022-09-08_10h17.14.639,CGTgamblingSpanTasks,2022.2.1,Win32,59.96641881,,,,,,,,1.767,,,,,,,,,,,,,,1,v,2.233,25.54604005,1,3.267,1.5,,,,,,25.54604005,0,0.088845411,,,,,,,,,,,,,0,91,91,79,1,0.901957831,0,,,,,,,,,,,,,,,,,,,,,,,,,,,,,,,,,,,,,,,,,,,,,,,,,,,,,,,,,,,,,,,,,,,,,,,,,,,,,,,,
,,5f29aa2ef40fa7112bcb2b80,2022-09-08_10h17.14.639,CGTgamblingSpanTasks,2022.2.1,Win32,59.96641881,,,,,,,,2.1214,,,,,,,,,,,,,,1,n,1.8786,2.663622024,0,3.6214,1.5,,,,,,28.9381277,0,2.663622024,,,,,,,,,,,,,0,92,92,103,1,0.519453367,1,,,,,,,,,,,,,,,,,,,,,,,,,,,,,,,,,,,,,,,,,,,,,,,,,,,,,,,,,,,,,,,,,,,,,,,,,,,,,,,,
,,5f29aa2ef40fa7112bcb2b80,2022-09-08_10h17.14.639,CGTgamblingSpanTasks,2022.2.1,Win32,59.96641881,,,,,,,,3.3386,,,,,,,,,,,,,,1,n,0.6614,11.6744431,0,4.3386,1,,,,,,10.43004651,0,11.6744431,,,,,,,,,,,,,0,93,93,15,1,0.026176489,0,,,,,,,,,,,,,,,,,,,,,,,,,,,,,,,,,,,,,,,,,,,,,,,,,,,,,,,,,,,,,,,,,,,,,,,,,,,,,,,,
,,5f29aa2ef40fa7112bcb2b80,2022-09-08_10h17.14.639,CGTgamblingSpanTasks,2022.2.1,Win32,59.96641881,,,,,,,,2.1292,,,,,,,,,,,,,,1,n,1.8708,1.966229494,0,3.1292,1,,,,,,19.36415485,0,1.966229494,,,,,,,,,,,,,0,94,94,96,1,0.493893111,1,,,,,,,,,,,,,,,,,,,,,,,,,,,,,,,,,,,,,,,,,,,,,,,,,,,,,,,,,,,,,,,,,,,,,,,,,,,,,,,,
,,5f29aa2ef40fa7112bcb2b80,2022-09-08_10h17.14.639,CGTgamblingSpanTasks,2022.2.1,Win32,59.96641881,,,,,,,,1.9919,,,,,,,,,,,,,,2,n,2.0081,27.38828234,1,3.4919,1.5,,,,,,27.38828234,0,0.0639233,,,,,,,,,,,,,0,95,95,43,1,0.914010176,0,,,,,,,,,,,,,,,,,,,,,,,,,,,,,,,,,,,,,,,,,,,,,,,,,,,,,,,,,,,,,,,,,,,,,,,,,,,,,,,,
,,5f29aa2ef40fa7112bcb2b80,2022-09-08_10h17.14.639,CGTgamblingSpanTasks,2022.2.1,Win32,59.96641881,,,,,,,,2.8328,,,,,,,,,,,,,,1,n,1.1672,11.41737518,0,4.3328,1.5,,,,,,18.11029021,0,11.41737518,,,,,,,,,,,,,0,96,96,48,1,0.069445859,0,,,,,,,,,,,,,,,,,,,,,,,,,,,,,,,,,,,,,,,,,,,,,,,,,,,,,,,,,,,,,,,,,,,,,,,,,,,,,,,,
,,5f29aa2ef40fa7112bcb2b80,2022-09-08_10h17.14.639,CGTgamblingSpanTasks,2022.2.1,Win32,59.96641881,,,,,,,,2.9595,,,,,,,,,,,,,,1,v,1.0405,0,1,4.4595,1.5,,,,,,28.18900855,0,0.05384276,,,,,,,,,,,,,0,97,97,55,1,0.919081308,0,,,,,,,,,,,,,,,,,,,,,,,,,,,,,,,,,,,,,,,,,,,,,,,,,,,,,,,,,,,,,,,,,,,,,,,,,,,,,,,,
,,5f29aa2ef40fa7112bcb2b80,2022-09-08_10h17.14.639,CGTgamblingSpanTasks,2022.2.1,Win32,59.96641881,,,,,,,,2.7501,,,,,,,,,,,,,,1,n,1.2499,0.079652925,0,4.2501,1.5,,,,,,25.65316415,0,0.079652925,,,,,,,,,,,,,0,98,98,109,1,0.90568168,0,,,,,,,,,,,,,,,,,,,,,,,,,,,,,,,,,,,,,,,,,,,,,,,,,,,,,,,,,,,,,,,,,,,,,,,,,,,,,,,,
,,5f29aa2ef40fa7112bcb2b80,2022-09-08_10h17.14.639,CGTgamblingSpanTasks,2022.2.1,Win32,59.96641881,,,,,,,,1.9252,,,,,,,,,,,,,,1,v,2.0748,26.4985979,1,3.4252,1.5,,,,,,26.4985979,0,0.051324376,,,,,,,,,,,,,0,99,99,106,1,0.918747215,0,,,,,,,,,,,,,,,,,,,,,,,,,,,,,,,,,,,,,,,,,,,,,,,,,,,,,,,,,,,,,,,,,,,,,,,,,,,,,,,,
,,5f29aa2ef40fa7112bcb2b80,2022-09-08_10h17.14.639,CGTgamblingSpanTasks,2022.2.1,Win32,59.96641881,,,,,,,,3.1072,,,,,,,,,,,,,,1,n,0.8928,11.93550497,0,4.1072,1,,,,,,14.20587264,0,11.93550497,,,,,,,,,,,,,0,100,100,21,1,0.041340301,0,,,,,,,,,,,,,,,,,,,,,,,,,,,,,,,,,,,,,,,,,,,,,,,,,,,,,,,,,,,,,,,,,,,,,,,,,,,,,,,,
,,5f29aa2ef40fa7112bcb2b80,2022-09-08_10h17.14.639,CGTgamblingSpanTasks,2022.2.1,Win32,59.96641881,,,,,,,,2.4861,,,,,,,,,,,,,,1,n,1.5139,0.941456753,0,3.4861,1,,,,,,11.16819157,0,0.941456753,,,,,,,,,,,,,0,101,101,45,1,0.54163803,1,,,,,,,,,,,,,,,,,,,,,,,,,,,,,,,,,,,,,,,,,,,,,,,,,,,,,,,,,,,,,,,,,,,,,,,,,,,,,,,,
,,5f29aa2ef40fa7112bcb2b80,2022-09-08_10h17.14.639,CGTgamblingSpanTasks,2022.2.1,Win32,59.96641881,,,,,,,,2.9518,,,,,,,,,,,,,,2,n,1.0482,27.77179191,1,4.4518,1.5,,,,,,27.77179191,0,0.074524436,,,,,,,,,,,,,0,102,102,99,1,0.910114387,0,,,,,,,,,,,,,,,,,,,,,,,,,,,,,,,,,,,,,,,,,,,,,,,,,,,,,,,,,,,,,,,,,,,,,,,,,,,,,,,,
,,5f29aa2ef40fa7112bcb2b80,2022-09-08_10h17.14.639,CGTgamblingSpanTasks,2022.2.1,Win32,59.96641881,,,,,,,,2.7919,,,,,,,,,,,,,,2,n,1.2081,27.2532142,1,4.2919,1.5,,,,,,27.2532142,0,0.08089327,,,,,,,,,,,,,0,103,103,119,1,0.907091845,0,,,,,,,,,,,,,,,,,,,,,,,,,,,,,,,,,,,,,,,,,,,,,,,,,,,,,,,,,,,,,,,,,,,,,,,,,,,,,,,,
,,5f29aa2ef40fa7112bcb2b80,2022-09-08_10h17.14.639,CGTgamblingSpanTasks,2022.2.1,Win32,59.96641881,,,,,,,,3.0633,,,,,,,,,,,,,,1,v,0.9367,0,1,4.0633,1,,,,,,23.59556381,0,2.464662219,,,,,,,,,,,,,0,104,104,22,1,0.486383205,1,,,,,,,,,,,,,,,,,,,,,,,,,,,,,,,,,,,,,,,,,,,,,,,,,,,,,,,,,,,,,,,,,,,,,,,,,,,,,,,,
,,5f29aa2ef40fa7112bcb2b80,2022-09-08_10h17.14.639,CGTgamblingSpanTasks,2022.2.1,Win32,59.96641881,,,,,,,,2.5253,,,,,,,,,,,,,,2,v,1.4747,11.39288827,0,4.0253,1.5,,,,,,20.97851654,0,11.39288827,,,,,,,,,,,,,0,105,105,2,1,0.088791079,0,,,,,,,,,,,,,,,,,,,,,,,,,,,,,,,,,,,,,,,,,,,,,,,,,,,,,,,,,,,,,,,,,,,,,,,,,,,,,,,,
,,5f29aa2ef40fa7112bcb2b80,2022-09-08_10h17.14.639,CGTgamblingSpanTasks,2022.2.1,Win32,59.96641881,,,,,,,,3.1482,,,,,,,,,,,,,,2,n,0.8518,0,1,4.6482,1.5,,,,,,21.46599803,0,0.059789256,,,,,,,,,,,,,0,106,106,8,1,0.909019081,0,,,,,,,,,,,,,,,,,,,,,,,,,,,,,,,,,,,,,,,,,,,,,,,,,,,,,,,,,,,,,,,,,,,,,,,,,,,,,,,,
,,5f29aa2ef40fa7112bcb2b80,2022-09-08_10h17.14.639,CGTgamblingSpanTasks,2022.2.1,Win32,59.96641881,,,,,,,,3.0566,,,,,,,,,,,,,,2,v,0.9434,1.207538756,0,4.5566,1.5,,,,,,11.08143071,0,1.207538756,,,,,,,,,,,,,0,107,107,84,1,0.475047453,1,,,,,,,,,,,,,,,,,,,,,,,,,,,,,,,,,,,,,,,,,,,,,,,,,,,,,,,,,,,,,,,,,,,,,,,,,,,,,,,,
,,5f29aa2ef40fa7112bcb2b80,2022-09-08_10h17.14.639,CGTgamblingSpanTasks,2022.2.1,Win32,59.96641881,,,,,,,,2.6763,,,,,,,,,,,,,,1,v,1.3237,22.87092517,1,3.6763,1,,,,,,22.87092517,0,0.059276504,,,,,,,,,,,,,0,108,108,27,1,0.911114935,0,,,,,,,,,,,,,,,,,,,,,,,,,,,,,,,,,,,,,,,,,,,,,,,,,,,,,,,,,,,,,,,,,,,,,,,,,,,,,,,,
,,5f29aa2ef40fa7112bcb2b80,2022-09-08_10h17.14.639,CGTgamblingSpanTasks,2022.2.1,Win32,59.96641881,,,,,,,,3.2472,,,,,,,,,,,,,,1,n,0.7528,2.838865588,0,4.7472,1.5,,,,,,29.77342428,0,2.838865588,,,,,,,,,,,,,0,109,109,57,1,0.510363415,1,,,,,,,,,,,,,,,,,,,,,,,,,,,,,,,,,,,,,,,,,,,,,,,,,,,,,,,,,,,,,,,,,,,,,,,,,,,,,,,,
,,5f29aa2ef40fa7112bcb2b80,2022-09-08_10h17.14.639,CGTgamblingSpanTasks,2022.2.1,Win32,59.96641881,,,,,,,,2.9323,,,,,,,,,,,,,,1,n,1.0677,2.99133314,0,4.4323,1.5,,,,,,27.57491653,0,2.99133314,,,,,,,,,,,,,0,110,110,10,1,0.47625893,1,,,,,,,,,,,,,,,,,,,,,,,,,,,,,,,,,,,,,,,,,,,,,,,,,,,,,,,,,,,,,,,,,,,,,,,,,,,,,,,,
,,5f29aa2ef40fa7112bcb2b80,2022-09-08_10h17.14.639,CGTgamblingSpanTasks,2022.2.1,Win32,59.96641881,,,,,,,,2.6551,,,,,,,,,,,,,,1,v,1.3449,0,1,4.1551,1.5,,,,,,22.72923833,0,0.067170781,,,,,,,,,,,,,0,111,111,86,1,0.907226703,0,,,,,,,,,,,,,,,,,,,,,,,,,,,,,,,,,,,,,,,,,,,,,,,,,,,,,,,,,,,,,,,,,,,,,,,,,,,,,,,,
,,5f29aa2ef40fa7112bcb2b80,2022-09-08_10h17.14.639,CGTgamblingSpanTasks,2022.2.1,Win32,59.96641881,,,,,,,,3.3996,,,,,,,,,,,,,,1,n,0.6004,2.768313633,0,4.8996,1.5,,,,,,28.33977875,0,2.768313633,,,,,,,,,,,,,0,112,112,116,1,0.50406901,1,,,,,,,,,,,,,,,,,,,,,,,,,,,,,,,,,,,,,,,,,,,,,,,,,,,,,,,,,,,,,,,,,,,,,,,,,,,,,,,,
,,5f29aa2ef40fa7112bcb2b80,2022-09-08_10h17.14.639,CGTgamblingSpanTasks,2022.2.1,Win32,59.96641881,,,,,,,,2.5252,,,,,,,,,,,,,,2,v,1.4748,10.3417501,0,3.5252,1,,,,,,15.21435748,0,10.3417501,,,,,,,,,,,,,0,113,113,72,1,0.060969226,0,,,,,,,,,,,,,,,,,,,,,,,,,,,,,,,,,,,,,,,,,,,,,,,,,,,,,,,,,,,,,,,,,,,,,,,,,,,,,,,,
,,5f29aa2ef40fa7112bcb2b80,2022-09-08_10h17.14.639,CGTgamblingSpanTasks,2022.2.1,Win32,59.96641881,,,,,,,,2.4158,,,,,,,,,,,,,,2,v,1.5842,2.765426402,0,3.9158,1.5,,,,,,24.66627941,0,2.765426402,,,,,,,,,,,,,0,114,114,24,1,0.467360588,1,,,,,,,,,,,,,,,,,,,,,,,,,,,,,,,,,,,,,,,,,,,,,,,,,,,,,,,,,,,,,,,,,,,,,,,,,,,,,,,,
,,5f29aa2ef40fa7112bcb2b80,2022-09-08_10h17.14.639,CGTgamblingSpanTasks,2022.2.1,Win32,59.96641881,,,,,,,,0,,,,,,,,,,,,,,2,,,,,1.5,1.5,,,,,,29.76099779,0,0.095763086,,,,,,,,,,,,,0,115,115,35,1,0.904537896,0,,,,,,,,,,,,,,,,,,,,,,,,,,,,,,,,,,,,,,,,,,,,,,,,,,,,,,,,,,,,,,,,,,,,,,,,,,,,,,,,
,,5f29aa2ef40fa7112bcb2b80,2022-09-08_10h17.14.639,CGTgamblingSpanTasks,2022.2.1,Win32,59.96641881,,,,,,,,0.0497,,,,,,,,,,,,,,2,n,3.9503,0,1,1.0497,1,,,,,,25.76582409,0,2.393193076,,,,,,,,,,,,,0,116,116,46,1,0.517129855,1,,,,,,,,,,,,,,,,,,,,,,,,,,,,,,,,,,,,,,,,,,,,,,,,,,,,,,,,,,,,,,,,,,,,,,,,,,,,,,,,
,,5f29aa2ef40fa7112bcb2b80,2022-09-08_10h17.14.639,CGTgamblingSpanTasks,2022.2.1,Win32,59.96641881,,,,,,,,0.2546,,,,,,,,,,,,,,2,v,3.7454,8.579385201,0,1.7546,1.5,,,,,,14.11762686,0,8.579385201,,,,,,,,,,,,,0,117,117,60,1,0.073886959,0,,,,,,,,,,,,,,,,,,,,,,,,,,,,,,,,,,,,,,,,,,,,,,,,,,,,,,,,,,,,,,,,,,,,,,,,,,,,,,,,
,,5f29aa2ef40fa7112bcb2b80,2022-09-08_10h17.14.639,CGTgamblingSpanTasks,2022.2.1,Win32,59.96641881,,,,,,,,1.8353,,,,,,,,,,,,,,2,v,2.1647,3.877530383,0,3.3353,1.5,,,,,,3.471484939,0,3.877530383,,,,,,,,,,,,,0,118,118,40,1,0.02623078,0,,,,,,,,,,,,,,,,,,,,,,,,,,,,,,,,,,,,,,,,,,,,,,,,,,,,,,,,,,,,,,,,,,,,,,,,,,,,,,,,
,,5f29aa2ef40fa7112bcb2b80,2022-09-08_10h17.14.639,CGTgamblingSpanTasks,2022.2.1,Win32,59.96641881,,,,,,,,2.2685,,,,,,,,,,,,,,1,v,1.7315,0,1,3.7685,1.5,,,,,,27.4965044,0,2.461467004,,,,,,,,,,,,,0,119,119,36,1,0.526550878,1,,,,,,,,,,,,,,,,,,,,,,,,,,,,,,,,,,,,,,,,,,,,,,,,,,,,,,,,,,,,,,,,,,,,,,,,,,,,,,,,
,,5f29aa2ef40fa7112bcb2b80,2022-09-08_10h17.14.639,CGTgamblingSpanTasks,2022.2.1,Win32,59.96641881,,,,,,,,,,,,,,,,,,,,,,,,,,,,,,,,,,,,,,,,,,,,,,,,,,,,,,,,return,893.1362,,,,,,,,,,,,,,,,,,,,,,,,,,,,,,,,,,,,,,,,,,,,,,,,,,,,,,,,,,,,,,,,,,,,,,,,,,,,,,
,,5f29aa2ef40fa7112bcb2b80,2022-09-08_10h17.14.639,CGTgamblingSpanTasks,2022.2.1,Win32,59.96641881,,,,,,,,,,,,,,,,,,,,,,,,,,,,,,,,,,,,,,,,,,,,,,,,,,,,,,,,,,return,38.8061,,,,,,,,,,,,,,,,,,,,,,,,,,,,,,,,,,,,,,,,,,,,,,,,,,,,,,,,,,,,,,,,,,,,,,,,,,,,
,,5f29aa2ef40fa7112bcb2b80,2022-09-08_10h17.14.639,CGTgamblingSpanTasks,2022.2.1,Win32,59.96641881,,,,,,,,,,,,,,,,,,,,,,,,,,,,,,,,,,,,,,,,,,,,,,,,,,,,,,,,,,,,return,49.4892,,,,,,,,,,,,,,,,,,,,,,,,,,,,,,,,,,,,,,,,,,,,,,,,,,,,,,,,,,,,,,,,,,,,,,,,,,
,,5f29aa2ef40fa7112bcb2b80,2022-09-08_10h17.14.639,CGTgamblingSpanTasks,2022.2.1,Win32,59.96641881,,,,,,,,,,,,,,,,,,,,,,,,,,,,,,,,,,,,,,,,,,,,,,,,,,,,,,,,,,,,,,342,1,0.034259302,-0.410185213,1,0,0,cont_buttonPractice,0,0,0,0,1,3,342,24,2,42,,,,,,,,,,,,,,,,,,,,,,,,,,,,,,,,,,,,,,,,,,,,,,,,,,,,,,,,
,,5f29aa2ef40fa7112bcb2b80,2022-09-08_10h17.14.639,CGTgamblingSpanTasks,2022.2.1,Win32,59.96641881,,,,,,,,,,,,,,,,,,,,,,,,,,,,,,,,,,,,,,,,,,,,,,,,,,,,,,,,,,,,,,937,1,0.092592593,-0.412962949,1,0,0,cont_buttonPractice,0,1,1,1,1,3,937,73,2,37,,,,,,,,,,,,,,,,,,,,,,,,,,,,,,,,,,,,,,,,,,,,,,,,,,,,,,,,
,,5f29aa2ef40fa7112bcb2b80,2022-09-08_10h17.14.639,CGTgamblingSpanTasks,2022.2.1,Win32,59.96641881,,,,,,,,,,,,,,,,,,,,,,,,,,,,,,,,,,,,,,,,,,,,,,,,,,,,,,,,,,,,,,,,,,,,,,,,,,,,,,,,return,12.8133,,,,,,,,,,,,,,,,,,,,,,,,,,,,,,,,,,,,,,,,,,,,,,,,,,,,,,
,,5f29aa2ef40fa7112bcb2b80,2022-09-08_10h17.14.639,CGTgamblingSpanTasks,2022.2.1,Win32,59.96641881,,,,,,,,,,,,,,,,,,,,,,,,,,,,,,,,,,,,,,,,,,,,,,,,,,,,,,,,,,,,,,,,,,,,,,,,,,,,,,,,,,"[4,7,1]",0,0,0,0,1,,,,,,,,,,,,,,,,,,,,,,,,,,,,,,,,,,,,,,,,,,,,,,,,
,,5f29aa2ef40fa7112bcb2b80,2022-09-08_10h17.14.639,CGTgamblingSpanTasks,2022.2.1,Win32,59.96641881,,,,,,,,,,,,,,,,,,,,,,,,,,,,,,,,,,,,,,,,,,,,,,,,,,,,,,,,,,,,,,,,,,,,,,,,,,,,,,,,,,"[4,7,1]",1,0,1,0,1,,,,,,,,,,,,,,,,,,,,,,,,,,,,,,,,,,,,,,,,,,,,,,,,
,,5f29aa2ef40fa7112bcb2b80,2022-09-08_10h17.14.639,CGTgamblingSpanTasks,2022.2.1,Win32,59.96641881,,,,,,,,,,,,,,,,,,,,,,,,,,,,,,,,,,,,,,,,,,,,,,,,,,,,,,,,,,,,,,,,,,,,,,,,,,,,,,,,,,"[4,7,1]",2,0,2,0,1,,,,,,,,,,,,,,,,,,,,,,,,,,,,,,,,,,,,,,,,,,,,,,,,
,,5f29aa2ef40fa7112bcb2b80,2022-09-08_10h17.14.639,CGTgamblingSpanTasks,2022.2.1,Win32,59.96641881,,,,,,,,,,,,,,,,,,,,,,,,,,,,,,,,,,,,,,,,,,,,,,,,,,,,,,,,,,,,,,,1,,,,,,,,,,,,,,,,,,,,,,,,,471,-0.00462963,-0.42777782,1,0,0,cont_button,0,0,0,0,1,1,,,,,,,,,,,,,,,,,,,,,,,,,,,,,,,,,,,
,,5f29aa2ef40fa7112bcb2b80,2022-09-08_10h17.14.639,CGTgamblingSpanTasks,2022.2.1,Win32,59.96641881,,,,,,,,,,,,,,,,,,,,,,,,,,,,,,,,,,,,,,,,,,,,,,,,,,,,,,,,,,,,,,,,,,,,,,,,,,,,,,,,,,"[8,3,1,2]",0,0,0,0,1,,,,,,,,,,,,,,,,,,,,,,,,,,,,,,,,,,,,,,,,,,,,,,,,
,,5f29aa2ef40fa7112bcb2b80,2022-09-08_10h17.14.639,CGTgamblingSpanTasks,2022.2.1,Win32,59.96641881,,,,,,,,,,,,,,,,,,,,,,,,,,,,,,,,,,,,,,,,,,,,,,,,,,,,,,,,,,,,,,,,,,,,,,,,,,,,,,,,,,"[8,3,1,2]",1,0,1,0,1,,,,,,,,,,,,,,,,,,,,,,,,,,,,,,,,,,,,,,,,,,,,,,,,
,,5f29aa2ef40fa7112bcb2b80,2022-09-08_10h17.14.639,CGTgamblingSpanTasks,2022.2.1,Win32,59.96641881,,,,,,,,,,,,,,,,,,,,,,,,,,,,,,,,,,,,,,,,,,,,,,,,,,,,,,,,,,,,,,,,,,,,,,,,,,,,,,,,,,"[8,3,1,2]",2,0,2,0,1,,,,,,,,,,,,,,,,,,,,,,,,,,,,,,,,,,,,,,,,,,,,,,,,
,,5f29aa2ef40fa7112bcb2b80,2022-09-08_10h17.14.639,CGTgamblingSpanTasks,2022.2.1,Win32,59.96641881,,,,,,,,,,,,,,,,,,,,,,,,,,,,,,,,,,,,,,,,,,,,,,,,,,,,,,,,,,,,,,,,,,,,,,,,,,,,,,,,,,"[8,3,1,2]",3,0,3,0,1,,,,,,,,,,,,,,,,,,,,,,,,,,,,,,,,,,,,,,,,,,,,,,,,
,,5f29aa2ef40fa7112bcb2b80,2022-09-08_10h17.14.639,CGTgamblingSpanTasks,2022.2.1,Win32,59.96641881,,,,,,,,,,,,,,,,,,,,,,,,,,,,,,,,,,,,,,,,,,,,,,,,,,,,,,,,,,,,,,,1,,,,,,,,,,,,,,,,,,,,,,,,,8312,-0.012036995,-0.406481496,1,0,0,cont_button,0,1,1,1,1,2,,,,,,,,,,,,,,,,,,,,,,,,,,,,,,,,,,,
,,5f29aa2ef40fa7112bcb2b80,2022-09-08_10h17.14.639,CGTgamblingSpanTasks,2022.2.1,Win32,59.96641881,,,,,,,,,,,,,,,,,,,,,,,,,,,,,,,,,,,,,,,,,,,,,,,,,,,,,,,,,,,,,,,,,,,,,,,,,,,,,,,,,,"[2,7,4,3,6]",0,0,0,0,1,,,,,,,,,,,,,,,,,,,,,,,,,,,,,,,,,,,,,,,,,,,,,,,,
,,5f29aa2ef40fa7112bcb2b80,2022-09-08_10h17.14.639,CGTgamblingSpanTasks,2022.2.1,Win32,59.96641881,,,,,,,,,,,,,,,,,,,,,,,,,,,,,,,,,,,,,,,,,,,,,,,,,,,,,,,,,,,,,,,,,,,,,,,,,,,,,,,,,,"[2,7,4,3,6]",1,0,1,0,1,,,,,,,,,,,,,,,,,,,,,,,,,,,,,,,,,,,,,,,,,,,,,,,,
,,5f29aa2ef40fa7112bcb2b80,2022-09-08_10h17.14.639,CGTgamblingSpanTasks,2022.2.1,Win32,59.96641881,,,,,,,,,,,,,,,,,,,,,,,,,,,,,,,,,,,,,,,,,,,,,,,,,,,,,,,,,,,,,,,,,,,,,,,,,,,,,,,,,,"[2,7,4,3,6]",2,0,2,0,1,,,,,,,,,,,,,,,,,,,,,,,,,,,,,,,,,,,,,,,,,,,,,,,,
,,5f29aa2ef40fa7112bcb2b80,2022-09-08_10h17.14.639,CGTgamblingSpanTasks,2022.2.1,Win32,59.96641881,,,,,,,,,,,,,,,,,,,,,,,,,,,,,,,,,,,,,,,,,,,,,,,,,,,,,,,,,,,,,,,,,,,,,,,,,,,,,,,,,,"[2,7,4,3,6]",3,0,3,0,1,,,,,,,,,,,,,,,,,,,,,,,,,,,,,,,,,,,,,,,,,,,,,,,,
,,5f29aa2ef40fa7112bcb2b80,2022-09-08_10h17.14.639,CGTgamblingSpanTasks,2022.2.1,Win32,59.96641881,,,,,,,,,,,,,,,,,,,,,,,,,,,,,,,,,,,,,,,,,,,,,,,,,,,,,,,,,,,,,,,,,,,,,,,,,,,,,,,,,,"[2,7,4,3,6]",4,0,4,0,1,,,,,,,,,,,,,,,,,,,,,,,,,,,,,,,,,,,,,,,,,,,,,,,,
,,5f29aa2ef40fa7112bcb2b80,2022-09-08_10h17.14.639,CGTgamblingSpanTasks,2022.2.1,Win32,59.96641881,,,,,,,,,,,,,,,,,,,,,,,,,,,,,,,,,,,,,,,,,,,,,,,,,,,,,,,,,,,,,,,0,,,,,,,,,,,,,,,,,,,,,,,,,87436,-0.018518519,-0.374074088,1,0,0,cont_button,0,2,2,2,1,3,,,,,,,,,,,,,,,,,,,,,,,,,,,,,,,,,,,
,,5f29aa2ef40fa7112bcb2b80,2022-09-08_10h17.14.639,CGTgamblingSpanTasks,2022.2.1,Win32,59.96641881,,,,,,,,,,,,,,,,,,,,,,,,,,,,,,,,,,,,,,,,,,,,,,,,,,,,,,,,,,,,,,,,,,,,,,,,,,,,,,,,,,"[4,6,7,3,2]",0,0,0,0,1,,,,,,,,,,,,,,,,,,,,,,,,,,,,,,,,,,,,,,,,,,,,,,,,
,,5f29aa2ef40fa7112bcb2b80,2022-09-08_10h17.14.639,CGTgamblingSpanTasks,2022.2.1,Win32,59.96641881,,,,,,,,,,,,,,,,,,,,,,,,,,,,,,,,,,,,,,,,,,,,,,,,,,,,,,,,,,,,,,,,,,,,,,,,,,,,,,,,,,"[4,6,7,3,2]",1,0,1,0,1,,,,,,,,,,,,,,,,,,,,,,,,,,,,,,,,,,,,,,,,,,,,,,,,
,,5f29aa2ef40fa7112bcb2b80,2022-09-08_10h17.14.639,CGTgamblingSpanTasks,2022.2.1,Win32,59.96641881,,,,,,,,,,,,,,,,,,,,,,,,,,,,,,,,,,,,,,,,,,,,,,,,,,,,,,,,,,,,,,,,,,,,,,,,,,,,,,,,,,"[4,6,7,3,2]",2,0,2,0,1,,,,,,,,,,,,,,,,,,,,,,,,,,,,,,,,,,,,,,,,,,,,,,,,
,,5f29aa2ef40fa7112bcb2b80,2022-09-08_10h17.14.639,CGTgamblingSpanTasks,2022.2.1,Win32,59.96641881,,,,,,,,,,,,,,,,,,,,,,,,,,,,,,,,,,,,,,,,,,,,,,,,,,,,,,,,,,,,,,,,,,,,,,,,,,,,,,,,,,"[4,6,7,3,2]",3,0,3,0,1,,,,,,,,,,,,,,,,,,,,,,,,,,,,,,,,,,,,,,,,,,,,,,,,
,,5f29aa2ef40fa7112bcb2b80,2022-09-08_10h17.14.639,CGTgamblingSpanTasks,2022.2.1,Win32,59.96641881,,,,,,,,,,,,,,,,,,,,,,,,,,,,,,,,,,,,,,,,,,,,,,,,,,,,,,,,,,,,,,,,,,,,,,,,,,,,,,,,,,"[4,6,7,3,2]",4,0,4,0,1,,,,,,,,,,,,,,,,,,,,,,,,,,,,,,,,,,,,,,,,,,,,,,,,
,,5f29aa2ef40fa7112bcb2b80,2022-09-08_10h17.14.639,CGTgamblingSpanTasks,2022.2.1,Win32,59.96641881,,,,,,,,,,,,,,,,,,,,,,,,,,,,,,,,,,,,,,,,,,,,,,,,,,,,,,,,,,,,,,,0,,,,,,,,,,,,,,,,,,,,,,,,,864732,0.067592621,-0.393518519,1,0,0,cont_button,0,3,3,3,1,4,,,,,,,,,,,,,,,,,,,,,,,,,,,,,,,,,,,
,,5f29aa2ef40fa7112bcb2b80,2022-09-08_10h17.14.639,CGTgamblingSpanTasks,2022.2.1,Win32,59.96641881,,,,,,,,,,,,,,,,,,,,,,,,,,,,,,,,,,,,,,,,,,,,,,,,,,,,,,,,,,,,,,,,,,,,,,,,,,,,,,,,,,"[1,5,8,9]",0,0,0,0,1,,,,,,,,,,,,,,,,,,,,,,,,,,,,,,,,,,,,,,,,,,,,,,,,
,,5f29aa2ef40fa7112bcb2b80,2022-09-08_10h17.14.639,CGTgamblingSpanTasks,2022.2.1,Win32,59.96641881,,,,,,,,,,,,,,,,,,,,,,,,,,,,,,,,,,,,,,,,,,,,,,,,,,,,,,,,,,,,,,,,,,,,,,,,,,,,,,,,,,"[1,5,8,9]",1,0,1,0,1,,,,,,,,,,,,,,,,,,,,,,,,,,,,,,,,,,,,,,,,,,,,,,,,
,,5f29aa2ef40fa7112bcb2b80,2022-09-08_10h17.14.639,CGTgamblingSpanTasks,2022.2.1,Win32,59.96641881,,,,,,,,,,,,,,,,,,,,,,,,,,,,,,,,,,,,,,,,,,,,,,,,,,,,,,,,,,,,,,,,,,,,,,,,,,,,,,,,,,"[1,5,8,9]",2,0,2,0,1,,,,,,,,,,,,,,,,,,,,,,,,,,,,,,,,,,,,,,,,,,,,,,,,
,,5f29aa2ef40fa7112bcb2b80,2022-09-08_10h17.14.639,CGTgamblingSpanTasks,2022.2.1,Win32,59.96641881,,,,,,,,,,,,,,,,,,,,,,,,,,,,,,,,,,,,,,,,,,,,,,,,,,,,,,,,,,,,,,,,,,,,,,,,,,,,,,,,,,"[1,5,8,9]",3,0,3,0,1,,,,,,,,,,,,,,,,,,,,,,,,,,,,,,,,,,,,,,,,,,,,,,,,
,,5f29aa2ef40fa7112bcb2b80,2022-09-08_10h17.14.639,CGTgamblingSpanTasks,2022.2.1,Win32,59.96641881,,,,,,,,,,,,,,,,,,,,,,,,,,,,,,,,,,,,,,,,,,,,,,,,,,,,,,,,,,,,,,,1,,,,,,,,,,,,,,,,,,,,,,,,,1589,0.110185199,-0.409259302,1,0,0,cont_button,0,4,4,4,1,5,,,,,,,,,,,,,,,,,,,,,,,,,,,,,,,,,,,
,,5f29aa2ef40fa7112bcb2b80,2022-09-08_10h17.14.639,CGTgamblingSpanTasks,2022.2.1,Win32,59.96641881,,,,,,,,,,,,,,,,,,,,,,,,,,,,,,,,,,,,,,,,,,,,,,,,,,,,,,,,,,,,,,,,,,,,,,,,,,,,,,,,,,"[2,8,6,5,7]",0,0,0,0,1,,,,,,,,,,,,,,,,,,,,,,,,,,,,,,,,,,,,,,,,,,,,,,,,
,,5f29aa2ef40fa7112bcb2b80,2022-09-08_10h17.14.639,CGTgamblingSpanTasks,2022.2.1,Win32,59.96641881,,,,,,,,,,,,,,,,,,,,,,,,,,,,,,,,,,,,,,,,,,,,,,,,,,,,,,,,,,,,,,,,,,,,,,,,,,,,,,,,,,"[2,8,6,5,7]",1,0,1,0,1,,,,,,,,,,,,,,,,,,,,,,,,,,,,,,,,,,,,,,,,,,,,,,,,
,,5f29aa2ef40fa7112bcb2b80,2022-09-08_10h17.14.639,CGTgamblingSpanTasks,2022.2.1,Win32,59.96641881,,,,,,,,,,,,,,,,,,,,,,,,,,,,,,,,,,,,,,,,,,,,,,,,,,,,,,,,,,,,,,,,,,,,,,,,,,,,,,,,,,"[2,8,6,5,7]",2,0,2,0,1,,,,,,,,,,,,,,,,,,,,,,,,,,,,,,,,,,,,,,,,,,,,,,,,
,,5f29aa2ef40fa7112bcb2b80,2022-09-08_10h17.14.639,CGTgamblingSpanTasks,2022.2.1,Win32,59.96641881,,,,,,,,,,,,,,,,,,,,,,,,,,,,,,,,,,,,,,,,,,,,,,,,,,,,,,,,,,,,,,,,,,,,,,,,,,,,,,,,,,"[2,8,6,5,7]",3,0,3,0,1,,,,,,,,,,,,,,,,,,,,,,,,,,,,,,,,,,,,,,,,,,,,,,,,
,,5f29aa2ef40fa7112bcb2b80,2022-09-08_10h17.14.639,CGTgamblingSpanTasks,2022.2.1,Win32,59.96641881,,,,,,,,,,,,,,,,,,,,,,,,,,,,,,,,,,,,,,,,,,,,,,,,,,,,,,,,,,,,,,,,,,,,,,,,,,,,,,,,,,"[2,8,6,5,7]",4,0,4,0,1,,,,,,,,,,,,,,,,,,,,,,,,,,,,,,,,,,,,,,,,,,,,,,,,
,,5f29aa2ef40fa7112bcb2b80,2022-09-08_10h17.14.639,CGTgamblingSpanTasks,2022.2.1,Win32,59.96641881,,,,,,,,,,,,,,,,,,,,,,,,,,,,,,,,,,,,,,,,,,,,,,,,,,,,,,,,,,,,,,,1,,,,,,,,,,,,,,,,,,,,,,,,,28657,0.102777764,-0.402777778,1,0,0,cont_button,0,5,5,5,1,6,,,,,,,,,,,,,,,,,,,,,,,,,,,,,,,,,,,
,,5f29aa2ef40fa7112bcb2b80,2022-09-08_10h17.14.639,CGTgamblingSpanTasks,2022.2.1,Win32,59.96641881,,,,,,,,,,,,,,,,,,,,,,,,,,,,,,,,,,,,,,,,,,,,,,,,,,,,,,,,,,,,,,,,,,,,,,,,,,,,,,,,,,"[3,2,6,7,5,4]",0,0,0,0,1,,,,,,,,,,,,,,,,,,,,,,,,,,,,,,,,,,,,,,,,,,,,,,,,
,,5f29aa2ef40fa7112bcb2b80,2022-09-08_10h17.14.639,CGTgamblingSpanTasks,2022.2.1,Win32,59.96641881,,,,,,,,,,,,,,,,,,,,,,,,,,,,,,,,,,,,,,,,,,,,,,,,,,,,,,,,,,,,,,,,,,,,,,,,,,,,,,,,,,"[3,2,6,7,5,4]",1,0,1,0,1,,,,,,,,,,,,,,,,,,,,,,,,,,,,,,,,,,,,,,,,,,,,,,,,
,,5f29aa2ef40fa7112bcb2b80,2022-09-08_10h17.14.639,CGTgamblingSpanTasks,2022.2.1,Win32,59.96641881,,,,,,,,,,,,,,,,,,,,,,,,,,,,,,,,,,,,,,,,,,,,,,,,,,,,,,,,,,,,,,,,,,,,,,,,,,,,,,,,,,"[3,2,6,7,5,4]",2,0,2,0,1,,,,,,,,,,,,,,,,,,,,,,,,,,,,,,,,,,,,,,,,,,,,,,,,
,,5f29aa2ef40fa7112bcb2b80,2022-09-08_10h17.14.639,CGTgamblingSpanTasks,2022.2.1,Win32,59.96641881,,,,,,,,,,,,,,,,,,,,,,,,,,,,,,,,,,,,,,,,,,,,,,,,,,,,,,,,,,,,,,,,,,,,,,,,,,,,,,,,,,"[3,2,6,7,5,4]",3,0,3,0,1,,,,,,,,,,,,,,,,,,,,,,,,,,,,,,,,,,,,,,,,,,,,,,,,
,,5f29aa2ef40fa7112bcb2b80,2022-09-08_10h17.14.639,CGTgamblingSpanTasks,2022.2.1,Win32,59.96641881,,,,,,,,,,,,,,,,,,,,,,,,,,,,,,,,,,,,,,,,,,,,,,,,,,,,,,,,,,,,,,,,,,,,,,,,,,,,,,,,,,"[3,2,6,7,5,4]",4,0,4,0,1,,,,,,,,,,,,,,,,,,,,,,,,,,,,,,,,,,,,,,,,,,,,,,,,
,,5f29aa2ef40fa7112bcb2b80,2022-09-08_10h17.14.639,CGTgamblingSpanTasks,2022.2.1,Win32,59.96641881,,,,,,,,,,,,,,,,,,,,,,,,,,,,,,,,,,,,,,,,,,,,,,,,,,,,,,,,,,,,,,,,,,,,,,,,,,,,,,,,,,"[3,2,6,7,5,4]",5,0,5,0,1,,,,,,,,,,,,,,,,,,,,,,,,,,,,,,,,,,,,,,,,,,,,,,,,
,,5f29aa2ef40fa7112bcb2b80,2022-09-08_10h17.14.639,CGTgamblingSpanTasks,2022.2.1,Win32,59.96641881,,,,,,,,,,,,,,,,,,,,,,,,,,,,,,,,,,,,,,,,,,,,,,,,,,,,,,,,,,,,,,,1,,,,,,,,,,,,,,,,,,,,,,,,,326754,0.00462963,-0.39444443,1,0,0,cont_button,0,6,6,6,1,7,,,,,,,,,,,,,,,,,,,,,,,,,,,,,,,,,,,
,,5f29aa2ef40fa7112bcb2b80,2022-09-08_10h17.14.639,CGTgamblingSpanTasks,2022.2.1,Win32,59.96641881,,,,,,,,,,,,,,,,,,,,,,,,,,,,,,,,,,,,,,,,,,,,,,,,,,,,,,,,,,,,,,,,,,,,,,,,,,,,,,,,,,"[4,8,2,1,3,6,7]",0,0,0,0,1,,,,,,,,,,,,,,,,,,,,,,,,,,,,,,,,,,,,,,,,,,,,,,,,
,,5f29aa2ef40fa7112bcb2b80,2022-09-08_10h17.14.639,CGTgamblingSpanTasks,2022.2.1,Win32,59.96641881,,,,,,,,,,,,,,,,,,,,,,,,,,,,,,,,,,,,,,,,,,,,,,,,,,,,,,,,,,,,,,,,,,,,,,,,,,,,,,,,,,"[4,8,2,1,3,6,7]",1,0,1,0,1,,,,,,,,,,,,,,,,,,,,,,,,,,,,,,,,,,,,,,,,,,,,,,,,
,,5f29aa2ef40fa7112bcb2b80,2022-09-08_10h17.14.639,CGTgamblingSpanTasks,2022.2.1,Win32,59.96641881,,,,,,,,,,,,,,,,,,,,,,,,,,,,,,,,,,,,,,,,,,,,,,,,,,,,,,,,,,,,,,,,,,,,,,,,,,,,,,,,,,"[4,8,2,1,3,6,7]",2,0,2,0,1,,,,,,,,,,,,,,,,,,,,,,,,,,,,,,,,,,,,,,,,,,,,,,,,
,,5f29aa2ef40fa7112bcb2b80,2022-09-08_10h17.14.639,CGTgamblingSpanTasks,2022.2.1,Win32,59.96641881,,,,,,,,,,,,,,,,,,,,,,,,,,,,,,,,,,,,,,,,,,,,,,,,,,,,,,,,,,,,,,,,,,,,,,,,,,,,,,,,,,"[4,8,2,1,3,6,7]",3,0,3,0,1,,,,,,,,,,,,,,,,,,,,,,,,,,,,,,,,,,,,,,,,,,,,,,,,
,,5f29aa2ef40fa7112bcb2b80,2022-09-08_10h17.14.639,CGTgamblingSpanTasks,2022.2.1,Win32,59.96641881,,,,,,,,,,,,,,,,,,,,,,,,,,,,,,,,,,,,,,,,,,,,,,,,,,,,,,,,,,,,,,,,,,,,,,,,,,,,,,,,,,"[4,8,2,1,3,6,7]",4,0,4,0,1,,,,,,,,,,,,,,,,,,,,,,,,,,,,,,,,,,,,,,,,,,,,,,,,
,,5f29aa2ef40fa7112bcb2b80,2022-09-08_10h17.14.639,CGTgamblingSpanTasks,2022.2.1,Win32,59.96641881,,,,,,,,,,,,,,,,,,,,,,,,,,,,,,,,,,,,,,,,,,,,,,,,,,,,,,,,,,,,,,,,,,,,,,,,,,,,,,,,,,"[4,8,2,1,3,6,7]",5,0,5,0,1,,,,,,,,,,,,,,,,,,,,,,,,,,,,,,,,,,,,,,,,,,,,,,,,
,,5f29aa2ef40fa7112bcb2b80,2022-09-08_10h17.14.639,CGTgamblingSpanTasks,2022.2.1,Win32,59.96641881,,,,,,,,,,,,,,,,,,,,,,,,,,,,,,,,,,,,,,,,,,,,,,,,,,,,,,,,,,,,,,,,,,,,,,,,,,,,,,,,,,"[4,8,2,1,3,6,7]",6,0,6,0,1,,,,,,,,,,,,,,,,,,,,,,,,,,,,,,,,,,,,,,,,,,,,,,,,
,,5f29aa2ef40fa7112bcb2b80,2022-09-08_10h17.14.639,CGTgamblingSpanTasks,2022.2.1,Win32,59.96641881,,,,,,,,,,,,,,,,,,,,,,,,,,,,,,,,,,,,,,,,,,,,,,,,,,,,,,,,,,,,,,,1,,,,,,,,,,,,,,,,,,,,,,,,,4821367,0.080555598,-0.392592607,1,0,0,cont_button,0,7,7,7,1,8,,,,,,,,,,,,,,,,,,,,,,,,,,,,,,,,,,,
,,5f29aa2ef40fa7112bcb2b80,2022-09-08_10h17.14.639,CGTgamblingSpanTasks,2022.2.1,Win32,59.96641881,,,,,,,,,,,,,,,,,,,,,,,,,,,,,,,,,,,,,,,,,,,,,,,,,,,,,,,,,,,,,,,,,,,,,,,,,,,,,,,,,,"[4,3,6,5,7,2,1,9]",0,0,0,0,1,,,,,,,,,,,,,,,,,,,,,,,,,,,,,,,,,,,,,,,,,,,,,,,,
,,5f29aa2ef40fa7112bcb2b80,2022-09-08_10h17.14.639,CGTgamblingSpanTasks,2022.2.1,Win32,59.96641881,,,,,,,,,,,,,,,,,,,,,,,,,,,,,,,,,,,,,,,,,,,,,,,,,,,,,,,,,,,,,,,,,,,,,,,,,,,,,,,,,,"[4,3,6,5,7,2,1,9]",1,0,1,0,1,,,,,,,,,,,,,,,,,,,,,,,,,,,,,,,,,,,,,,,,,,,,,,,,
,,5f29aa2ef40fa7112bcb2b80,2022-09-08_10h17.14.639,CGTgamblingSpanTasks,2022.2.1,Win32,59.96641881,,,,,,,,,,,,,,,,,,,,,,,,,,,,,,,,,,,,,,,,,,,,,,,,,,,,,,,,,,,,,,,,,,,,,,,,,,,,,,,,,,"[4,3,6,5,7,2,1,9]",2,0,2,0,1,,,,,,,,,,,,,,,,,,,,,,,,,,,,,,,,,,,,,,,,,,,,,,,,
,,5f29aa2ef40fa7112bcb2b80,2022-09-08_10h17.14.639,CGTgamblingSpanTasks,2022.2.1,Win32,59.96641881,,,,,,,,,,,,,,,,,,,,,,,,,,,,,,,,,,,,,,,,,,,,,,,,,,,,,,,,,,,,,,,,,,,,,,,,,,,,,,,,,,"[4,3,6,5,7,2,1,9]",3,0,3,0,1,,,,,,,,,,,,,,,,,,,,,,,,,,,,,,,,,,,,,,,,,,,,,,,,
,,5f29aa2ef40fa7112bcb2b80,2022-09-08_10h17.14.639,CGTgamblingSpanTasks,2022.2.1,Win32,59.96641881,,,,,,,,,,,,,,,,,,,,,,,,,,,,,,,,,,,,,,,,,,,,,,,,,,,,,,,,,,,,,,,,,,,,,,,,,,,,,,,,,,"[4,3,6,5,7,2,1,9]",4,0,4,0,1,,,,,,,,,,,,,,,,,,,,,,,,,,,,,,,,,,,,,,,,,,,,,,,,
,,5f29aa2ef40fa7112bcb2b80,2022-09-08_10h17.14.639,CGTgamblingSpanTasks,2022.2.1,Win32,59.96641881,,,,,,,,,,,,,,,,,,,,,,,,,,,,,,,,,,,,,,,,,,,,,,,,,,,,,,,,,,,,,,,,,,,,,,,,,,,,,,,,,,"[4,3,6,5,7,2,1,9]",5,0,5,0,1,,,,,,,,,,,,,,,,,,,,,,,,,,,,,,,,,,,,,,,,,,,,,,,,
,,5f29aa2ef40fa7112bcb2b80,2022-09-08_10h17.14.639,CGTgamblingSpanTasks,2022.2.1,Win32,59.96641881,,,,,,,,,,,,,,,,,,,,,,,,,,,,,,,,,,,,,,,,,,,,,,,,,,,,,,,,,,,,,,,,,,,,,,,,,,,,,,,,,,"[4,3,6,5,7,2,1,9]",6,0,6,0,1,,,,,,,,,,,,,,,,,,,,,,,,,,,,,,,,,,,,,,,,,,,,,,,,
,,5f29aa2ef40fa7112bcb2b80,2022-09-08_10h17.14.639,CGTgamblingSpanTasks,2022.2.1,Win32,59.96641881,,,,,,,,,,,,,,,,,,,,,,,,,,,,,,,,,,,,,,,,,,,,,,,,,,,,,,,,,,,,,,,,,,,,,,,,,,,,,,,,,,"[4,3,6,5,7,2,1,9]",7,0,7,0,1,,,,,,,,,,,,,,,,,,,,,,,,,,,,,,,,,,,,,,,,,,,,,,,,
,,5f29aa2ef40fa7112bcb2b80,2022-09-08_10h17.14.639,CGTgamblingSpanTasks,2022.2.1,Win32,59.96641881,,,,,,,,,,,,,,,,,,,,,,,,,,,,,,,,,,,,,,,,,,,,,,,,,,,,,,,,,,,,,,,0,,,,,,,,,,,,,,,,,,,,,,,,,4657219,0.003703718,-0.412962949,1,0,0,cont_button,0,8,8,8,1,9,,,,,,,,,,,,,,,,,,,,,,,,,,,,,,,,,,,
,,5f29aa2ef40fa7112bcb2b80,2022-09-08_10h17.14.639,CGTgamblingSpanTasks,2022.2.1,Win32,59.96641881,,,,,,,,,,,,,,,,,,,,,,,,,,,,,,,,,,,,,,,,,,,,,,,,,,,,,,,,,,,,,,,,,,,,,,,,,,,,,,,,,,"[3,7,1,6,9,5,2,4]",0,0,0,0,1,,,,,,,,,,,,,,,,,,,,,,,,,,,,,,,,,,,,,,,,,,,,,,,,
,,5f29aa2ef40fa7112bcb2b80,2022-09-08_10h17.14.639,CGTgamblingSpanTasks,2022.2.1,Win32,59.96641881,,,,,,,,,,,,,,,,,,,,,,,,,,,,,,,,,,,,,,,,,,,,,,,,,,,,,,,,,,,,,,,,,,,,,,,,,,,,,,,,,,"[3,7,1,6,9,5,2,4]",1,0,1,0,1,,,,,,,,,,,,,,,,,,,,,,,,,,,,,,,,,,,,,,,,,,,,,,,,
,,5f29aa2ef40fa7112bcb2b80,2022-09-08_10h17.14.639,CGTgamblingSpanTasks,2022.2.1,Win32,59.96641881,,,,,,,,,,,,,,,,,,,,,,,,,,,,,,,,,,,,,,,,,,,,,,,,,,,,,,,,,,,,,,,,,,,,,,,,,,,,,,,,,,"[3,7,1,6,9,5,2,4]",2,0,2,0,1,,,,,,,,,,,,,,,,,,,,,,,,,,,,,,,,,,,,,,,,,,,,,,,,
,,5f29aa2ef40fa7112bcb2b80,2022-09-08_10h17.14.639,CGTgamblingSpanTasks,2022.2.1,Win32,59.96641881,,,,,,,,,,,,,,,,,,,,,,,,,,,,,,,,,,,,,,,,,,,,,,,,,,,,,,,,,,,,,,,,,,,,,,,,,,,,,,,,,,"[3,7,1,6,9,5,2,4]",3,0,3,0,1,,,,,,,,,,,,,,,,,,,,,,,,,,,,,,,,,,,,,,,,,,,,,,,,
,,5f29aa2ef40fa7112bcb2b80,2022-09-08_10h17.14.639,CGTgamblingSpanTasks,2022.2.1,Win32,59.96641881,,,,,,,,,,,,,,,,,,,,,,,,,,,,,,,,,,,,,,,,,,,,,,,,,,,,,,,,,,,,,,,,,,,,,,,,,,,,,,,,,,"[3,7,1,6,9,5,2,4]",4,0,4,0,1,,,,,,,,,,,,,,,,,,,,,,,,,,,,,,,,,,,,,,,,,,,,,,,,
,,5f29aa2ef40fa7112bcb2b80,2022-09-08_10h17.14.639,CGTgamblingSpanTasks,2022.2.1,Win32,59.96641881,,,,,,,,,,,,,,,,,,,,,,,,,,,,,,,,,,,,,,,,,,,,,,,,,,,,,,,,,,,,,,,,,,,,,,,,,,,,,,,,,,"[3,7,1,6,9,5,2,4]",5,0,5,0,1,,,,,,,,,,,,,,,,,,,,,,,,,,,,,,,,,,,,,,,,,,,,,,,,
,,5f29aa2ef40fa7112bcb2b80,2022-09-08_10h17.14.639,CGTgamblingSpanTasks,2022.2.1,Win32,59.96641881,,,,,,,,,,,,,,,,,,,,,,,,,,,,,,,,,,,,,,,,,,,,,,,,,,,,,,,,,,,,,,,,,,,,,,,,,,,,,,,,,,"[3,7,1,6,9,5,2,4]",6,0,6,0,1,,,,,,,,,,,,,,,,,,,,,,,,,,,,,,,,,,,,,,,,,,,,,,,,
,,5f29aa2ef40fa7112bcb2b80,2022-09-08_10h17.14.639,CGTgamblingSpanTasks,2022.2.1,Win32,59.96641881,,,,,,,,,,,,,,,,,,,,,,,,,,,,,,,,,,,,,,,,,,,,,,,,,,,,,,,,,,,,,,,,,,,,,,,,,,,,,,,,,,"[3,7,1,6,9,5,2,4]",7,0,7,0,1,,,,,,,,,,,,,,,,,,,,,,,,,,,,,,,,,,,,,,,,,,,,,,,,
,,5f29aa2ef40fa7112bcb2b80,2022-09-08_10h17.14.639,CGTgamblingSpanTasks,2022.2.1,Win32,59.96641881,,,,,,,,,,,,,,,,,,,,,,,,,,,,,,,,,,,,,,,,,,,,,,,,,,,,,,,,,,,,,,,1,,,,,,,,,,,,,,,,,,,,,,,,,37169524,-0.082407422,-0.37037037,1,0,0,cont_button,0,9,9,9,1,10,,,,,,,,,,,,,,,,,,,,,,,,,,,,,,,,,,,
,,5f29aa2ef40fa7112bcb2b80,2022-09-08_10h17.14.639,CGTgamblingSpanTasks,2022.2.1,Win32,59.96641881,,,,,,,,,,,,,,,,,,,,,,,,,,,,,,,,,,,,,,,,,,,,,,,,,,,,,,,,,,,,,,,,,,,,,,,,,,,,,,,,,,"[3,9,1,5,8,7,2,4,6]",0,0,0,0,1,,,,,,,,,,,,,,,,,,,,,,,,,,,,,,,,,,,,,,,,,,,,,,,,
,,5f29aa2ef40fa7112bcb2b80,2022-09-08_10h17.14.639,CGTgamblingSpanTasks,2022.2.1,Win32,59.96641881,,,,,,,,,,,,,,,,,,,,,,,,,,,,,,,,,,,,,,,,,,,,,,,,,,,,,,,,,,,,,,,,,,,,,,,,,,,,,,,,,,"[3,9,1,5,8,7,2,4,6]",1,0,1,0,1,,,,,,,,,,,,,,,,,,,,,,,,,,,,,,,,,,,,,,,,,,,,,,,,
,,5f29aa2ef40fa7112bcb2b80,2022-09-08_10h17.14.639,CGTgamblingSpanTasks,2022.2.1,Win32,59.96641881,,,,,,,,,,,,,,,,,,,,,,,,,,,,,,,,,,,,,,,,,,,,,,,,,,,,,,,,,,,,,,,,,,,,,,,,,,,,,,,,,,"[3,9,1,5,8,7,2,4,6]",2,0,2,0,1,,,,,,,,,,,,,,,,,,,,,,,,,,,,,,,,,,,,,,,,,,,,,,,,
,,5f29aa2ef40fa7112bcb2b80,2022-09-08_10h17.14.639,CGTgamblingSpanTasks,2022.2.1,Win32,59.96641881,,,,,,,,,,,,,,,,,,,,,,,,,,,,,,,,,,,,,,,,,,,,,,,,,,,,,,,,,,,,,,,,,,,,,,,,,,,,,,,,,,"[3,9,1,5,8,7,2,4,6]",3,0,3,0,1,,,,,,,,,,,,,,,,,,,,,,,,,,,,,,,,,,,,,,,,,,,,,,,,
,,5f29aa2ef40fa7112bcb2b80,2022-09-08_10h17.14.639,CGTgamblingSpanTasks,2022.2.1,Win32,59.96641881,,,,,,,,,,,,,,,,,,,,,,,,,,,,,,,,,,,,,,,,,,,,,,,,,,,,,,,,,,,,,,,,,,,,,,,,,,,,,,,,,,"[3,9,1,5,8,7,2,4,6]",4,0,4,0,1,,,,,,,,,,,,,,,,,,,,,,,,,,,,,,,,,,,,,,,,,,,,,,,,
,,5f29aa2ef40fa7112bcb2b80,2022-09-08_10h17.14.639,CGTgamblingSpanTasks,2022.2.1,Win32,59.96641881,,,,,,,,,,,,,,,,,,,,,,,,,,,,,,,,,,,,,,,,,,,,,,,,,,,,,,,,,,,,,,,,,,,,,,,,,,,,,,,,,,"[3,9,1,5,8,7,2,4,6]",5,0,5,0,1,,,,,,,,,,,,,,,,,,,,,,,,,,,,,,,,,,,,,,,,,,,,,,,,
,,5f29aa2ef40fa7112bcb2b80,2022-09-08_10h17.14.639,CGTgamblingSpanTasks,2022.2.1,Win32,59.96641881,,,,,,,,,,,,,,,,,,,,,,,,,,,,,,,,,,,,,,,,,,,,,,,,,,,,,,,,,,,,,,,,,,,,,,,,,,,,,,,,,,"[3,9,1,5,8,7,2,4,6]",6,0,6,0,1,,,,,,,,,,,,,,,,,,,,,,,,,,,,,,,,,,,,,,,,,,,,,,,,
,,5f29aa2ef40fa7112bcb2b80,2022-09-08_10h17.14.639,CGTgamblingSpanTasks,2022.2.1,Win32,59.96641881,,,,,,,,,,,,,,,,,,,,,,,,,,,,,,,,,,,,,,,,,,,,,,,,,,,,,,,,,,,,,,,,,,,,,,,,,,,,,,,,,,"[3,9,1,5,8,7,2,4,6]",7,0,7,0,1,,,,,,,,,,,,,,,,,,,,,,,,,,,,,,,,,,,,,,,,,,,,,,,,
,,5f29aa2ef40fa7112bcb2b80,2022-09-08_10h17.14.639,CGTgamblingSpanTasks,2022.2.1,Win32,59.96641881,,,,,,,,,,,,,,,,,,,,,,,,,,,,,,,,,,,,,,,,,,,,,,,,,,,,,,,,,,,,,,,,,,,,,,,,,,,,,,,,,,"[3,9,1,5,8,7,2,4,6]",8,0,8,0,1,,,,,,,,,,,,,,,,,,,,,,,,,,,,,,,,,,,,,,,,,,,,,,,,
,,5f29aa2ef40fa7112bcb2b80,2022-09-08_10h17.14.639,CGTgamblingSpanTasks,2022.2.1,Win32,59.96641881,,,,,,,,,,,,,,,,,,,,,,,,,,,,,,,,,,,,,,,,,,,,,,,,,,,,,,,,,,,,,,,1,,,,,,,,,,,,,,,,,,,,,,,,,391587246,-0.041666667,-0.401851866,1,0,0,cont_button,0,10,10,10,1,11,,,,,,,,,,,,,,,,,,,,,,,,,,,,,,,,,,,
,,5f29aa2ef40fa7112bcb2b80,2022-09-08_10h17.14.639,CGTgamblingSpanTasks,2022.2.1,Win32,59.96641881,,,,,,,,,,,,,,,,,,,,,,,,,,,,,,,,,,,,,,,,,,,,,,,,,,,,,,,,,,,,,,,,,,,,,,,,,,,,,,,,,,"[1,9,5,7,3,8,4,6,2,2]",0,0,0,0,1,,,,,,,,,,,,,,,,,,,,,,,,,,,,,,,,,,,,,,,,,,,,,,,,
,,5f29aa2ef40fa7112bcb2b80,2022-09-08_10h17.14.639,CGTgamblingSpanTasks,2022.2.1,Win32,59.96641881,,,,,,,,,,,,,,,,,,,,,,,,,,,,,,,,,,,,,,,,,,,,,,,,,,,,,,,,,,,,,,,,,,,,,,,,,,,,,,,,,,"[1,9,5,7,3,8,4,6,2,2]",1,0,1,0,1,,,,,,,,,,,,,,,,,,,,,,,,,,,,,,,,,,,,,,,,,,,,,,,,
,,5f29aa2ef40fa7112bcb2b80,2022-09-08_10h17.14.639,CGTgamblingSpanTasks,2022.2.1,Win32,59.96641881,,,,,,,,,,,,,,,,,,,,,,,,,,,,,,,,,,,,,,,,,,,,,,,,,,,,,,,,,,,,,,,,,,,,,,,,,,,,,,,,,,"[1,9,5,7,3,8,4,6,2,2]",2,0,2,0,1,,,,,,,,,,,,,,,,,,,,,,,,,,,,,,,,,,,,,,,,,,,,,,,,
,,5f29aa2ef40fa7112bcb2b80,2022-09-08_10h17.14.639,CGTgamblingSpanTasks,2022.2.1,Win32,59.96641881,,,,,,,,,,,,,,,,,,,,,,,,,,,,,,,,,,,,,,,,,,,,,,,,,,,,,,,,,,,,,,,,,,,,,,,,,,,,,,,,,,"[1,9,5,7,3,8,4,6,2,2]",3,0,3,0,1,,,,,,,,,,,,,,,,,,,,,,,,,,,,,,,,,,,,,,,,,,,,,,,,
,,5f29aa2ef40fa7112bcb2b80,2022-09-08_10h17.14.639,CGTgamblingSpanTasks,2022.2.1,Win32,59.96641881,,,,,,,,,,,,,,,,,,,,,,,,,,,,,,,,,,,,,,,,,,,,,,,,,,,,,,,,,,,,,,,,,,,,,,,,,,,,,,,,,,"[1,9,5,7,3,8,4,6,2,2]",4,0,4,0,1,,,,,,,,,,,,,,,,,,,,,,,,,,,,,,,,,,,,,,,,,,,,,,,,
,,5f29aa2ef40fa7112bcb2b80,2022-09-08_10h17.14.639,CGTgamblingSpanTasks,2022.2.1,Win32,59.96641881,,,,,,,,,,,,,,,,,,,,,,,,,,,,,,,,,,,,,,,,,,,,,,,,,,,,,,,,,,,,,,,,,,,,,,,,,,,,,,,,,,"[1,9,5,7,3,8,4,6,2,2]",5,0,5,0,1,,,,,,,,,,,,,,,,,,,,,,,,,,,,,,,,,,,,,,,,,,,,,,,,
,,5f29aa2ef40fa7112bcb2b80,2022-09-08_10h17.14.639,CGTgamblingSpanTasks,2022.2.1,Win32,59.96641881,,,,,,,,,,,,,,,,,,,,,,,,,,,,,,,,,,,,,,,,,,,,,,,,,,,,,,,,,,,,,,,,,,,,,,,,,,,,,,,,,,"[1,9,5,7,3,8,4,6,2,2]",6,0,6,0,1,,,,,,,,,,,,,,,,,,,,,,,,,,,,,,,,,,,,,,,,,,,,,,,,
,,5f29aa2ef40fa7112bcb2b80,2022-09-08_10h17.14.639,CGTgamblingSpanTasks,2022.2.1,Win32,59.96641881,,,,,,,,,,,,,,,,,,,,,,,,,,,,,,,,,,,,,,,,,,,,,,,,,,,,,,,,,,,,,,,,,,,,,,,,,,,,,,,,,,"[1,9,5,7,3,8,4,6,2,2]",7,0,7,0,1,,,,,,,,,,,,,,,,,,,,,,,,,,,,,,,,,,,,,,,,,,,,,,,,
,,5f29aa2ef40fa7112bcb2b80,2022-09-08_10h17.14.639,CGTgamblingSpanTasks,2022.2.1,Win32,59.96641881,,,,,,,,,,,,,,,,,,,,,,,,,,,,,,,,,,,,,,,,,,,,,,,,,,,,,,,,,,,,,,,,,,,,,,,,,,,,,,,,,,"[1,9,5,7,3,8,4,6,2,2]",8,0,8,0,1,,,,,,,,,,,,,,,,,,,,,,,,,,,,,,,,,,,,,,,,,,,,,,,,
,,5f29aa2ef40fa7112bcb2b80,2022-09-08_10h17.14.639,CGTgamblingSpanTasks,2022.2.1,Win32,59.96641881,,,,,,,,,,,,,,,,,,,,,,,,,,,,,,,,,,,,,,,,,,,,,,,,,,,,,,,,,,,,,,,,,,,,,,,,,,,,,,,,,,"[1,9,5,7,3,8,4,6,2,2]",9,0,9,0,1,,,,,,,,,,,,,,,,,,,,,,,,,,,,,,,,,,,,,,,,,,,,,,,,
,,5f29aa2ef40fa7112bcb2b80,2022-09-08_10h17.14.639,CGTgamblingSpanTasks,2022.2.1,Win32,59.96641881,,,,,,,,,,,,,,,,,,,,,,,,,,,,,,,,,,,,,,,,,,,,,,,,,,,,,,,,,,,,,,,1,,,,,,,,,,,,,,,,,,,,,,,,,1957384622,-0.039814772,-0.387037065,1,0,0,cont_button,0,11,11,11,1,12,,,,,,,,,,,,,,,,,,,,,,,,,,,,,,,,,,,
,,5f29aa2ef40fa7112bcb2b80,2022-09-08_10h17.14.639,CGTgamblingSpanTasks,2022.2.1,Win32,59.96641881,,,,,,,,,,,,,,,,,,,,,,,,,,,,,,,,,,,,,,,,,,,,,,,,,,,,,,,,,,,,,,,,,,,,,,,,,,,,,,,,,,"[7,8,6,1,4,9,5,2,3,3,1]",0,0,0,0,1,,,,,,,,,,,,,,,,,,,,,,,,,,,,,,,,,,,,,,,,,,,,,,,,
,,5f29aa2ef40fa7112bcb2b80,2022-09-08_10h17.14.639,CGTgamblingSpanTasks,2022.2.1,Win32,59.96641881,,,,,,,,,,,,,,,,,,,,,,,,,,,,,,,,,,,,,,,,,,,,,,,,,,,,,,,,,,,,,,,,,,,,,,,,,,,,,,,,,,"[7,8,6,1,4,9,5,2,3,3,1]",1,0,1,0,1,,,,,,,,,,,,,,,,,,,,,,,,,,,,,,,,,,,,,,,,,,,,,,,,
,,5f29aa2ef40fa7112bcb2b80,2022-09-08_10h17.14.639,CGTgamblingSpanTasks,2022.2.1,Win32,59.96641881,,,,,,,,,,,,,,,,,,,,,,,,,,,,,,,,,,,,,,,,,,,,,,,,,,,,,,,,,,,,,,,,,,,,,,,,,,,,,,,,,,"[7,8,6,1,4,9,5,2,3,3,1]",2,0,2,0,1,,,,,,,,,,,,,,,,,,,,,,,,,,,,,,,,,,,,,,,,,,,,,,,,
,,5f29aa2ef40fa7112bcb2b80,2022-09-08_10h17.14.639,CGTgamblingSpanTasks,2022.2.1,Win32,59.96641881,,,,,,,,,,,,,,,,,,,,,,,,,,,,,,,,,,,,,,,,,,,,,,,,,,,,,,,,,,,,,,,,,,,,,,,,,,,,,,,,,,"[7,8,6,1,4,9,5,2,3,3,1]",3,0,3,0,1,,,,,,,,,,,,,,,,,,,,,,,,,,,,,,,,,,,,,,,,,,,,,,,,
,,5f29aa2ef40fa7112bcb2b80,2022-09-08_10h17.14.639,CGTgamblingSpanTasks,2022.2.1,Win32,59.96641881,,,,,,,,,,,,,,,,,,,,,,,,,,,,,,,,,,,,,,,,,,,,,,,,,,,,,,,,,,,,,,,,,,,,,,,,,,,,,,,,,,"[7,8,6,1,4,9,5,2,3,3,1]",4,0,4,0,1,,,,,,,,,,,,,,,,,,,,,,,,,,,,,,,,,,,,,,,,,,,,,,,,
,,5f29aa2ef40fa7112bcb2b80,2022-09-08_10h17.14.639,CGTgamblingSpanTasks,2022.2.1,Win32,59.96641881,,,,,,,,,,,,,,,,,,,,,,,,,,,,,,,,,,,,,,,,,,,,,,,,,,,,,,,,,,,,,,,,,,,,,,,,,,,,,,,,,,"[7,8,6,1,4,9,5,2,3,3,1]",5,0,5,0,1,,,,,,,,,,,,,,,,,,,,,,,,,,,,,,,,,,,,,,,,,,,,,,,,
,,5f29aa2ef40fa7112bcb2b80,2022-09-08_10h17.14.639,CGTgamblingSpanTasks,2022.2.1,Win32,59.96641881,,,,,,,,,,,,,,,,,,,,,,,,,,,,,,,,,,,,,,,,,,,,,,,,,,,,,,,,,,,,,,,,,,,,,,,,,,,,,,,,,,"[7,8,6,1,4,9,5,2,3,3,1]",6,0,6,0,1,,,,,,,,,,,,,,,,,,,,,,,,,,,,,,,,,,,,,,,,,,,,,,,,
,,5f29aa2ef40fa7112bcb2b80,2022-09-08_10h17.14.639,CGTgamblingSpanTasks,2022.2.1,Win32,59.96641881,,,,,,,,,,,,,,,,,,,,,,,,,,,,,,,,,,,,,,,,,,,,,,,,,,,,,,,,,,,,,,,,,,,,,,,,,,,,,,,,,,"[7,8,6,1,4,9,5,2,3,3,1]",7,0,7,0,1,,,,,,,,,,,,,,,,,,,,,,,,,,,,,,,,,,,,,,,,,,,,,,,,
,,5f29aa2ef40fa7112bcb2b80,2022-09-08_10h17.14.639,CGTgamblingSpanTasks,2022.2.1,Win32,59.96641881,,,,,,,,,,,,,,,,,,,,,,,,,,,,,,,,,,,,,,,,,,,,,,,,,,,,,,,,,,,,,,,,,,,,,,,,,,,,,,,,,,"[7,8,6,1,4,9,5,2,3,3,1]",8,0,8,0,1,,,,,,,,,,,,,,,,,,,,,,,,,,,,,,,,,,,,,,,,,,,,,,,,
,,5f29aa2ef40fa7112bcb2b80,2022-09-08_10h17.14.639,CGTgamblingSpanTasks,2022.2.1,Win32,59.96641881,,,,,,,,,,,,,,,,,,,,,,,,,,,,,,,,,,,,,,,,,,,,,,,,,,,,,,,,,,,,,,,,,,,,,,,,,,,,,,,,,,"[7,8,6,1,4,9,5,2,3,3,1]",9,0,9,0,1,,,,,,,,,,,,,,,,,,,,,,,,,,,,,,,,,,,,,,,,,,,,,,,,
,,5f29aa2ef40fa7112bcb2b80,2022-09-08_10h17.14.639,CGTgamblingSpanTasks,2022.2.1,Win32,59.96641881,,,,,,,,,,,,,,,,,,,,,,,,,,,,,,,,,,,,,,,,,,,,,,,,,,,,,,,,,,,,,,,,,,,,,,,,,,,,,,,,,,"[7,8,6,1,4,9,5,2,3,3,1]",10,0,10,0,1,,,,,,,,,,,,,,,,,,,,,,,,,,,,,,,,,,,,,,,,,,,,,,,,
,,5f29aa2ef40fa7112bcb2b80,2022-09-08_10h17.14.639,CGTgamblingSpanTasks,2022.2.1,Win32,59.96641881,,,,,,,,,,,,,,,,,,,,,,,,,,,,,,,,,,,,,,,,,,,,,,,,,,,,,,,,,,,,,,,0,,,,,,,,,,,,,,,,,,,,,,,,,8614952331,0.045370384,-0.388888889,1,0,0,cont_button,0,12,12,12,1,13,,,,,,,,,,,,,,,,,,,,,,,,,,,,,,,,,,,
,,5f29aa2ef40fa7112bcb2b80,2022-09-08_10h17.14.639,CGTgamblingSpanTasks,2022.2.1,Win32,59.96641881,,,,,,,,,,,,,,,,,,,,,,,,,,,,,,,,,,,,,,,,,,,,,,,,,,,,,,,,,,,,,,,,,,,,,,,,,,,,,,,,,,"[7,1,9,2,8,6,5,3,4,4,1]",0,0,0,0,1,,,,,,,,,,,,,,,,,,,,,,,,,,,,,,,,,,,,,,,,,,,,,,,,
,,5f29aa2ef40fa7112bcb2b80,2022-09-08_10h17.14.639,CGTgamblingSpanTasks,2022.2.1,Win32,59.96641881,,,,,,,,,,,,,,,,,,,,,,,,,,,,,,,,,,,,,,,,,,,,,,,,,,,,,,,,,,,,,,,,,,,,,,,,,,,,,,,,,,"[7,1,9,2,8,6,5,3,4,4,1]",1,0,1,0,1,,,,,,,,,,,,,,,,,,,,,,,,,,,,,,,,,,,,,,,,,,,,,,,,
,,5f29aa2ef40fa7112bcb2b80,2022-09-08_10h17.14.639,CGTgamblingSpanTasks,2022.2.1,Win32,59.96641881,,,,,,,,,,,,,,,,,,,,,,,,,,,,,,,,,,,,,,,,,,,,,,,,,,,,,,,,,,,,,,,,,,,,,,,,,,,,,,,,,,"[7,1,9,2,8,6,5,3,4,4,1]",2,0,2,0,1,,,,,,,,,,,,,,,,,,,,,,,,,,,,,,,,,,,,,,,,,,,,,,,,
,,5f29aa2ef40fa7112bcb2b80,2022-09-08_10h17.14.639,CGTgamblingSpanTasks,2022.2.1,Win32,59.96641881,,,,,,,,,,,,,,,,,,,,,,,,,,,,,,,,,,,,,,,,,,,,,,,,,,,,,,,,,,,,,,,,,,,,,,,,,,,,,,,,,,"[7,1,9,2,8,6,5,3,4,4,1]",3,0,3,0,1,,,,,,,,,,,,,,,,,,,,,,,,,,,,,,,,,,,,,,,,,,,,,,,,
,,5f29aa2ef40fa7112bcb2b80,2022-09-08_10h17.14.639,CGTgamblingSpanTasks,2022.2.1,Win32,59.96641881,,,,,,,,,,,,,,,,,,,,,,,,,,,,,,,,,,,,,,,,,,,,,,,,,,,,,,,,,,,,,,,,,,,,,,,,,,,,,,,,,,"[7,1,9,2,8,6,5,3,4,4,1]",4,0,4,0,1,,,,,,,,,,,,,,,,,,,,,,,,,,,,,,,,,,,,,,,,,,,,,,,,
,,5f29aa2ef40fa7112bcb2b80,2022-09-08_10h17.14.639,CGTgamblingSpanTasks,2022.2.1,Win32,59.96641881,,,,,,,,,,,,,,,,,,,,,,,,,,,,,,,,,,,,,,,,,,,,,,,,,,,,,,,,,,,,,,,,,,,,,,,,,,,,,,,,,,"[7,1,9,2,8,6,5,3,4,4,1]",5,0,5,0,1,,,,,,,,,,,,,,,,,,,,,,,,,,,,,,,,,,,,,,,,,,,,,,,,
,,5f29aa2ef40fa7112bcb2b80,2022-09-08_10h17.14.639,CGTgamblingSpanTasks,2022.2.1,Win32,59.96641881,,,,,,,,,,,,,,,,,,,,,,,,,,,,,,,,,,,,,,,,,,,,,,,,,,,,,,,,,,,,,,,,,,,,,,,,,,,,,,,,,,"[7,1,9,2,8,6,5,3,4,4,1]",6,0,6,0,1,,,,,,,,,,,,,,,,,,,,,,,,,,,,,,,,,,,,,,,,,,,,,,,,
,,5f29aa2ef40fa7112bcb2b80,2022-09-08_10h17.14.639,CGTgamblingSpanTasks,2022.2.1,Win32,59.96641881,,,,,,,,,,,,,,,,,,,,,,,,,,,,,,,,,,,,,,,,,,,,,,,,,,,,,,,,,,,,,,,,,,,,,,,,,,,,,,,,,,"[7,1,9,2,8,6,5,3,4,4,1]",7,0,7,0,1,,,,,,,,,,,,,,,,,,,,,,,,,,,,,,,,,,,,,,,,,,,,,,,,
,,5f29aa2ef40fa7112bcb2b80,2022-09-08_10h17.14.639,CGTgamblingSpanTasks,2022.2.1,Win32,59.96641881,,,,,,,,,,,,,,,,,,,,,,,,,,,,,,,,,,,,,,,,,,,,,,,,,,,,,,,,,,,,,,,,,,,,,,,,,,,,,,,,,,"[7,1,9,2,8,6,5,3,4,4,1]",8,0,8,0,1,,,,,,,,,,,,,,,,,,,,,,,,,,,,,,,,,,,,,,,,,,,,,,,,
,,5f29aa2ef40fa7112bcb2b80,2022-09-08_10h17.14.639,CGTgamblingSpanTasks,2022.2.1,Win32,59.96641881,,,,,,,,,,,,,,,,,,,,,,,,,,,,,,,,,,,,,,,,,,,,,,,,,,,,,,,,,,,,,,,,,,,,,,,,,,,,,,,,,,"[7,1,9,2,8,6,5,3,4,4,1]",9,0,9,0,1,,,,,,,,,,,,,,,,,,,,,,,,,,,,,,,,,,,,,,,,,,,,,,,,
,,5f29aa2ef40fa7112bcb2b80,2022-09-08_10h17.14.639,CGTgamblingSpanTasks,2022.2.1,Win32,59.96641881,,,,,,,,,,,,,,,,,,,,,,,,,,,,,,,,,,,,,,,,,,,,,,,,,,,,,,,,,,,,,,,,,,,,,,,,,,,,,,,,,,"[7,1,9,2,8,6,5,3,4,4,1]",10,0,10,0,1,,,,,,,,,,,,,,,,,,,,,,,,,,,,,,,,,,,,,,,,,,,,,,,,
,,5f29aa2ef40fa7112bcb2b80,2022-09-08_10h17.14.639,CGTgamblingSpanTasks,2022.2.1,Win32,59.96641881,,,,,,,,,,,,,,,,,,,,,,,,,,,,,,,,,,,,,,,,,,,,,,,,,,,,,,,,,,,,,,,0,,,,,,,,,,,,,,,,,,,,,,,,,76582441,0.05740745,-0.378703718,1,0,0,cont_button,0,13,13,13,1,14,,,,,,,,,,,,,,,,,,,,,,,,,,,,,,,,,,,
,,5f29aa2ef40fa7112bcb2b80,2022-09-08_10h17.14.639,CGTgamblingSpanTasks,2022.2.1,Win32,59.96641881,,,,,,,,,,,,,,,,,,,,,,,,,,,,,,,,,,,,,,,,,,,,,,,,,,,,,,,,,,,,,,,,,,,,,,,,,,,,,,,,,,,,,,,,,,,,,,,,,,,,,return,6.94,,,,,,,,,,,,,,,,,,,,,,,,,,,,,,,,,
,,5f29aa2ef40fa7112bcb2b80,2022-09-08_10h17.14.639,CGTgamblingSpanTasks,2022.2.1,Win32,59.96641881,,,,,,,,,,,,,,,,,,,,,,,,,,,,,,,,,,,,,,,,,,,,,,,,,,,,,,,,,,,,,,,,,,,,,,,,,,,,,,,,,,,,,,,,,,,,,,,,,,,,,,,return,24.8958,,,,,,,,,,,,,,,,,,,,,,,,,,,,,,,
,,5f29aa2ef40fa7112bcb2b80,2022-09-08_10h17.14.639,CGTgamblingSpanTasks,2022.2.1,Win32,59.96641881,,,,,,,,,,,,,,,,,,,,,,,,,,,,,,,,,,,,,,,,,,,,,,,,,,,,,,,,,,,,,,,1,,,,,,,,,,,,3,342,24,2,42,,,,,,,,,,,,,,,,,,,,,,,,,,42,-0.007407365,-0.400925954,1,0,0,cont_buttonPractice_2,0,0,0,0,1,,,,,,,,,,,,,,,,,,,
,,5f29aa2ef40fa7112bcb2b80,2022-09-08_10h17.14.639,CGTgamblingSpanTasks,2022.2.1,Win32,59.96641881,,,,,,,,,,,,,,,,,,,,,,,,,,,,,,,,,,,,,,,,,,,,,,,,,,,,,,,,,,,,,,,1,,,,,,,,,,,,3,937,73,2,37,,,,,,,,,,,,,,,,,,,,,,,,,,37,0.014814801,-0.397222236,1,0,0,cont_buttonPractice_2,0,1,1,1,1,,,,,,,,,,,,,,,,,,,
,,5f29aa2ef40fa7112bcb2b80,2022-09-08_10h17.14.639,CGTgamblingSpanTasks,2022.2.1,Win32,59.96641881,,,,,,,,,,,,,,,,,,,,,,,,,,,,,,,,,,,,,,,,,,,,,,,,,,,,,,,,,,,,,,,,,,,,,,,,,,,,,,,,,,,,,,,,,,,,,,,,,,,,,,,,,,,,,,,,,,,,,return,5.4898,,,,,,,,,,,,,,,,,
,,5f29aa2ef40fa7112bcb2b80,2022-09-08_10h17.14.639,CGTgamblingSpanTasks,2022.2.1,Win32,59.96641881,,,,,,,,,,,,,,,,,,,,,,,,,,,,,,,,,,,,,,,,,,,,,,,,,,,,,,,,,,,,,,,,,,,,,,,,,,,,,,,,,,"[4,9]",,,,,,,,,,,,,,,,,,,,,,,,,,,,,,,,,,,,,0,0,0,0,1,,,,,,,,,,,,
,,5f29aa2ef40fa7112bcb2b80,2022-09-08_10h17.14.639,CGTgamblingSpanTasks,2022.2.1,Win32,59.96641881,,,,,,,,,,,,,,,,,,,,,,,,,,,,,,,,,,,,,,,,,,,,,,,,,,,,,,,,,,,,,,,,,,,,,,,,,,,,,,,,,,"[4,9]",,,,,,,,,,,,,,,,,,,,,,,,,,,,,,,,,,,,,1,0,1,0,1,,,,,,,,,,,,
,,5f29aa2ef40fa7112bcb2b80,2022-09-08_10h17.14.639,CGTgamblingSpanTasks,2022.2.1,Win32,59.96641881,,,,,,,,,,,,,,,,,,,,,,,,,,,,,,,,,,,,,,,,,,,,,,,,,,,,,,,,,,,,,,,1,,,,,,,,,,,,,,,,,,,,,,,,,,,,,,,,,,,,,1,,,,,,,,,,,,,,,,,,,,,,,,94,0.055555556,-0.40370369,1,0,0,cont_buttonBS,0,0,0,0,1
,,5f29aa2ef40fa7112bcb2b80,2022-09-08_10h17.14.639,CGTgamblingSpanTasks,2022.2.1,Win32,59.96641881,,,,,,,,,,,,,,,,,,,,,,,,,,,,,,,,,,,,,,,,,,,,,,,,,,,,,,,,,,,,,,,,,,,,,,,,,,,,,,,,,,"[9,8,3]",,,,,,,,,,,,,,,,,,,,,,,,,,,,,,,,,,,,,0,0,0,0,1,,,,,,,,,,,,
,,5f29aa2ef40fa7112bcb2b80,2022-09-08_10h17.14.639,CGTgamblingSpanTasks,2022.2.1,Win32,59.96641881,,,,,,,,,,,,,,,,,,,,,,,,,,,,,,,,,,,,,,,,,,,,,,,,,,,,,,,,,,,,,,,,,,,,,,,,,,,,,,,,,,"[9,8,3]",,,,,,,,,,,,,,,,,,,,,,,,,,,,,,,,,,,,,1,0,1,0,1,,,,,,,,,,,,
,,5f29aa2ef40fa7112bcb2b80,2022-09-08_10h17.14.639,CGTgamblingSpanTasks,2022.2.1,Win32,59.96641881,,,,,,,,,,,,,,,,,,,,,,,,,,,,,,,,,,,,,,,,,,,,,,,,,,,,,,,,,,,,,,,,,,,,,,,,,,,,,,,,,,"[9,8,3]",,,,,,,,,,,,,,,,,,,,,,,,,,,,,,,,,,,,,2,0,2,0,1,,,,,,,,,,,,
,,5f29aa2ef40fa7112bcb2b80,2022-09-08_10h17.14.639,CGTgamblingSpanTasks,2022.2.1,Win32,59.96641881,,,,,,,,,,,,,,,,,,,,,,,,,,,,,,,,,,,,,,,,,,,,,,,,,,,,,,,,,,,,,,,1,,,,,,,,,,,,,,,,,,,,,,,,,,,,,,,,,,,,,2,,,,,,,,,,,,,,,,,,,,,,,,389,-0.012036995,-0.381481524,1,0,0,cont_buttonBS,0,1,1,1,1
,,5f29aa2ef40fa7112bcb2b80,2022-09-08_10h17.14.639,CGTgamblingSpanTasks,2022.2.1,Win32,59.96641881,,,,,,,,,,,,,,,,,,,,,,,,,,,,,,,,,,,,,,,,,,,,,,,,,,,,,,,,,,,,,,,,,,,,,,,,,,,,,,,,,,"[3,6,9,8]",,,,,,,,,,,,,,,,,,,,,,,,,,,,,,,,,,,,,0,0,0,0,1,,,,,,,,,,,,
,,5f29aa2ef40fa7112bcb2b80,2022-09-08_10h17.14.639,CGTgamblingSpanTasks,2022.2.1,Win32,59.96641881,,,,,,,,,,,,,,,,,,,,,,,,,,,,,,,,,,,,,,,,,,,,,,,,,,,,,,,,,,,,,,,,,,,,,,,,,,,,,,,,,,"[3,6,9,8]",,,,,,,,,,,,,,,,,,,,,,,,,,,,,,,,,,,,,1,0,1,0,1,,,,,,,,,,,,
,,5f29aa2ef40fa7112bcb2b80,2022-09-08_10h17.14.639,CGTgamblingSpanTasks,2022.2.1,Win32,59.96641881,,,,,,,,,,,,,,,,,,,,,,,,,,,,,,,,,,,,,,,,,,,,,,,,,,,,,,,,,,,,,,,,,,,,,,,,,,,,,,,,,,"[3,6,9,8]",,,,,,,,,,,,,,,,,,,,,,,,,,,,,,,,,,,,,2,0,2,0,1,,,,,,,,,,,,
,,5f29aa2ef40fa7112bcb2b80,2022-09-08_10h17.14.639,CGTgamblingSpanTasks,2022.2.1,Win32,59.96641881,,,,,,,,,,,,,,,,,,,,,,,,,,,,,,,,,,,,,,,,,,,,,,,,,,,,,,,,,,,,,,,,,,,,,,,,,,,,,,,,,,"[3,6,9,8]",,,,,,,,,,,,,,,,,,,,,,,,,,,,,,,,,,,,,3,0,3,0,1,,,,,,,,,,,,
,,5f29aa2ef40fa7112bcb2b80,2022-09-08_10h17.14.639,CGTgamblingSpanTasks,2022.2.1,Win32,59.96641881,,,,,,,,,,,,,,,,,,,,,,,,,,,,,,,,,,,,,,,,,,,,,,,,,,,,,,,,,,,,,,,0,,,,,,,,,,,,,,,,,,,,,,,,,,,,,,,,,,,,,3,,,,,,,,,,,,,,,,,,,,,,,,963,-0.027777778,-0.387962977,1,0,0,cont_buttonBS,0,2,2,2,1
,,5f29aa2ef40fa7112bcb2b80,2022-09-08_10h17.14.639,CGTgamblingSpanTasks,2022.2.1,Win32,59.96641881,,,,,,,,,,,,,,,,,,,,,,,,,,,,,,,,,,,,,,,,,,,,,,,,,,,,,,,,,,,,,,,,,,,,,,,,,,,,,,,,,,"[7,2,5,4]",,,,,,,,,,,,,,,,,,,,,,,,,,,,,,,,,,,,,0,0,0,0,1,,,,,,,,,,,,
,,5f29aa2ef40fa7112bcb2b80,2022-09-08_10h17.14.639,CGTgamblingSpanTasks,2022.2.1,Win32,59.96641881,,,,,,,,,,,,,,,,,,,,,,,,,,,,,,,,,,,,,,,,,,,,,,,,,,,,,,,,,,,,,,,,,,,,,,,,,,,,,,,,,,"[7,2,5,4]",,,,,,,,,,,,,,,,,,,,,,,,,,,,,,,,,,,,,1,0,1,0,1,,,,,,,,,,,,
,,5f29aa2ef40fa7112bcb2b80,2022-09-08_10h17.14.639,CGTgamblingSpanTasks,2022.2.1,Win32,59.96641881,,,,,,,,,,,,,,,,,,,,,,,,,,,,,,,,,,,,,,,,,,,,,,,,,,,,,,,,,,,,,,,,,,,,,,,,,,,,,,,,,,"[7,2,5,4]",,,,,,,,,,,,,,,,,,,,,,,,,,,,,,,,,,,,,2,0,2,0,1,,,,,,,,,,,,
,,5f29aa2ef40fa7112bcb2b80,2022-09-08_10h17.14.639,CGTgamblingSpanTasks,2022.2.1,Win32,59.96641881,,,,,,,,,,,,,,,,,,,,,,,,,,,,,,,,,,,,,,,,,,,,,,,,,,,,,,,,,,,,,,,,,,,,,,,,,,,,,,,,,,"[7,2,5,4]",,,,,,,,,,,,,,,,,,,,,,,,,,,,,,,,,,,,,3,0,3,0,1,,,,,,,,,,,,
,,5f29aa2ef40fa7112bcb2b80,2022-09-08_10h17.14.639,CGTgamblingSpanTasks,2022.2.1,Win32,59.96641881,,,,,,,,,,,,,,,,,,,,,,,,,,,,,,,,,,,,,,,,,,,,,,,,,,,,,,,,,,,,,,,1,,,,,,,,,,,,,,,,,,,,,,,,,,,,,,,,,,,,,4,,,,,,,,,,,,,,,,,,,,,,,,4527,-0.00462963,-0.408333319,1,0,0,cont_buttonBS,0,3,3,3,1
,,5f29aa2ef40fa7112bcb2b80,2022-09-08_10h17.14.639,CGTgamblingSpanTasks,2022.2.1,Win32,59.96641881,,,,,,,,,,,,,,,,,,,,,,,,,,,,,,,,,,,,,,,,,,,,,,,,,,,,,,,,,,,,,,,,,,,,,,,,,,,,,,,,,,"[7,6,2,3,8]",,,,,,,,,,,,,,,,,,,,,,,,,,,,,,,,,,,,,0,0,0,0,1,,,,,,,,,,,,
,,5f29aa2ef40fa7112bcb2b80,2022-09-08_10h17.14.639,CGTgamblingSpanTasks,2022.2.1,Win32,59.96641881,,,,,,,,,,,,,,,,,,,,,,,,,,,,,,,,,,,,,,,,,,,,,,,,,,,,,,,,,,,,,,,,,,,,,,,,,,,,,,,,,,"[7,6,2,3,8]",,,,,,,,,,,,,,,,,,,,,,,,,,,,,,,,,,,,,1,0,1,0,1,,,,,,,,,,,,
,,5f29aa2ef40fa7112bcb2b80,2022-09-08_10h17.14.639,CGTgamblingSpanTasks,2022.2.1,Win32,59.96641881,,,,,,,,,,,,,,,,,,,,,,,,,,,,,,,,,,,,,,,,,,,,,,,,,,,,,,,,,,,,,,,,,,,,,,,,,,,,,,,,,,"[7,6,2,3,8]",,,,,,,,,,,,,,,,,,,,,,,,,,,,,,,,,,,,,2,0,2,0,1,,,,,,,,,,,,
,,5f29aa2ef40fa7112bcb2b80,2022-09-08_10h17.14.639,CGTgamblingSpanTasks,2022.2.1,Win32,59.96641881,,,,,,,,,,,,,,,,,,,,,,,,,,,,,,,,,,,,,,,,,,,,,,,,,,,,,,,,,,,,,,,,,,,,,,,,,,,,,,,,,,"[7,6,2,3,8]",,,,,,,,,,,,,,,,,,,,,,,,,,,,,,,,,,,,,3,0,3,0,1,,,,,,,,,,,,
,,5f29aa2ef40fa7112bcb2b80,2022-09-08_10h17.14.639,CGTgamblingSpanTasks,2022.2.1,Win32,59.96641881,,,,,,,,,,,,,,,,,,,,,,,,,,,,,,,,,,,,,,,,,,,,,,,,,,,,,,,,,,,,,,,,,,,,,,,,,,,,,,,,,,"[7,6,2,3,8]",,,,,,,,,,,,,,,,,,,,,,,,,,,,,,,,,,,,,4,0,4,0,1,,,,,,,,,,,,
,,5f29aa2ef40fa7112bcb2b80,2022-09-08_10h17.14.639,CGTgamblingSpanTasks,2022.2.1,Win32,59.96641881,,,,,,,,,,,,,,,,,,,,,,,,,,,,,,,,,,,,,,,,,,,,,,,,,,,,,,,,,,,,,,,1,,,,,,,,,,,,,,,,,,,,,,,,,,,,,,,,,,,,,5,,,,,,,,,,,,,,,,,,,,,,,,83267,-0.04814812,-0.402777778,1,0,0,cont_buttonBS,0,4,4,4,1
,,5f29aa2ef40fa7112bcb2b80,2022-09-08_10h17.14.639,CGTgamblingSpanTasks,2022.2.1,Win32,59.96641881,,,,,,,,,,,,,,,,,,,,,,,,,,,,,,,,,,,,,,,,,,,,,,,,,,,,,,,,,,,,,,,,,,,,,,,,,,,,,,,,,,"[6,2,3,1,7,9]",,,,,,,,,,,,,,,,,,,,,,,,,,,,,,,,,,,,,0,0,0,0,1,,,,,,,,,,,,
,,5f29aa2ef40fa7112bcb2b80,2022-09-08_10h17.14.639,CGTgamblingSpanTasks,2022.2.1,Win32,59.96641881,,,,,,,,,,,,,,,,,,,,,,,,,,,,,,,,,,,,,,,,,,,,,,,,,,,,,,,,,,,,,,,,,,,,,,,,,,,,,,,,,,"[6,2,3,1,7,9]",,,,,,,,,,,,,,,,,,,,,,,,,,,,,,,,,,,,,1,0,1,0,1,,,,,,,,,,,,
,,5f29aa2ef40fa7112bcb2b80,2022-09-08_10h17.14.639,CGTgamblingSpanTasks,2022.2.1,Win32,59.96641881,,,,,,,,,,,,,,,,,,,,,,,,,,,,,,,,,,,,,,,,,,,,,,,,,,,,,,,,,,,,,,,,,,,,,,,,,,,,,,,,,,"[6,2,3,1,7,9]",,,,,,,,,,,,,,,,,,,,,,,,,,,,,,,,,,,,,2,0,2,0,1,,,,,,,,,,,,
,,5f29aa2ef40fa7112bcb2b80,2022-09-08_10h17.14.639,CGTgamblingSpanTasks,2022.2.1,Win32,59.96641881,,,,,,,,,,,,,,,,,,,,,,,,,,,,,,,,,,,,,,,,,,,,,,,,,,,,,,,,,,,,,,,,,,,,,,,,,,,,,,,,,,"[6,2,3,1,7,9]",,,,,,,,,,,,,,,,,,,,,,,,,,,,,,,,,,,,,3,0,3,0,1,,,,,,,,,,,,
,,5f29aa2ef40fa7112bcb2b80,2022-09-08_10h17.14.639,CGTgamblingSpanTasks,2022.2.1,Win32,59.96641881,,,,,,,,,,,,,,,,,,,,,,,,,,,,,,,,,,,,,,,,,,,,,,,,,,,,,,,,,,,,,,,,,,,,,,,,,,,,,,,,,,"[6,2,3,1,7,9]",,,,,,,,,,,,,,,,,,,,,,,,,,,,,,,,,,,,,4,0,4,0,1,,,,,,,,,,,,
,,5f29aa2ef40fa7112bcb2b80,2022-09-08_10h17.14.639,CGTgamblingSpanTasks,2022.2.1,Win32,59.96641881,,,,,,,,,,,,,,,,,,,,,,,,,,,,,,,,,,,,,,,,,,,,,,,,,,,,,,,,,,,,,,,,,,,,,,,,,,,,,,,,,,"[6,2,3,1,7,9]",,,,,,,,,,,,,,,,,,,,,,,,,,,,,,,,,,,,,5,0,5,0,1,,,,,,,,,,,,
,,5f29aa2ef40fa7112bcb2b80,2022-09-08_10h17.14.639,CGTgamblingSpanTasks,2022.2.1,Win32,59.96641881,,,,,,,,,,,,,,,,,,,,,,,,,,,,,,,,,,,,,,,,,,,,,,,,,,,,,,,,,,,,,,,1,,,,,,,,,,,,,,,,,,,,,,,,,,,,,,,,,,,,,6,,,,,,,,,,,,,,,,,,,,,,,,971326,-0.050000014,-0.395370413,1,0,0,cont_buttonBS,0,5,5,5,1
,,5f29aa2ef40fa7112bcb2b80,2022-09-08_10h17.14.639,CGTgamblingSpanTasks,2022.2.1,Win32,59.96641881,,,,,,,,,,,,,,,,,,,,,,,,,,,,,,,,,,,,,,,,,,,,,,,,,,,,,,,,,,,,,,,,,,,,,,,,,,,,,,,,,,"[8,6,1,4,2,5,3]",,,,,,,,,,,,,,,,,,,,,,,,,,,,,,,,,,,,,0,0,0,0,1,,,,,,,,,,,,
,,5f29aa2ef40fa7112bcb2b80,2022-09-08_10h17.14.639,CGTgamblingSpanTasks,2022.2.1,Win32,59.96641881,,,,,,,,,,,,,,,,,,,,,,,,,,,,,,,,,,,,,,,,,,,,,,,,,,,,,,,,,,,,,,,,,,,,,,,,,,,,,,,,,,"[8,6,1,4,2,5,3]",,,,,,,,,,,,,,,,,,,,,,,,,,,,,,,,,,,,,1,0,1,0,1,,,,,,,,,,,,
,,5f29aa2ef40fa7112bcb2b80,2022-09-08_10h17.14.639,CGTgamblingSpanTasks,2022.2.1,Win32,59.96641881,,,,,,,,,,,,,,,,,,,,,,,,,,,,,,,,,,,,,,,,,,,,,,,,,,,,,,,,,,,,,,,,,,,,,,,,,,,,,,,,,,"[8,6,1,4,2,5,3]",,,,,,,,,,,,,,,,,,,,,,,,,,,,,,,,,,,,,2,0,2,0,1,,,,,,,,,,,,
,,5f29aa2ef40fa7112bcb2b80,2022-09-08_10h17.14.639,CGTgamblingSpanTasks,2022.2.1,Win32,59.96641881,,,,,,,,,,,,,,,,,,,,,,,,,,,,,,,,,,,,,,,,,,,,,,,,,,,,,,,,,,,,,,,,,,,,,,,,,,,,,,,,,,"[8,6,1,4,2,5,3]",,,,,,,,,,,,,,,,,,,,,,,,,,,,,,,,,,,,,3,0,3,0,1,,,,,,,,,,,,
,,5f29aa2ef40fa7112bcb2b80,2022-09-08_10h17.14.639,CGTgamblingSpanTasks,2022.2.1,Win32,59.96641881,,,,,,,,,,,,,,,,,,,,,,,,,,,,,,,,,,,,,,,,,,,,,,,,,,,,,,,,,,,,,,,,,,,,,,,,,,,,,,,,,,"[8,6,1,4,2,5,3]",,,,,,,,,,,,,,,,,,,,,,,,,,,,,,,,,,,,,4,0,4,0,1,,,,,,,,,,,,
,,5f29aa2ef40fa7112bcb2b80,2022-09-08_10h17.14.639,CGTgamblingSpanTasks,2022.2.1,Win32,59.96641881,,,,,,,,,,,,,,,,,,,,,,,,,,,,,,,,,,,,,,,,,,,,,,,,,,,,,,,,,,,,,,,,,,,,,,,,,,,,,,,,,,"[8,6,1,4,2,5,3]",,,,,,,,,,,,,,,,,,,,,,,,,,,,,,,,,,,,,5,0,5,0,1,,,,,,,,,,,,
,,5f29aa2ef40fa7112bcb2b80,2022-09-08_10h17.14.639,CGTgamblingSpanTasks,2022.2.1,Win32,59.96641881,,,,,,,,,,,,,,,,,,,,,,,,,,,,,,,,,,,,,,,,,,,,,,,,,,,,,,,,,,,,,,,,,,,,,,,,,,,,,,,,,,"[8,6,1,4,2,5,3]",,,,,,,,,,,,,,,,,,,,,,,,,,,,,,,,,,,,,6,0,6,0,1,,,,,,,,,,,,
,,5f29aa2ef40fa7112bcb2b80,2022-09-08_10h17.14.639,CGTgamblingSpanTasks,2022.2.1,Win32,59.96641881,,,,,,,,,,,,,,,,,,,,,,,,,,,,,,,,,,,,,,,,,,,,,,,,,,,,,,,,,,,,,,,1,,,,,,,,,,,,,,,,,,,,,,,,,,,,,,,,,,,,,7,,,,,,,,,,,,,,,,,,,,,,,,3524168,0.011111153,-0.408333319,1,0,0,cont_buttonBS,0,6,6,6,1
,,5f29aa2ef40fa7112bcb2b80,2022-09-08_10h17.14.639,CGTgamblingSpanTasks,2022.2.1,Win32,59.96641881,,,,,,,,,,,,,,,,,,,,,,,,,,,,,,,,,,,,,,,,,,,,,,,,,,,,,,,,,,,,,,,,,,,,,,,,,,,,,,,,,,"[2,4,6,8,3,9,7,5]",,,,,,,,,,,,,,,,,,,,,,,,,,,,,,,,,,,,,0,0,0,0,1,,,,,,,,,,,,
,,5f29aa2ef40fa7112bcb2b80,2022-09-08_10h17.14.639,CGTgamblingSpanTasks,2022.2.1,Win32,59.96641881,,,,,,,,,,,,,,,,,,,,,,,,,,,,,,,,,,,,,,,,,,,,,,,,,,,,,,,,,,,,,,,,,,,,,,,,,,,,,,,,,,"[2,4,6,8,3,9,7,5]",,,,,,,,,,,,,,,,,,,,,,,,,,,,,,,,,,,,,1,0,1,0,1,,,,,,,,,,,,
,,5f29aa2ef40fa7112bcb2b80,2022-09-08_10h17.14.639,CGTgamblingSpanTasks,2022.2.1,Win32,59.96641881,,,,,,,,,,,,,,,,,,,,,,,,,,,,,,,,,,,,,,,,,,,,,,,,,,,,,,,,,,,,,,,,,,,,,,,,,,,,,,,,,,"[2,4,6,8,3,9,7,5]",,,,,,,,,,,,,,,,,,,,,,,,,,,,,,,,,,,,,2,0,2,0,1,,,,,,,,,,,,
,,5f29aa2ef40fa7112bcb2b80,2022-09-08_10h17.14.639,CGTgamblingSpanTasks,2022.2.1,Win32,59.96641881,,,,,,,,,,,,,,,,,,,,,,,,,,,,,,,,,,,,,,,,,,,,,,,,,,,,,,,,,,,,,,,,,,,,,,,,,,,,,,,,,,"[2,4,6,8,3,9,7,5]",,,,,,,,,,,,,,,,,,,,,,,,,,,,,,,,,,,,,3,0,3,0,1,,,,,,,,,,,,
,,5f29aa2ef40fa7112bcb2b80,2022-09-08_10h17.14.639,CGTgamblingSpanTasks,2022.2.1,Win32,59.96641881,,,,,,,,,,,,,,,,,,,,,,,,,,,,,,,,,,,,,,,,,,,,,,,,,,,,,,,,,,,,,,,,,,,,,,,,,,,,,,,,,,"[2,4,6,8,3,9,7,5]",,,,,,,,,,,,,,,,,,,,,,,,,,,,,,,,,,,,,4,0,4,0,1,,,,,,,,,,,,
,,5f29aa2ef40fa7112bcb2b80,2022-09-08_10h17.14.639,CGTgamblingSpanTasks,2022.2.1,Win32,59.96641881,,,,,,,,,,,,,,,,,,,,,,,,,,,,,,,,,,,,,,,,,,,,,,,,,,,,,,,,,,,,,,,,,,,,,,,,,,,,,,,,,,"[2,4,6,8,3,9,7,5]",,,,,,,,,,,,,,,,,,,,,,,,,,,,,,,,,,,,,5,0,5,0,1,,,,,,,,,,,,
