initITIstatic,initITIdynamic,participant,date,expName,psychopyVersion,OS,frameRate,inst1.keys,inst1.rt,startPracResp.keys,startPracResp.rt,choice1.keys,outcome,extraITI,trials.thisRepN,trials.thisTrialN,trials.thisN,trials.thisIndex,trials.ran,riskyGain,riskyLoss,alternative,isi,iti,loc,choice1.rt,postPractResp.keys,postPractResp.rt,realloc,realChoice.keys,realChoice.rt,outcomes,choices,actualITI,init ITI,staticRDM.thisRepN,staticRDM.thisTrialN,staticRDM.thisN,staticRDM.thisIndex,staticRDM.ran,riskyoption1,riskyoption2,safeoption,ischecktrial,dynamicChoiceSetName,dynamicChoiceSetPath,bestRho,bestMu,trials_2.thisRepN,trials_2.thisTrialN,trials_2.thisN,trials_2.thisIndex,trials_2.ran,key_resp.keys,key_resp.rt,dynamicRDM.thisRepN,dynamicRDM.thisTrialN,dynamicRDM.thisN,dynamicRDM.thisIndex,dynamicRDM.ran,choiceP,easy0difficult1,stopBreak.keys,stopBreak.rt,movealong.keys,movealong.rt,startPractice.keys,startPractice.rt,textboxPractice.text,correct,mousePractice.x,mousePractice.y,mousePractice.leftButton,mousePractice.midButton,mousePractice.rightButton,mousePractice.clicked_name,trialFSPractice.thisRepN,trialFSPractice.thisTrialN,trialFSPractice.thisN,trialFSPractice.thisIndex,trialFSPractice.ran,digitSpanForward,digits,digitsReverse,digitSpanReverse,digitsReverseCorrAnswer,startFSreal.keys,startFSreal.rt,digitsForTrial,digitLoop.thisRepN,digitLoop.thisTrialN,digitLoop.thisN,digitLoop.thisIndex,digitLoop.ran,textbox.text,mouse_3.x,mouse_3.y,mouse_3.leftButton,mouse_3.midButton,mouse_3.rightButton,mouse_3.clicked_name,trialsFS.thisRepN,trialsFS.thisTrialN,trialsFS.thisN,trialsFS.thisIndex,trialsFS.ran,trialNumber,moveToBS.keys,moveToBS.rt,startBSprac.keys,startBSprac.rt,textboxPractice_2.text,mousePractice_2.x,mousePractice_2.y,mousePractice_2.leftButton,mousePractice_2.midButton,mousePractice_2.rightButton,mousePractice_2.clicked_name,trialsPracticeBS.thisRepN,trialsPracticeBS.thisTrialN,trialsPracticeBS.thisN,trialsPracticeBS.thisIndex,trialsPracticeBS.ran,startBSreal.keys,startBSreal.rt,digitLoopBS.thisRepN,digitLoopBS.thisTrialN,digitLoopBS.thisN,digitLoopBS.thisIndex,digitLoopBS.ran,textboxBS.text,mouseBS.x,mouseBS.y,mouseBS.leftButton,mouseBS.midButton,mouseBS.rightButton,mouseBS.clicked_name,trialsBS.thisRepN,trialsBS.thisTrialN,trialsBS.thisN,trialsBS.thisIndex,trialsBS.ran
"[1.5,1,1,1,1,1,1.5,1,1.5,1.5,1.5,1.5,1.5,1,1.5,1.5,1.5,1.5,1,1,1,1.5,1.5,1,1.5,1.5,1,1,1,1.5,1.5,1.5,1,1.5,1,1,1,1,1.5,1,1,1,1.5,1,1,1.5,1.5,1,1.5,1.5]","[1.5,1.5,1.5,1.5,1.5,1,1.5,1,1.5,1.5,1,1.5,1,1,1,1,1,1.5,1,1,1,1.5,1.5,1.5,1.5,1.5,1.5,1.5,1,1.5,1,1,1.5,1.5,1.5,1,1.5,1,1,1.5,1,1.5,1.5,1.5,1.5,1.5,1.5,1,1.5,1.5,1,1.5,1.5,1,1,1,1.5,1,1,1.5,1,1.5,1.5,1,1,1,1,1.5,1,1,1.5,1,1.5,1,1,1,1,1,1,1.5,1,1,1,1,1.5,1,1,1,1.5,1.5,1.5,1.5,1.5,1.5,1,1.5,1,1,1.5,1,1,1.5,1,1,1.5,1,1.5,1,1,1,1,1.5,1,1.5,1.5,1,1.5,1.5,1.5,1.5]",6312ada1ce715ee3916c3748,2022-09-08_14h18.19.034,CGTgamblingSpanTasks,2022.2.1,Linux armv8l,59.62318149,,,,,,,,,,,,,,,,,,,,,,,,,,,,,,,,,,,,,,,,,,,,,,,,,,,,,,,,,,,,,,,,,,,,,,,,,,,,,,,,,,,,,,,,,,,,,,,,,,,,,,,,,,,,,,,,,,,,,,,,,,,,,,,,,,,,,,,
,,6312ada1ce715ee3916c3748,2022-09-08_14h18.19.034,CGTgamblingSpanTasks,2022.2.1,Linux armv8l,59.62318149,return,2.9437,,,,,,,,,,,,,,,,,,,,,,,,,,,,,,,,,,,,,,,,,,,,,,,,,,,,,,,,,,,,,,,,,,,,,,,,,,,,,,,,,,,,,,,,,,,,,,,,,,,,,,,,,,,,,,,,,,,,,,,,,,,,,,,,,,,,,
,,6312ada1ce715ee3916c3748,2022-09-08_14h18.19.034,CGTgamblingSpanTasks,2022.2.1,Linux armv8l,59.62318149,,,v,7.8461,,,,,,,,,,,,,,,,,,,,,,,,,,,,,,,,,,,,,,,,,,,,,,,,,,,,,,,,,,,,,,,,,,,,,,,,,,,,,,,,,,,,,,,,,,,,,,,,,,,,,,,,,,,,,,,,,,,,,,,,,,,,,,,,,,,
,,6312ada1ce715ee3916c3748,2022-09-08_14h18.19.034,CGTgamblingSpanTasks,2022.2.1,Linux armv8l,59.62318149,,,,,, ,0,0,0,0,0,1,18.23,0,9.45,2,1,1,,,,,,,,,,,,,,,,,,,,,,,,,,,,,,,,,,,,,,,,,,,,,,,,,,,,,,,,,,,,,,,,,,,,,,,,,,,,,,,,,,,,,,,,,,,,,,,,,,,,,,,,,,,,,,,,,,,,,
,,6312ada1ce715ee3916c3748,2022-09-08_14h18.19.034,CGTgamblingSpanTasks,2022.2.1,Linux armv8l,59.62318149,,,,,n,35.16,1.3165,0,1,1,1,1,53.27,0,35.16,1,1.5,1,2.6835,,,,,,,,,,,,,,,,,,,,,,,,,,,,,,,,,,,,,,,,,,,,,,,,,,,,,,,,,,,,,,,,,,,,,,,,,,,,,,,,,,,,,,,,,,,,,,,,,,,,,,,,,,,,,,,,,,,,
,,6312ada1ce715ee3916c3748,2022-09-08_14h18.19.034,CGTgamblingSpanTasks,2022.2.1,Linux armv8l,59.62318149,,,,,n,0,2.2703,0,2,2,2,1,8.27,0,1.15,1,1.5,2,1.7297,,,,,,,,,,,,,,,,,,,,,,,,,,,,,,,,,,,,,,,,,,,,,,,,,,,,,,,,,,,,,,,,,,,,,,,,,,,,,,,,,,,,,,,,,,,,,,,,,,,,,,,,,,,,,,,,,,,,
,,6312ada1ce715ee3916c3748,2022-09-08_14h18.19.034,CGTgamblingSpanTasks,2022.2.1,Linux armv8l,59.62318149,,,,,n,40.41,2.7763,0,3,3,3,1,45.88,0,40.41,3,1,1,1.2237,,,,,,,,,,,,,,,,,,,,,,,,,,,,,,,,,,,,,,,,,,,,,,,,,,,,,,,,,,,,,,,,,,,,,,,,,,,,,,,,,,,,,,,,,,,,,,,,,,,,,,,,,,,,,,,,,,,,
,,6312ada1ce715ee3916c3748,2022-09-08_14h18.19.034,CGTgamblingSpanTasks,2022.2.1,Linux armv8l,59.62318149,,,,,v,11.96,2.1813,0,4,4,4,1,21.56,0,11.96,1,1.5,2,1.8187,,,,,,,,,,,,,,,,,,,,,,,,,,,,,,,,,,,,,,,,,,,,,,,,,,,,,,,,,,,,,,,,,,,,,,,,,,,,,,,,,,,,,,,,,,,,,,,,,,,,,,,,,,,,,,,,,,,,
,,6312ada1ce715ee3916c3748,2022-09-08_14h18.19.034,CGTgamblingSpanTasks,2022.2.1,Linux armv8l,59.62318149,,,,,,,,,,,,,,,,,,,,n,3.8322,,,,,,,,,,,,,,,,,,,,,,,,,,,,,,,,,,,,,,,,,,,,,,,,,,,,,,,,,,,,,,,,,,,,,,,,,,,,,,,,,,,,,,,,,,,,,,,,,,,,,,,,,,,,,,,,,,
,,6312ada1ce715ee3916c3748,2022-09-08_14h18.19.034,CGTgamblingSpanTasks,2022.2.1,Linux armv8l,59.62318149,,,,,,,2.941,,,,,,,,,,,,,,,1,n,1.059,7.55,0,4.441,1.5,0,0,0,45,1,0,0,7.55,1,,,,,,,,,,,,,,,,,,,,,,,,,,,,,,,,,,,,,,,,,,,,,,,,,,,,,,,,,,,,,,,,,,,,,,,,,,,,,,,,,,,,,,,,,,,,,,,,,,
,,6312ada1ce715ee3916c3748,2022-09-08_14h18.19.034,CGTgamblingSpanTasks,2022.2.1,Linux armv8l,59.62318149,,,,,,,2.7644,,,,,,,,,,,,,,,1,v,1.2356,25.2,1,3.7644,1,0,1,1,3,1,25.2,0,5.4,0,,,,,,,,,,,,,,,,,,,,,,,,,,,,,,,,,,,,,,,,,,,,,,,,,,,,,,,,,,,,,,,,,,,,,,,,,,,,,,,,,,,,,,,,,,,,,,,,,,
,,6312ada1ce715ee3916c3748,2022-09-08_14h18.19.034,CGTgamblingSpanTasks,2022.2.1,Linux armv8l,59.62318149,,,,,,,2.5453,,,,,,,,,,,,,,,1,v,1.4547,0,1,3.5453,1,0,2,2,0,1,20.03,0,1.99,0,,,,,,,,,,,,,,,,,,,,,,,,,,,,,,,,,,,,,,,,,,,,,,,,,,,,,,,,,,,,,,,,,,,,,,,,,,,,,,,,,,,,,,,,,,,,,,,,,,
,,6312ada1ce715ee3916c3748,2022-09-08_14h18.19.034,CGTgamblingSpanTasks,2022.2.1,Linux armv8l,59.62318149,,,,,,,2.4617,,,,,,,,,,,,,,,2,v,1.5383,8.36,0,3.4617,1,0,3,3,13,1,19.28,0,8.36,0,,,,,,,,,,,,,,,,,,,,,,,,,,,,,,,,,,,,,,,,,,,,,,,,,,,,,,,,,,,,,,,,,,,,,,,,,,,,,,,,,,,,,,,,,,,,,,,,,,
,,6312ada1ce715ee3916c3748,2022-09-08_14h18.19.034,CGTgamblingSpanTasks,2022.2.1,Linux armv8l,59.62318149,,,,,,,2.5016,,,,,,,,,,,,,,,2,v,1.4984,10.27,0,3.5016,1,0,4,4,35,1,15.47,0,10.27,0,,,,,,,,,,,,,,,,,,,,,,,,,,,,,,,,,,,,,,,,,,,,,,,,,,,,,,,,,,,,,,,,,,,,,,,,,,,,,,,,,,,,,,,,,,,,,,,,,,
,,6312ada1ce715ee3916c3748,2022-09-08_14h18.19.034,CGTgamblingSpanTasks,2022.2.1,Linux armv8l,59.62318149,,,,,,,2.5147,,,,,,,,,,,,,,,2,n,1.4853,0,1,3.5147,1,0,5,5,32,1,10.55,0,6.73,0,,,,,,,,,,,,,,,,,,,,,,,,,,,,,,,,,,,,,,,,,,,,,,,,,,,,,,,,,,,,,,,,,,,,,,,,,,,,,,,,,,,,,,,,,,,,,,,,,,
,,6312ada1ce715ee3916c3748,2022-09-08_14h18.19.034,CGTgamblingSpanTasks,2022.2.1,Linux armv8l,59.62318149,,,,,,,2.6527,,,,,,,,,,,,,,,2,n,1.3473,17.94,1,4.1527,1.5,0,6,6,19,1,17.94,0,9.03,0,,,,,,,,,,,,,,,,,,,,,,,,,,,,,,,,,,,,,,,,,,,,,,,,,,,,,,,,,,,,,,,,,,,,,,,,,,,,,,,,,,,,,,,,,,,,,,,,,,
,,6312ada1ce715ee3916c3748,2022-09-08_14h18.19.034,CGTgamblingSpanTasks,2022.2.1,Linux armv8l,59.62318149,,,,,,,2.6746,,,,,,,,,,,,,,,2,n,1.3254,16,1,3.6746,1,0,7,7,4,1,16,0,4,0,,,,,,,,,,,,,,,,,,,,,,,,,,,,,,,,,,,,,,,,,,,,,,,,,,,,,,,,,,,,,,,,,,,,,,,,,,,,,,,,,,,,,,,,,,,,,,,,,,
,,6312ada1ce715ee3916c3748,2022-09-08_14h18.19.034,CGTgamblingSpanTasks,2022.2.1,Linux armv8l,59.62318149,,,,,,,2.5879,,,,,,,,,,,,,,,1,n,1.4121,7.34,0,4.0879,1.5,0,8,8,7,1,21.32,0,7.34,0,,,,,,,,,,,,,,,,,,,,,,,,,,,,,,,,,,,,,,,,,,,,,,,,,,,,,,,,,,,,,,,,,,,,,,,,,,,,,,,,,,,,,,,,,,,,,,,,,,
,,6312ada1ce715ee3916c3748,2022-09-08_14h18.19.034,CGTgamblingSpanTasks,2022.2.1,Linux armv8l,59.62318149,,,,,,,2.5721,,,,,,,,,,,,,,,1,n,1.4279,10.68,0,4.0721,1.5,0,9,9,48,1,10.68,0,10.68,1,,,,,,,,,,,,,,,,,,,,,,,,,,,,,,,,,,,,,,,,,,,,,,,,,,,,,,,,,,,,,,,,,,,,,,,,,,,,,,,,,,,,,,,,,,,,,,,,,,
,,6312ada1ce715ee3916c3748,2022-09-08_14h18.19.034,CGTgamblingSpanTasks,2022.2.1,Linux armv8l,59.62318149,,,,,,,2.7036,,,,,,,,,,,,,,,1,n,1.2964,6.29,0,4.2036,1.5,0,10,10,24,1,11.43,0,6.29,0,,,,,,,,,,,,,,,,,,,,,,,,,,,,,,,,,,,,,,,,,,,,,,,,,,,,,,,,,,,,,,,,,,,,,,,,,,,,,,,,,,,,,,,,,,,,,,,,,,
,,6312ada1ce715ee3916c3748,2022-09-08_14h18.19.034,CGTgamblingSpanTasks,2022.2.1,Linux armv8l,59.62318149,,,,,,,2.9803,,,,,,,,,,,,,,,2,n,1.0197,0,1,4.4803,1.5,0,11,11,40,1,10.35,0,0,1,,,,,,,,,,,,,,,,,,,,,,,,,,,,,,,,,,,,,,,,,,,,,,,,,,,,,,,,,,,,,,,,,,,,,,,,,,,,,,,,,,,,,,,,,,,,,,,,,,
,,6312ada1ce715ee3916c3748,2022-09-08_14h18.19.034,CGTgamblingSpanTasks,2022.2.1,Linux armv8l,59.62318149,,,,,,,2.7637,,,,,,,,,,,,,,,1,n,1.2363,6.4,0,4.2637,1.5,0,12,12,26,1,11.2,0,6.4,0,,,,,,,,,,,,,,,,,,,,,,,,,,,,,,,,,,,,,,,,,,,,,,,,,,,,,,,,,,,,,,,,,,,,,,,,,,,,,,,,,,,,,,,,,,,,,,,,,,
,,6312ada1ce715ee3916c3748,2022-09-08_14h18.19.034,CGTgamblingSpanTasks,2022.2.1,Linux armv8l,59.62318149,,,,,,,2.9044,,,,,,,,,,,,,,,2,n,1.0956,0,1,3.9044,1,0,13,13,28,1,10.95,0,6.53,0,,,,,,,,,,,,,,,,,,,,,,,,,,,,,,,,,,,,,,,,,,,,,,,,,,,,,,,,,,,,,,,,,,,,,,,,,,,,,,,,,,,,,,,,,,,,,,,,,,
,,6312ada1ce715ee3916c3748,2022-09-08_14h18.19.034,CGTgamblingSpanTasks,2022.2.1,Linux armv8l,59.62318149,,,,,,,2.8496,,,,,,,,,,,,,,,1,v,1.1504,22.97,1,4.3496,1.5,0,14,14,5,1,22.97,0,6.51,0,,,,,,,,,,,,,,,,,,,,,,,,,,,,,,,,,,,,,,,,,,,,,,,,,,,,,,,,,,,,,,,,,,,,,,,,,,,,,,,,,,,,,,,,,,,,,,,,,,
,,6312ada1ce715ee3916c3748,2022-09-08_14h18.19.034,CGTgamblingSpanTasks,2022.2.1,Linux armv8l,59.62318149,,,,,,,3.0143,,,,,,,,,,,,,,,1,n,0.9857,9.2,0,4.5143,1.5,0,15,15,21,1,17.59,0,9.2,0,,,,,,,,,,,,,,,,,,,,,,,,,,,,,,,,,,,,,,,,,,,,,,,,,,,,,,,,,,,,,,,,,,,,,,,,,,,,,,,,,,,,,,,,,,,,,,,,,,
,,6312ada1ce715ee3916c3748,2022-09-08_14h18.19.034,CGTgamblingSpanTasks,2022.2.1,Linux armv8l,59.62318149,,,,,,,2.7491,,,,,,,,,,,,,,,2,v,1.2509,5.82,0,4.2491,1.5,0,16,16,16,1,12.36,0,5.82,0,,,,,,,,,,,,,,,,,,,,,,,,,,,,,,,,,,,,,,,,,,,,,,,,,,,,,,,,,,,,,,,,,,,,,,,,,,,,,,,,,,,,,,,,,,,,,,,,,,
,,6312ada1ce715ee3916c3748,2022-09-08_14h18.19.034,CGTgamblingSpanTasks,2022.2.1,Linux armv8l,59.62318149,,,,,,,3.0239,,,,,,,,,,,,,,,2,n,0.9761,7.73,1,4.5239,1.5,0,17,17,44,1,13.1,7.73,4.68,1,,,,,,,,,,,,,,,,,,,,,,,,,,,,,,,,,,,,,,,,,,,,,,,,,,,,,,,,,,,,,,,,,,,,,,,,,,,,,,,,,,,,,,,,,,,,,,,,,,
,,6312ada1ce715ee3916c3748,2022-09-08_14h18.19.034,CGTgamblingSpanTasks,2022.2.1,Linux armv8l,59.62318149,,,,,,,2.8086,,,,,,,,,,,,,,,1,v,1.1914,6.99,1,3.8086,1,0,18,18,43,1,16.11,6.99,6.99,1,,,,,,,,,,,,,,,,,,,,,,,,,,,,,,,,,,,,,,,,,,,,,,,,,,,,,,,,,,,,,,,,,,,,,,,,,,,,,,,,,,,,,,,,,,,,,,,,,,
,,6312ada1ce715ee3916c3748,2022-09-08_14h18.19.034,CGTgamblingSpanTasks,2022.2.1,Linux armv8l,59.62318149,,,,,,,2.6896,,,,,,,,,,,,,,,1,v,1.3104,0,1,3.6896,1,0,19,19,14,1,12.68,0,5.66,0,,,,,,,,,,,,,,,,,,,,,,,,,,,,,,,,,,,,,,,,,,,,,,,,,,,,,,,,,,,,,,,,,,,,,,,,,,,,,,,,,,,,,,,,,,,,,,,,,,
,,6312ada1ce715ee3916c3748,2022-09-08_14h18.19.034,CGTgamblingSpanTasks,2022.2.1,Linux armv8l,59.62318149,,,,,,,2.9435,,,,,,,,,,,,,,,2,n,1.0565,0,1,3.9435,1,0,20,20,2,1,17.73,0,3.13,0,,,,,,,,,,,,,,,,,,,,,,,,,,,,,,,,,,,,,,,,,,,,,,,,,,,,,,,,,,,,,,,,,,,,,,,,,,,,,,,,,,,,,,,,,,,,,,,,,,
,,6312ada1ce715ee3916c3748,2022-09-08_14h18.19.034,CGTgamblingSpanTasks,2022.2.1,Linux armv8l,59.62318149,,,,,,,2.6297,,,,,,,,,,,,,,,2,v,1.3703,6.08,0,4.1297,1.5,0,21,21,20,1,11.84,0,6.08,0,,,,,,,,,,,,,,,,,,,,,,,,,,,,,,,,,,,,,,,,,,,,,,,,,,,,,,,,,,,,,,,,,,,,,,,,,,,,,,,,,,,,,,,,,,,,,,,,,,
,,6312ada1ce715ee3916c3748,2022-09-08_14h18.19.034,CGTgamblingSpanTasks,2022.2.1,Linux armv8l,59.62318149,,,,,,,2.9015,,,,,,,,,,,,,,,2,n,1.0985,20.53,1,4.4015,1.5,0,22,22,9,1,20.53,0,7.73,0,,,,,,,,,,,,,,,,,,,,,,,,,,,,,,,,,,,,,,,,,,,,,,,,,,,,,,,,,,,,,,,,,,,,,,,,,,,,,,,,,,,,,,,,,,,,,,,,,,
,,6312ada1ce715ee3916c3748,2022-09-08_14h18.19.034,CGTgamblingSpanTasks,2022.2.1,Linux armv8l,59.62318149,,,,,,,2.8446,,,,,,,,,,,,,,,1,n,1.1554,5.48,0,3.8446,1,0,23,23,12,1,13.04,0,5.48,0,,,,,,,,,,,,,,,,,,,,,,,,,,,,,,,,,,,,,,,,,,,,,,,,,,,,,,,,,,,,,,,,,,,,,,,,,,,,,,,,,,,,,,,,,,,,,,,,,,
,,6312ada1ce715ee3916c3748,2022-09-08_14h18.19.034,CGTgamblingSpanTasks,2022.2.1,Linux armv8l,59.62318149,,,,,,,2.731,,,,,,,,,,,,,,,1,v,1.269,0,1,4.231,1.5,0,24,24,39,1,15.09,0,10.46,0,,,,,,,,,,,,,,,,,,,,,,,,,,,,,,,,,,,,,,,,,,,,,,,,,,,,,,,,,,,,,,,,,,,,,,,,,,,,,,,,,,,,,,,,,,,,,,,,,,
,,6312ada1ce715ee3916c3748,2022-09-08_14h18.19.034,CGTgamblingSpanTasks,2022.2.1,Linux armv8l,59.62318149,,,,,,,2.8714,,,,,,,,,,,,,,,2,n,1.1286,0,1,4.3714,1.5,0,25,25,17,1,18.33,0,8.84,0,,,,,,,,,,,,,,,,,,,,,,,,,,,,,,,,,,,,,,,,,,,,,,,,,,,,,,,,,,,,,,,,,,,,,,,,,,,,,,,,,,,,,,,,,,,,,,,,,,
,,6312ada1ce715ee3916c3748,2022-09-08_14h18.19.034,CGTgamblingSpanTasks,2022.2.1,Linux armv8l,59.62318149,,,,,,,3.1074,,,,,,,,,,,,,,,1,v,0.8926,19.86,1,4.1074,1,0,26,26,42,1,19.86,0,0,1,,,,,,,,,,,,,,,,,,,,,,,,,,,,,,,,,,,,,,,,,,,,,,,,,,,,,,,,,,,,,,,,,,,,,,,,,,,,,,,,,,,,,,,,,,,,,,,,,,
,,6312ada1ce715ee3916c3748,2022-09-08_14h18.19.034,CGTgamblingSpanTasks,2022.2.1,Linux armv8l,59.62318149,,,,,,,2.9767,,,,,,,,,,,,,,,2,n,1.0233,14.26,1,3.9767,1,0,27,27,41,1,14.26,0,0,1,,,,,,,,,,,,,,,,,,,,,,,,,,,,,,,,,,,,,,,,,,,,,,,,,,,,,,,,,,,,,,,,,,,,,,,,,,,,,,,,,,,,,,,,,,,,,,,,,,
,,6312ada1ce715ee3916c3748,2022-09-08_14h18.19.034,CGTgamblingSpanTasks,2022.2.1,Linux armv8l,59.62318149,,,,,,,2.5812,,,,,,,,,,,,,,,1,n,1.4188,6.19,0,3.5812,1,0,28,28,22,1,11.62,0,6.19,0,,,,,,,,,,,,,,,,,,,,,,,,,,,,,,,,,,,,,,,,,,,,,,,,,,,,,,,,,,,,,,,,,,,,,,,,,,,,,,,,,,,,,,,,,,,,,,,,,,
,,6312ada1ce715ee3916c3748,2022-09-08_14h18.19.034,CGTgamblingSpanTasks,2022.2.1,Linux armv8l,59.62318149,,,,,,,2.8997,,,,,,,,,,,,,,,1,n,1.1003,10.15,0,4.3997,1.5,0,29,29,33,1,15.7,0,10.15,0,,,,,,,,,,,,,,,,,,,,,,,,,,,,,,,,,,,,,,,,,,,,,,,,,,,,,,,,,,,,,,,,,,,,,,,,,,,,,,,,,,,,,,,,,,,,,,,,,,
,,6312ada1ce715ee3916c3748,2022-09-08_14h18.19.034,CGTgamblingSpanTasks,2022.2.1,Linux armv8l,59.62318149,,,,,,,2.2937,,,,,,,,,,,,,,,2,v,1.7063,8.07,0,3.7937,1.5,0,30,30,11,1,19.86,0,8.07,0,,,,,,,,,,,,,,,,,,,,,,,,,,,,,,,,,,,,,,,,,,,,,,,,,,,,,,,,,,,,,,,,,,,,,,,,,,,,,,,,,,,,,,,,,,,,,,,,,,
,,6312ada1ce715ee3916c3748,2022-09-08_14h18.19.034,CGTgamblingSpanTasks,2022.2.1,Linux armv8l,59.62318149,,,,,,,1.83,,,,,,,,,,,,,,,1,n,2.17,9.36,0,3.33,1.5,0,31,31,23,1,17.28,0,9.36,0,,,,,,,,,,,,,,,,,,,,,,,,,,,,,,,,,,,,,,,,,,,,,,,,,,,,,,,,,,,,,,,,,,,,,,,,,,,,,,,,,,,,,,,,,,,,,,,,,,
,,6312ada1ce715ee3916c3748,2022-09-08_14h18.19.034,CGTgamblingSpanTasks,2022.2.1,Linux armv8l,59.62318149,,,,,,,2.5797,,,,,,,,,,,,,,,1,n,1.4203,6.88,0,3.5797,1,0,32,32,36,1,10.24,0,6.88,0,,,,,,,,,,,,,,,,,,,,,,,,,,,,,,,,,,,,,,,,,,,,,,,,,,,,,,,,,,,,,,,,,,,,,,,,,,,,,,,,,,,,,,,,,,,,,,,,,,
,,6312ada1ce715ee3916c3748,2022-09-08_14h18.19.034,CGTgamblingSpanTasks,2022.2.1,Linux armv8l,59.62318149,,,,,,,2.7799,,,,,,,,,,,,,,,2,n,1.2201,0,1,4.2799,1.5,0,33,33,34,1,10.39,0,6.81,0,,,,,,,,,,,,,,,,,,,,,,,,,,,,,,,,,,,,,,,,,,,,,,,,,,,,,,,,,,,,,,,,,,,,,,,,,,,,,,,,,,,,,,,,,,,,,,,,,,
,,6312ada1ce715ee3916c3748,2022-09-08_14h18.19.034,CGTgamblingSpanTasks,2022.2.1,Linux armv8l,59.62318149,,,,,,,2.4669,,,,,,,,,,,,,,,2,v,1.5331,9.7,0,3.4669,1,0,34,34,27,1,16.6,0,9.7,0,,,,,,,,,,,,,,,,,,,,,,,,,,,,,,,,,,,,,,,,,,,,,,,,,,,,,,,,,,,,,,,,,,,,,,,,,,,,,,,,,,,,,,,,,,,,,,,,,,
,,6312ada1ce715ee3916c3748,2022-09-08_14h18.19.034,CGTgamblingSpanTasks,2022.2.1,Linux armv8l,59.62318149,,,,,,,2.6009,,,,,,,,,,,,,,,1,n,1.3991,10.37,0,3.6009,1,0,35,35,37,1,15.27,0,10.37,0,,,,,,,,,,,,,,,,,,,,,,,,,,,,,,,,,,,,,,,,,,,,,,,,,,,,,,,,,,,,,,,,,,,,,,,,,,,,,,,,,,,,,,,,,,,,,,,,,,
,,6312ada1ce715ee3916c3748,2022-09-08_14h18.19.034,CGTgamblingSpanTasks,2022.2.1,Linux armv8l,59.62318149,,,,,,,3.1493,,,,,,,,,,,,,,,2,n,0.8507,0,1,4.1493,1,0,36,36,15,1,18.77,0,8.61,0,,,,,,,,,,,,,,,,,,,,,,,,,,,,,,,,,,,,,,,,,,,,,,,,,,,,,,,,,,,,,,,,,,,,,,,,,,,,,,,,,,,,,,,,,,,,,,,,,,
,,6312ada1ce715ee3916c3748,2022-09-08_14h18.19.034,CGTgamblingSpanTasks,2022.2.1,Linux armv8l,59.62318149,,,,,,,3.0782,,,,,,,,,,,,,,,2,n,0.9218,0,1,4.0782,1,0,37,37,18,1,12.08,0,5.96,0,,,,,,,,,,,,,,,,,,,,,,,,,,,,,,,,,,,,,,,,,,,,,,,,,,,,,,,,,,,,,,,,,,,,,,,,,,,,,,,,,,,,,,,,,,,,,,,,,,
,,6312ada1ce715ee3916c3748,2022-09-08_14h18.19.034,CGTgamblingSpanTasks,2022.2.1,Linux armv8l,59.62318149,,,,,,,3.1506,,,,,,,,,,,,,,,2,v,0.8494,10.25,0,4.6506,1.5,0,38,38,46,1,0,0,10.25,1,,,,,,,,,,,,,,,,,,,,,,,,,,,,,,,,,,,,,,,,,,,,,,,,,,,,,,,,,,,,,,,,,,,,,,,,,,,,,,,,,,,,,,,,,,,,,,,,,,
,,6312ada1ce715ee3916c3748,2022-09-08_14h18.19.034,CGTgamblingSpanTasks,2022.2.1,Linux armv8l,59.62318149,,,,,,,2.7155,,,,,,,,,,,,,,,1,n,1.2845,3.13,0,3.7155,1,0,39,39,47,1,0,0,3.13,1,,,,,,,,,,,,,,,,,,,,,,,,,,,,,,,,,,,,,,,,,,,,,,,,,,,,,,,,,,,,,,,,,,,,,,,,,,,,,,,,,,,,,,,,,,,,,,,,,,
,,6312ada1ce715ee3916c3748,2022-09-08_14h18.19.034,CGTgamblingSpanTasks,2022.2.1,Linux armv8l,59.62318149,,,,,,,2.8151,,,,,,,,,,,,,,,1,n,1.1849,6.94,0,3.8151,1,0,40,40,38,1,10.12,0,6.94,0,,,,,,,,,,,,,,,,,,,,,,,,,,,,,,,,,,,,,,,,,,,,,,,,,,,,,,,,,,,,,,,,,,,,,,,,,,,,,,,,,,,,,,,,,,,,,,,,,,
,,6312ada1ce715ee3916c3748,2022-09-08_14h18.19.034,CGTgamblingSpanTasks,2022.2.1,Linux armv8l,59.62318149,,,,,,,2.3906,,,,,,,,,,,,,,,1,n,1.6094,9.87,0,3.3906,1,0,41,41,29,1,16.26,0,9.87,0,,,,,,,,,,,,,,,,,,,,,,,,,,,,,,,,,,,,,,,,,,,,,,,,,,,,,,,,,,,,,,,,,,,,,,,,,,,,,,,,,,,,,,,,,,,,,,,,,,
,,6312ada1ce715ee3916c3748,2022-09-08_14h18.19.034,CGTgamblingSpanTasks,2022.2.1,Linux armv8l,59.62318149,,,,,,,2.8116,,,,,,,,,,,,,,,1,n,1.1884,9.92,0,4.3116,1.5,0,42,42,49,1,6.79,0,9.92,1,,,,,,,,,,,,,,,,,,,,,,,,,,,,,,,,,,,,,,,,,,,,,,,,,,,,,,,,,,,,,,,,,,,,,,,,,,,,,,,,,,,,,,,,,,,,,,,,,,
,,6312ada1ce715ee3916c3748,2022-09-08_14h18.19.034,CGTgamblingSpanTasks,2022.2.1,Linux armv8l,59.62318149,,,,,,,2.7356,,,,,,,,,,,,,,,1,v,1.2644,13.45,1,3.7356,1,0,43,43,10,1,13.45,0,5.27,0,,,,,,,,,,,,,,,,,,,,,,,,,,,,,,,,,,,,,,,,,,,,,,,,,,,,,,,,,,,,,,,,,,,,,,,,,,,,,,,,,,,,,,,,,,,,,,,,,,
,,6312ada1ce715ee3916c3748,2022-09-08_14h18.19.034,CGTgamblingSpanTasks,2022.2.1,Linux armv8l,59.62318149,,,,,,,1.7847,,,,,,,,,,,,,,,2,n,2.2153,0,1,2.7847,1,0,44,44,8,1,13.94,0,5.03,0,,,,,,,,,,,,,,,,,,,,,,,,,,,,,,,,,,,,,,,,,,,,,,,,,,,,,,,,,,,,,,,,,,,,,,,,,,,,,,,,,,,,,,,,,,,,,,,,,,
,,6312ada1ce715ee3916c3748,2022-09-08_14h18.19.034,CGTgamblingSpanTasks,2022.2.1,Linux armv8l,59.62318149,,,,,,,2.6463,,,,,,,,,,,,,,,2,n,1.3537,14.72,1,4.1463,1.5,0,45,45,6,1,14.72,0,4.64,0,,,,,,,,,,,,,,,,,,,,,,,,,,,,,,,,,,,,,,,,,,,,,,,,,,,,,,,,,,,,,,,,,,,,,,,,,,,,,,,,,,,,,,,,,,,,,,,,,,
,,6312ada1ce715ee3916c3748,2022-09-08_14h18.19.034,CGTgamblingSpanTasks,2022.2.1,Linux armv8l,59.62318149,,,,,,,2.9382,,,,,,,,,,,,,,,1,n,1.0618,6.63,0,4.4382,1.5,0,46,46,30,1,10.73,0,6.63,0,,,,,,,,,,,,,,,,,,,,,,,,,,,,,,,,,,,,,,,,,,,,,,,,,,,,,,,,,,,,,,,,,,,,,,,,,,,,,,,,,,,,,,,,,,,,,,,,,,
,,6312ada1ce715ee3916c3748,2022-09-08_14h18.19.034,CGTgamblingSpanTasks,2022.2.1,Linux armv8l,59.62318149,,,,,,,2.39,,,,,,,,,,,,,,,1,n,1.61,9.5,0,3.39,1,0,47,47,25,1,17,0,9.5,0,,,,,,,,,,,,,,,,,,,,,,,,,,,,,,,,,,,,,,,,,,,,,,,,,,,,,,,,,,,,,,,,,,,,,,,,,,,,,,,,,,,,,,,,,,,,,,,,,,
,,6312ada1ce715ee3916c3748,2022-09-08_14h18.19.034,CGTgamblingSpanTasks,2022.2.1,Linux armv8l,59.62318149,,,,,,,2.5692,,,,,,,,,,,,,,,2,n,1.4308,28.21,1,4.0692,1.5,0,48,48,1,1,28.21,0,3.89,0,,,,,,,,,,,,,,,,,,,,,,,,,,,,,,,,,,,,,,,,,,,,,,,,,,,,,,,,,,,,,,,,,,,,,,,,,,,,,,,,,,,,,,,,,,,,,,,,,,
,,6312ada1ce715ee3916c3748,2022-09-08_14h18.19.034,CGTgamblingSpanTasks,2022.2.1,Linux armv8l,59.62318149,,,,,,,2.2227,,,,,,,,,,,,,,,2,v,1.7773,10.02,0,3.7227,1.5,0,49,49,31,1,15.96,0,10.02,0,,,,,,,,,,,,,,,,,,,,,,,,,,,,,,,,,,,,,,,,,,,,,,,,,,,,,,,,,,,,,,,,,,,,,,,,,,,,,,,,,,,,,,,,,,,,,,,,,,
,,6312ada1ce715ee3916c3748,2022-09-08_14h18.19.034,CGTgamblingSpanTasks,2022.2.1,Linux armv8l,59.62318149,,,,,,,,,,,,,,,,,,,,,,,,,,,,,,,,,,,,,,bespoke_choiceset_rhoInd061_muInd025.csv,bespoke_choicesets/bespoke_choiceset_rhoInd061_muInd025.csv,61,25,0,0,0,0,1,,,,,,,,,,,,,,,,,,,,,,,,,,,,,,,,,,,,,,,,,,,,,,,,,,,,,,,,,,,,,,,,,,,,,,,,,,,,,,,,,,,,,,,,,
,,6312ada1ce715ee3916c3748,2022-09-08_14h18.19.034,CGTgamblingSpanTasks,2022.2.1,Linux armv8l,59.62318149,,,,,,,,,,,,,,,,,,,,,,,,,,,,,,,,,,,,,,,,,,,,,,,,,,,,,,,,,,,,,,,,,,,,,,,,,,,,,,,,,,,,,,,,,,,,,,,,,,,,,,,,,,,,,,,,,,,,,,,,,,,,,,,,,,,,,,,
,,6312ada1ce715ee3916c3748,2022-09-08_14h18.19.034,CGTgamblingSpanTasks,2022.2.1,Linux armv8l,59.62318149,,,,,,,,,,,,,,,,,,,,,,,,,,,,,,,,,,,,,,,,,,,,,,,n,2.4314,,,,,,,,,,,,,,,,,,,,,,,,,,,,,,,,,,,,,,,,,,,,,,,,,,,,,,,,,,,,,,,,,,,,,,,,,,,,,,,,,,,,,,,
,,6312ada1ce715ee3916c3748,2022-09-08_14h18.19.034,CGTgamblingSpanTasks,2022.2.1,Linux armv8l,59.62318149,,,,,,,2.1821,,,,,,,,,,,,,,,1,v,1.8179,0,1,3.6821,1.5,,,,,,20.31034258,0,1.870404296,,,,,,,,,,,,,0,0,0,85,1,0.519325853,1,,,,,,,,,,,,,,,,,,,,,,,,,,,,,,,,,,,,,,,,,,,,,,,,,,,,,,,,,,,,,,,,,,,,,,,,,,,,,,,,
,,6312ada1ce715ee3916c3748,2022-09-08_14h18.19.034,CGTgamblingSpanTasks,2022.2.1,Linux armv8l,59.62318149,,,,,,,2.8949,,,,,,,,,,,,,,,1,v,1.1051,0,1,4.3949,1.5,,,,,,23.0613391,0,2.387726776,,,,,,,,,,,,,0,1,1,69,1,0.488727763,1,,,,,,,,,,,,,,,,,,,,,,,,,,,,,,,,,,,,,,,,,,,,,,,,,,,,,,,,,,,,,,,,,,,,,,,,,,,,,,,,
,,6312ada1ce715ee3916c3748,2022-09-08_14h18.19.034,CGTgamblingSpanTasks,2022.2.1,Linux armv8l,59.62318149,,,,,,,2.5475,,,,,,,,,,,,,,,2,v,1.4525,7.646213173,0,4.0475,1.5,,,,,,2.042350179,0,7.646213173,,,,,,,,,,,,,0,2,2,53,1,0.009522273,0,,,,,,,,,,,,,,,,,,,,,,,,,,,,,,,,,,,,,,,,,,,,,,,,,,,,,,,,,,,,,,,,,,,,,,,,,,,,,,,,
,,6312ada1ce715ee3916c3748,2022-09-08_14h18.19.034,CGTgamblingSpanTasks,2022.2.1,Linux armv8l,59.62318149,,,,,,,1.6554,,,,,,,,,,,,,,,1,n,2.3446,11.41737518,0,3.1554,1.5,,,,,,18.11029021,0,11.41737518,,,,,,,,,,,,,0,3,3,48,1,0.069445859,0,,,,,,,,,,,,,,,,,,,,,,,,,,,,,,,,,,,,,,,,,,,,,,,,,,,,,,,,,,,,,,,,,,,,,,,,,,,,,,,,
,,6312ada1ce715ee3916c3748,2022-09-08_14h18.19.034,CGTgamblingSpanTasks,2022.2.1,Linux armv8l,59.62318149,,,,,,,3.0616,,,,,,,,,,,,,,,2,n,0.9384,22.72923833,1,4.5616,1.5,,,,,,22.72923833,0,0.067170781,,,,,,,,,,,,,0,4,4,86,1,0.907226703,0,,,,,,,,,,,,,,,,,,,,,,,,,,,,,,,,,,,,,,,,,,,,,,,,,,,,,,,,,,,,,,,,,,,,,,,,,,,,,,,,
,,6312ada1ce715ee3916c3748,2022-09-08_14h18.19.034,CGTgamblingSpanTasks,2022.2.1,Linux armv8l,59.62318149,,,,,,,3.1066,,,,,,,,,,,,,,,2,n,0.8934,28.68598705,1,4.1066,1,,,,,,28.68598705,0,0.050674956,,,,,,,,,,,,,0,5,5,62,1,0.920905497,0,,,,,,,,,,,,,,,,,,,,,,,,,,,,,,,,,,,,,,,,,,,,,,,,,,,,,,,,,,,,,,,,,,,,,,,,,,,,,,,,
,,6312ada1ce715ee3916c3748,2022-09-08_14h18.19.034,CGTgamblingSpanTasks,2022.2.1,Linux armv8l,59.62318149,,,,,,,2.9413,,,,,,,,,,,,,,,1,v,1.0587,19.68065872,1,4.4413,1.5,,,,,,19.68065872,0,1.843597162,,,,,,,,,,,,,0,6,6,80,1,0.514941058,1,,,,,,,,,,,,,,,,,,,,,,,,,,,,,,,,,,,,,,,,,,,,,,,,,,,,,,,,,,,,,,,,,,,,,,,,,,,,,,,,
,,6312ada1ce715ee3916c3748,2022-09-08_14h18.19.034,CGTgamblingSpanTasks,2022.2.1,Linux armv8l,59.62318149,,,,,,,2.6873,,,,,,,,,,,,,,,1,v,1.3127,18.50662664,1,3.6873,1,,,,,,18.50662664,0,0.052546026,,,,,,,,,,,,,0,7,7,112,1,0.908444837,0,,,,,,,,,,,,,,,,,,,,,,,,,,,,,,,,,,,,,,,,,,,,,,,,,,,,,,,,,,,,,,,,,,,,,,,,,,,,,,,,
,,6312ada1ce715ee3916c3748,2022-09-08_14h18.19.034,CGTgamblingSpanTasks,2022.2.1,Linux armv8l,59.62318149,,,,,,,2.825,,,,,,,,,,,,,,,1,v,1.175,0,1,4.325,1.5,,,,,,24.35708027,0,2.738695417,,,,,,,,,,,,,0,8,8,114,1,0.466573634,1,,,,,,,,,,,,,,,,,,,,,,,,,,,,,,,,,,,,,,,,,,,,,,,,,,,,,,,,,,,,,,,,,,,,,,,,,,,,,,,,
,,6312ada1ce715ee3916c3748,2022-09-08_14h18.19.034,CGTgamblingSpanTasks,2022.2.1,Linux armv8l,59.62318149,,,,,,,2.9399,,,,,,,,,,,,,,,1,v,1.0601,26.16821818,1,4.4399,1.5,,,,,,26.16821818,0,0.093528069,,,,,,,,,,,,,0,9,9,42,1,0.901022427,0,,,,,,,,,,,,,,,,,,,,,,,,,,,,,,,,,,,,,,,,,,,,,,,,,,,,,,,,,,,,,,,,,,,,,,,,,,,,,,,,
,,6312ada1ce715ee3916c3748,2022-09-08_14h18.19.034,CGTgamblingSpanTasks,2022.2.1,Linux armv8l,59.62318149,,,,,,,2.8513,,,,,,,,,,,,,,,1,v,1.1487,27.37527992,1,3.8513,1,,,,,,27.37527992,0,2.860319095,,,,,,,,,,,,,0,10,10,39,1,0.486304156,1,,,,,,,,,,,,,,,,,,,,,,,,,,,,,,,,,,,,,,,,,,,,,,,,,,,,,,,,,,,,,,,,,,,,,,,,,,,,,,,,
,,6312ada1ce715ee3916c3748,2022-09-08_14h18.19.034,CGTgamblingSpanTasks,2022.2.1,Linux armv8l,59.62318149,,,,,,,2.657,,,,,,,,,,,,,,,2,n,1.343,0,1,4.157,1.5,,,,,,22.86604061,0,2.293289792,,,,,,,,,,,,,0,11,11,51,1,0.49715382,1,,,,,,,,,,,,,,,,,,,,,,,,,,,,,,,,,,,,,,,,,,,,,,,,,,,,,,,,,,,,,,,,,,,,,,,,,,,,,,,,
,,6312ada1ce715ee3916c3748,2022-09-08_14h18.19.034,CGTgamblingSpanTasks,2022.2.1,Linux armv8l,59.62318149,,,,,,,2.9624,,,,,,,,,,,,,,,1,v,1.0376,24.66627941,1,3.9624,1,,,,,,24.66627941,0,2.765426402,,,,,,,,,,,,,0,12,12,24,1,0.467360588,1,,,,,,,,,,,,,,,,,,,,,,,,,,,,,,,,,,,,,,,,,,,,,,,,,,,,,,,,,,,,,,,,,,,,,,,,,,,,,,,,
,,6312ada1ce715ee3916c3748,2022-09-08_14h18.19.034,CGTgamblingSpanTasks,2022.2.1,Linux armv8l,59.62318149,,,,,,,3.0742,,,,,,,,,,,,,,,1,n,0.9258,4.462262453,0,4.0742,1,,,,,,0.192759042,0,4.462262453,,,,,,,,,,,,,0,13,13,52,1,0.003553223,0,,,,,,,,,,,,,,,,,,,,,,,,,,,,,,,,,,,,,,,,,,,,,,,,,,,,,,,,,,,,,,,,,,,,,,,,,,,,,,,,
,,6312ada1ce715ee3916c3748,2022-09-08_14h18.19.034,CGTgamblingSpanTasks,2022.2.1,Linux armv8l,59.62318149,,,,,,,2.9758,,,,,,,,,,,,,,,2,n,1.0242,0,1,3.9758,1,,,,,,25.54604005,0,0.088845411,,,,,,,,,,,,,0,14,14,79,1,0.901957831,0,,,,,,,,,,,,,,,,,,,,,,,,,,,,,,,,,,,,,,,,,,,,,,,,,,,,,,,,,,,,,,,,,,,,,,,,,,,,,,,,
,,6312ada1ce715ee3916c3748,2022-09-08_14h18.19.034,CGTgamblingSpanTasks,2022.2.1,Linux armv8l,59.62318149,,,,,,,2.9476,,,,,,,,,,,,,,,1,n,1.0524,7.850775577,0,3.9476,1,,,,,,4.622707531,0,7.850775577,,,,,,,,,,,,,0,15,15,6,1,0.017737407,0,,,,,,,,,,,,,,,,,,,,,,,,,,,,,,,,,,,,,,,,,,,,,,,,,,,,,,,,,,,,,,,,,,,,,,,,,,,,,,,,
,,6312ada1ce715ee3916c3748,2022-09-08_14h18.19.034,CGTgamblingSpanTasks,2022.2.1,Linux armv8l,59.62318149,,,,,,,2.4666,,,,,,,,,,,,,,,2,n,1.5334,14.3363647,1,3.4666,1,,,,,,14.3363647,0,1.396635362,,,,,,,,,,,,,0,16,16,78,1,0.504775474,1,,,,,,,,,,,,,,,,,,,,,,,,,,,,,,,,,,,,,,,,,,,,,,,,,,,,,,,,,,,,,,,,,,,,,,,,,,,,,,,,
,,6312ada1ce715ee3916c3748,2022-09-08_14h18.19.034,CGTgamblingSpanTasks,2022.2.1,Linux armv8l,59.62318149,,,,,,,2.9592,,,,,,,,,,,,,,,2,n,1.0408,27.39221343,1,4.4592,1.5,,,,,,27.39221343,0,2.743407746,,,,,,,,,,,,,0,17,17,47,1,0.49752044,1,,,,,,,,,,,,,,,,,,,,,,,,,,,,,,,,,,,,,,,,,,,,,,,,,,,,,,,,,,,,,,,,,,,,,,,,,,,,,,,,
,,6312ada1ce715ee3916c3748,2022-09-08_14h18.19.034,CGTgamblingSpanTasks,2022.2.1,Linux armv8l,59.62318149,,,,,,,2.9433,,,,,,,,,,,,,,,2,n,1.0567,19.30622782,1,3.9433,1,,,,,,19.30622782,0,10.31611309,,,,,,,,,,,,,0,18,18,1,1,0.091105656,0,,,,,,,,,,,,,,,,,,,,,,,,,,,,,,,,,,,,,,,,,,,,,,,,,,,,,,,,,,,,,,,,,,,,,,,,,,,,,,,,
,,6312ada1ce715ee3916c3748,2022-09-08_14h18.19.034,CGTgamblingSpanTasks,2022.2.1,Linux armv8l,59.62318149,,,,,,,2.6272,,,,,,,,,,,,,,,2,n,1.3728,14.11762686,1,3.6272,1,,,,,,14.11762686,0,8.579385201,,,,,,,,,,,,,0,19,19,60,1,0.073886959,0,,,,,,,,,,,,,,,,,,,,,,,,,,,,,,,,,,,,,,,,,,,,,,,,,,,,,,,,,,,,,,,,,,,,,,,,,,,,,,,,
,,6312ada1ce715ee3916c3748,2022-09-08_14h18.19.034,CGTgamblingSpanTasks,2022.2.1,Linux armv8l,59.62318149,,,,,,,3.0628,,,,,,,,,,,,,,,2,n,0.9372,0,1,4.0628,1,,,,,,7.534278541,0,0.747140182,,,,,,,,,,,,,0,20,20,37,1,0.50012466,1,,,,,,,,,,,,,,,,,,,,,,,,,,,,,,,,,,,,,,,,,,,,,,,,,,,,,,,,,,,,,,,,,,,,,,,,,,,,,,,,
,,6312ada1ce715ee3916c3748,2022-09-08_14h18.19.034,CGTgamblingSpanTasks,2022.2.1,Linux armv8l,59.62318149,,,,,,,3.0478,,,,,,,,,,,,,,,2,n,0.9522,0,1,4.5478,1.5,,,,,,17.23907308,0,2.055848574,,,,,,,,,,,,,0,21,21,66,1,0.450504458,1,,,,,,,,,,,,,,,,,,,,,,,,,,,,,,,,,,,,,,,,,,,,,,,,,,,,,,,,,,,,,,,,,,,,,,,,,,,,,,,,
,,6312ada1ce715ee3916c3748,2022-09-08_14h18.19.034,CGTgamblingSpanTasks,2022.2.1,Linux armv8l,59.62318149,,,,,,,2.8161,,,,,,,,,,,,,,,2,n,1.1839,25.56803059,1,4.3161,1.5,,,,,,25.56803059,0,2.543951743,,,,,,,,,,,,,0,22,22,41,1,0.499247217,1,,,,,,,,,,,,,,,,,,,,,,,,,,,,,,,,,,,,,,,,,,,,,,,,,,,,,,,,,,,,,,,,,,,,,,,,,,,,,,,,
,,6312ada1ce715ee3916c3748,2022-09-08_14h18.19.034,CGTgamblingSpanTasks,2022.2.1,Linux armv8l,59.62318149,,,,,,,2.1382,,,,,,,,,,,,,,,1,v,1.8618,23.59556381,1,3.6382,1.5,,,,,,23.59556381,0,2.464662219,,,,,,,,,,,,,0,23,23,22,1,0.486383205,1,,,,,,,,,,,,,,,,,,,,,,,,,,,,,,,,,,,,,,,,,,,,,,,,,,,,,,,,,,,,,,,,,,,,,,,,,,,,,,,,
,,6312ada1ce715ee3916c3748,2022-09-08_14h18.19.034,CGTgamblingSpanTasks,2022.2.1,Linux armv8l,59.62318149,,,,,,,1.3349,,,,,,,,,,,,,,,2,n,2.6651,19.3050342,1,2.8349,1.5,,,,,,19.3050342,0,2.030232342,,,,,,,,,,,,,0,24,24,73,1,0.484573227,1,,,,,,,,,,,,,,,,,,,,,,,,,,,,,,,,,,,,,,,,,,,,,,,,,,,,,,,,,,,,,,,,,,,,,,,,,,,,,,,,
,,6312ada1ce715ee3916c3748,2022-09-08_14h18.19.034,CGTgamblingSpanTasks,2022.2.1,Linux armv8l,59.62318149,,,,,,,2.1893,,,,,,,,,,,,,,,1,v,1.8107,18.16238569,1,3.6893,1.5,,,,,,18.16238569,0,1.540604093,,,,,,,,,,,,,0,25,25,34,1,0.540092491,1,,,,,,,,,,,,,,,,,,,,,,,,,,,,,,,,,,,,,,,,,,,,,,,,,,,,,,,,,,,,,,,,,,,,,,,,,,,,,,,,
,,6312ada1ce715ee3916c3748,2022-09-08_14h18.19.034,CGTgamblingSpanTasks,2022.2.1,Linux armv8l,59.62318149,,,,,,,1.8556,,,,,,,,,,,,,,,1,n,2.1444,10.68505773,0,3.3556,1.5,,,,,,17.64114152,0,10.68505773,,,,,,,,,,,,,0,26,26,98,1,0.074299362,0,,,,,,,,,,,,,,,,,,,,,,,,,,,,,,,,,,,,,,,,,,,,,,,,,,,,,,,,,,,,,,,,,,,,,,,,,,,,,,,,
,,6312ada1ce715ee3916c3748,2022-09-08_14h18.19.034,CGTgamblingSpanTasks,2022.2.1,Linux armv8l,59.62318149,,,,,,,2.7326,,,,,,,,,,,,,,,1,v,1.2674,24.479109,1,4.2326,1.5,,,,,,24.479109,0,0.089582697,,,,,,,,,,,,,0,27,27,89,1,0.900200232,0,,,,,,,,,,,,,,,,,,,,,,,,,,,,,,,,,,,,,,,,,,,,,,,,,,,,,,,,,,,,,,,,,,,,,,,,,,,,,,,,
,,6312ada1ce715ee3916c3748,2022-09-08_14h18.19.034,CGTgamblingSpanTasks,2022.2.1,Linux armv8l,59.62318149,,,,,,,2.8331,,,,,,,,,,,,,,,1,n,1.1669,7.50753835,0,3.8331,1,,,,,,2.231316635,0,7.50753835,,,,,,,,,,,,,0,28,28,29,1,0.010273427,0,,,,,,,,,,,,,,,,,,,,,,,,,,,,,,,,,,,,,,,,,,,,,,,,,,,,,,,,,,,,,,,,,,,,,,,,,,,,,,,,
,,6312ada1ce715ee3916c3748,2022-09-08_14h18.19.034,CGTgamblingSpanTasks,2022.2.1,Linux armv8l,59.62318149,,,,,,,0.8781,,,,,,,,,,,,,,,1,n,3.1219,6.833409611,0,2.3781,1.5,,,,,,6.325091157,0,6.833409611,,,,,,,,,,,,,0,29,29,58,1,0.027113638,0,,,,,,,,,,,,,,,,,,,,,,,,,,,,,,,,,,,,,,,,,,,,,,,,,,,,,,,,,,,,,,,,,,,,,,,,,,,,,,,,
,,6312ada1ce715ee3916c3748,2022-09-08_14h18.19.034,CGTgamblingSpanTasks,2022.2.1,Linux armv8l,59.62318149,,,,,,,2.4852,,,,,,,,,,,,,,,2,v,1.5148,4.904872644,0,3.4852,1,,,,,,4.698775357,0,4.904872644,,,,,,,,,,,,,0,30,30,75,1,0.028064484,0,,,,,,,,,,,,,,,,,,,,,,,,,,,,,,,,,,,,,,,,,,,,,,,,,,,,,,,,,,,,,,,,,,,,,,,,,,,,,,,,
,,6312ada1ce715ee3916c3748,2022-09-08_14h18.19.034,CGTgamblingSpanTasks,2022.2.1,Linux armv8l,59.62318149,,,,,,,2.5246,,,,,,,,,,,,,,,1,n,1.4754,5.683635938,0,3.5246,1,,,,,,4.941039335,0,5.683635938,,,,,,,,,,,,,0,31,31,9,1,0.025481984,0,,,,,,,,,,,,,,,,,,,,,,,,,,,,,,,,,,,,,,,,,,,,,,,,,,,,,,,,,,,,,,,,,,,,,,,,,,,,,,,,
,,6312ada1ce715ee3916c3748,2022-09-08_14h18.19.034,CGTgamblingSpanTasks,2022.2.1,Linux armv8l,59.62318149,,,,,,,2.6119,,,,,,,,,,,,,,,2,n,1.3881,0,1,4.1119,1.5,,,,,,27.76752685,0,0.083968035,,,,,,,,,,,,,0,32,32,13,1,0.906513967,0,,,,,,,,,,,,,,,,,,,,,,,,,,,,,,,,,,,,,,,,,,,,,,,,,,,,,,,,,,,,,,,,,,,,,,,,,,,,,,,,
,,6312ada1ce715ee3916c3748,2022-09-08_14h18.19.034,CGTgamblingSpanTasks,2022.2.1,Linux armv8l,59.62318149,,,,,,,1.6364,,,,,,,,,,,,,,,1,n,2.3636,3.877530383,0,3.1364,1.5,,,,,,3.471484939,0,3.877530383,,,,,,,,,,,,,0,33,33,40,1,0.02623078,0,,,,,,,,,,,,,,,,,,,,,,,,,,,,,,,,,,,,,,,,,,,,,,,,,,,,,,,,,,,,,,,,,,,,,,,,,,,,,,,,
,,6312ada1ce715ee3916c3748,2022-09-08_14h18.19.034,CGTgamblingSpanTasks,2022.2.1,Linux armv8l,59.62318149,,,,,,,2.3921,,,,,,,,,,,,,,,2,n,1.6079,26.36733703,1,3.8921,1.5,,,,,,26.36733703,0,2.201057101,,,,,,,,,,,,,0,34,34,90,1,0.544064207,1,,,,,,,,,,,,,,,,,,,,,,,,,,,,,,,,,,,,,,,,,,,,,,,,,,,,,,,,,,,,,,,,,,,,,,,,,,,,,,,,
,,6312ada1ce715ee3916c3748,2022-09-08_14h18.19.034,CGTgamblingSpanTasks,2022.2.1,Linux armv8l,59.62318149,,,,,,,1.1396,,,,,,,,,,,,,,,2,n,2.8604,0,1,2.1396,1,,,,,,21.2188881,0,2.067660742,,,,,,,,,,,,,0,35,35,107,1,0.50470775,1,,,,,,,,,,,,,,,,,,,,,,,,,,,,,,,,,,,,,,,,,,,,,,,,,,,,,,,,,,,,,,,,,,,,,,,,,,,,,,,,
,,6312ada1ce715ee3916c3748,2022-09-08_14h18.19.034,CGTgamblingSpanTasks,2022.2.1,Linux armv8l,59.62318149,,,,,,,2.5848,,,,,,,,,,,,,,,1,v,1.4152,0,1,4.0848,1.5,,,,,,8.217594828,0,0.951019374,,,,,,,,,,,,,0,36,36,87,1,0.458722936,1,,,,,,,,,,,,,,,,,,,,,,,,,,,,,,,,,,,,,,,,,,,,,,,,,,,,,,,,,,,,,,,,,,,,,,,,,,,,,,,,
,,6312ada1ce715ee3916c3748,2022-09-08_14h18.19.034,CGTgamblingSpanTasks,2022.2.1,Linux armv8l,59.62318149,,,,,,,3.1931,,,,,,,,,,,,,,,2,n,0.8069,0,1,4.1931,1,,,,,,22.0050376,0,2.257683666,,,,,,,,,,,,,0,37,37,4,1,0.491147312,1,,,,,,,,,,,,,,,,,,,,,,,,,,,,,,,,,,,,,,,,,,,,,,,,,,,,,,,,,,,,,,,,,,,,,,,,,,,,,,,,
,,6312ada1ce715ee3916c3748,2022-09-08_14h18.19.034,CGTgamblingSpanTasks,2022.2.1,Linux armv8l,59.62318149,,,,,,,3.0777,,,,,,,,,,,,,,,1,v,0.9223,0,1,4.0777,1,,,,,,27.77179191,0,0.074524436,,,,,,,,,,,,,0,38,38,99,1,0.910114387,0,,,,,,,,,,,,,,,,,,,,,,,,,,,,,,,,,,,,,,,,,,,,,,,,,,,,,,,,,,,,,,,,,,,,,,,,,,,,,,,,
,,6312ada1ce715ee3916c3748,2022-09-08_14h18.19.034,CGTgamblingSpanTasks,2022.2.1,Linux armv8l,59.62318149,,,,,,,2.9497,,,,,,,,,,,,,,,1,v,1.0503,0,1,4.4497,1.5,,,,,,24.8002852,0,0.071848086,,,,,,,,,,,,,0,39,39,16,1,0.90783559,0,,,,,,,,,,,,,,,,,,,,,,,,,,,,,,,,,,,,,,,,,,,,,,,,,,,,,,,,,,,,,,,,,,,,,,,,,,,,,,,,
,,6312ada1ce715ee3916c3748,2022-09-08_14h18.19.034,CGTgamblingSpanTasks,2022.2.1,Linux armv8l,59.62318149,,,,,,,3.0848,,,,,,,,,,,,,,,2,n,0.9152,27.94544945,1,4.0848,1,,,,,,27.94544945,0,2.32030209,,,,,,,,,,,,,0,40,40,115,1,0.545390564,1,,,,,,,,,,,,,,,,,,,,,,,,,,,,,,,,,,,,,,,,,,,,,,,,,,,,,,,,,,,,,,,,,,,,,,,,,,,,,,,,
,,6312ada1ce715ee3916c3748,2022-09-08_14h18.19.034,CGTgamblingSpanTasks,2022.2.1,Linux armv8l,59.62318149,,,,,,,2.8573,,,,,,,,,,,,,,,1,v,1.1427,28.18900855,1,4.3573,1.5,,,,,,28.18900855,0,0.05384276,,,,,,,,,,,,,0,41,41,55,1,0.919081308,0,,,,,,,,,,,,,,,,,,,,,,,,,,,,,,,,,,,,,,,,,,,,,,,,,,,,,,,,,,,,,,,,,,,,,,,,,,,,,,,,
,,6312ada1ce715ee3916c3748,2022-09-08_14h18.19.034,CGTgamblingSpanTasks,2022.2.1,Linux armv8l,59.62318149,,,,,,,2.9082,,,,,,,,,,,,,,,2,n,1.0918,17.85020524,1,4.4082,1.5,,,,,,17.85020524,0,2.058701084,,,,,,,,,,,,,0,42,42,25,1,0.459662216,1,,,,,,,,,,,,,,,,,,,,,,,,,,,,,,,,,,,,,,,,,,,,,,,,,,,,,,,,,,,,,,,,,,,,,,,,,,,,,,,,
,,6312ada1ce715ee3916c3748,2022-09-08_14h18.19.034,CGTgamblingSpanTasks,2022.2.1,Linux armv8l,59.62318149,,,,,,,3.862,,,,,,,,,,,,,,,1,v,0.138,17.5608285,1,5.362,1.5,,,,,,17.5608285,0,1.825111303,,,,,,,,,,,,,0,43,43,104,1,0.487721116,1,,,,,,,,,,,,,,,,,,,,,,,,,,,,,,,,,,,,,,,,,,,,,,,,,,,,,,,,,,,,,,,,,,,,,,,,,,,,,,,,
,,6312ada1ce715ee3916c3748,2022-09-08_14h18.19.034,CGTgamblingSpanTasks,2022.2.1,Linux armv8l,59.62318149,,,,,,,2.6724,,,,,,,,,,,,,,,1,v,1.3276,0,1,4.1724,1.5,,,,,,27.88092897,0,2.771762788,,,,,,,,,,,,,0,44,44,117,1,0.499466648,1,,,,,,,,,,,,,,,,,,,,,,,,,,,,,,,,,,,,,,,,,,,,,,,,,,,,,,,,,,,,,,,,,,,,,,,,,,,,,,,,
,,6312ada1ce715ee3916c3748,2022-09-08_14h18.19.034,CGTgamblingSpanTasks,2022.2.1,Linux armv8l,59.62318149,,,,,,,2.3412,,,,,,,,,,,,,,,2,n,1.6588,7.066129113,1,3.8412,1.5,,,,,,7.066129113,0,0.585581699,,,,,,,,,,,,,0,45,45,19,1,0.545860632,1,,,,,,,,,,,,,,,,,,,,,,,,,,,,,,,,,,,,,,,,,,,,,,,,,,,,,,,,,,,,,,,,,,,,,,,,,,,,,,,,
,,6312ada1ce715ee3916c3748,2022-09-08_14h18.19.034,CGTgamblingSpanTasks,2022.2.1,Linux armv8l,59.62318149,,,,,,,2.2118,,,,,,,,,,,,,,,1,v,1.7882,25.26994993,1,3.7118,1.5,,,,,,25.26994993,0,2.78925142,,,,,,,,,,,,,0,46,46,108,1,0.471582922,1,,,,,,,,,,,,,,,,,,,,,,,,,,,,,,,,,,,,,,,,,,,,,,,,,,,,,,,,,,,,,,,,,,,,,,,,,,,,,,,,
,,6312ada1ce715ee3916c3748,2022-09-08_14h18.19.034,CGTgamblingSpanTasks,2022.2.1,Linux armv8l,59.62318149,,,,,,,2.6334,,,,,,,,,,,,,,,1,n,1.3666,11.35147481,0,3.6334,1,,,,,,17.67865084,0,11.35147481,,,,,,,,,,,,,0,47,47,91,1,0.067304606,0,,,,,,,,,,,,,,,,,,,,,,,,,,,,,,,,,,,,,,,,,,,,,,,,,,,,,,,,,,,,,,,,,,,,,,,,,,,,,,,,
,,6312ada1ce715ee3916c3748,2022-09-08_14h18.19.034,CGTgamblingSpanTasks,2022.2.1,Linux armv8l,59.62318149,,,,,,,1.4656,,,,,,,,,,,,,,,1,v,2.5344,0,1,2.9656,1.5,,,,,,15.21435748,0,10.3417501,,,,,,,,,,,,,0,48,48,72,1,0.060969226,0,,,,,,,,,,,,,,,,,,,,,,,,,,,,,,,,,,,,,,,,,,,,,,,,,,,,,,,,,,,,,,,,,,,,,,,,,,,,,,,,
,,6312ada1ce715ee3916c3748,2022-09-08_14h18.19.034,CGTgamblingSpanTasks,2022.2.1,Linux armv8l,59.62318149,,,,,,,3.1966,,,,,,,,,,,,,,,2,n,0.8034,17.4320197,1,4.6966,1.5,,,,,,17.4320197,0,1.448620949,,,,,,,,,,,,,0,49,49,30,1,0.545178213,1,,,,,,,,,,,,,,,,,,,,,,,,,,,,,,,,,,,,,,,,,,,,,,,,,,,,,,,,,,,,,,,,,,,,,,,,,,,,,,,,
,,6312ada1ce715ee3916c3748,2022-09-08_14h18.19.034,CGTgamblingSpanTasks,2022.2.1,Linux armv8l,59.62318149,,,,,,,2.2858,,,,,,,,,,,,,,,1,v,1.7142,20.97851654,1,3.2858,1,,,,,,20.97851654,0,11.39288827,,,,,,,,,,,,,0,50,50,2,1,0.088791079,0,,,,,,,,,,,,,,,,,,,,,,,,,,,,,,,,,,,,,,,,,,,,,,,,,,,,,,,,,,,,,,,,,,,,,,,,,,,,,,,,
,,6312ada1ce715ee3916c3748,2022-09-08_14h18.19.034,CGTgamblingSpanTasks,2022.2.1,Linux armv8l,59.62318149,,,,,,,3.0327,,,,,,,,,,,,,,,2,n,0.9673,0,1,4.5327,1.5,,,,,,8.670591867,0,1.025847652,,,,,,,,,,,,,0,51,51,18,1,0.452680459,1,,,,,,,,,,,,,,,,,,,,,,,,,,,,,,,,,,,,,,,,,,,,,,,,,,,,,,,,,,,,,,,,,,,,,,,,,,,,,,,,
,,6312ada1ce715ee3916c3748,2022-09-08_14h18.19.034,CGTgamblingSpanTasks,2022.2.1,Linux armv8l,59.62318149,,,,,,,3.0845,,,,,,,,,,,,,,,2,n,0.9155,0,1,4.5845,1.5,,,,,,27.60724521,0,0.088432325,,,,,,,,,,,,,0,52,52,17,1,0.904684186,0,,,,,,,,,,,,,,,,,,,,,,,,,,,,,,,,,,,,,,,,,,,,,,,,,,,,,,,,,,,,,,,,,,,,,,,,,,,,,,,,
,,6312ada1ce715ee3916c3748,2022-09-08_14h18.19.034,CGTgamblingSpanTasks,2022.2.1,Linux armv8l,59.62318149,,,,,,,2.8153,,,,,,,,,,,,,,,2,n,1.1847,29.30724159,1,3.8153,1,,,,,,29.30724159,0,3.247012935,,,,,,,,,,,,,0,53,53,71,1,0.470571125,1,,,,,,,,,,,,,,,,,,,,,,,,,,,,,,,,,,,,,,,,,,,,,,,,,,,,,,,,,,,,,,,,,,,,,,,,,,,,,,,,
,,6312ada1ce715ee3916c3748,2022-09-08_14h18.19.034,CGTgamblingSpanTasks,2022.2.1,Linux armv8l,59.62318149,,,,,,,3.1718,,,,,,,,,,,,,,,2,n,0.8282,0,1,4.1718,1,,,,,,29.77342428,0,2.838865588,,,,,,,,,,,,,0,54,54,57,1,0.510363415,1,,,,,,,,,,,,,,,,,,,,,,,,,,,,,,,,,,,,,,,,,,,,,,,,,,,,,,,,,,,,,,,,,,,,,,,,,,,,,,,,
,,6312ada1ce715ee3916c3748,2022-09-08_14h18.19.034,CGTgamblingSpanTasks,2022.2.1,Linux armv8l,59.62318149,,,,,,,3.1674,,,,,,,,,,,,,,,2,n,0.8326,0,1,4.1674,1,,,,,,26.4985979,0,0.051324376,,,,,,,,,,,,,0,55,55,106,1,0.918747215,0,,,,,,,,,,,,,,,,,,,,,,,,,,,,,,,,,,,,,,,,,,,,,,,,,,,,,,,,,,,,,,,,,,,,,,,,,,,,,,,,
,,6312ada1ce715ee3916c3748,2022-09-08_14h18.19.034,CGTgamblingSpanTasks,2022.2.1,Linux armv8l,59.62318149,,,,,,,3.1984,,,,,,,,,,,,,,,1,v,0.8016,0,1,4.6984,1.5,,,,,,20.5726842,0,0.073558523,,,,,,,,,,,,,0,56,56,26,1,0.901008565,0,,,,,,,,,,,,,,,,,,,,,,,,,,,,,,,,,,,,,,,,,,,,,,,,,,,,,,,,,,,,,,,,,,,,,,,,,,,,,,,,
,,6312ada1ce715ee3916c3748,2022-09-08_14h18.19.034,CGTgamblingSpanTasks,2022.2.1,Linux armv8l,59.62318149,,,,,,,2.6092,,,,,,,,,,,,,,,2,n,1.3908,13.84410806,1,3.6092,1,,,,,,13.84410806,0,1.535873964,,,,,,,,,,,,,0,57,57,88,1,0.470209002,1,,,,,,,,,,,,,,,,,,,,,,,,,,,,,,,,,,,,,,,,,,,,,,,,,,,,,,,,,,,,,,,,,,,,,,,,,,,,,,,,
,,6312ada1ce715ee3916c3748,2022-09-08_14h18.19.034,CGTgamblingSpanTasks,2022.2.1,Linux armv8l,59.62318149,,,,,,,2.7515,,,,,,,,,,,,,,,2,n,1.2485,0,1,3.7515,1,,,,,,13.96521039,0,1.591282699,,,,,,,,,,,,,0,58,58,49,1,0.462956344,1,,,,,,,,,,,,,,,,,,,,,,,,,,,,,,,,,,,,,,,,,,,,,,,,,,,,,,,,,,,,,,,,,,,,,,,,,,,,,,,,
,,6312ada1ce715ee3916c3748,2022-09-08_14h18.19.034,CGTgamblingSpanTasks,2022.2.1,Linux armv8l,59.62318149,,,,,,,3.204,,,,,,,,,,,,,,,2,n,0.796,28.14876717,1,4.704,1.5,,,,,,28.14876717,0,3.117906378,,,,,,,,,,,,,0,59,59,76,1,0.470636736,1,,,,,,,,,,,,,,,,,,,,,,,,,,,,,,,,,,,,,,,,,,,,,,,,,,,,,,,,,,,,,,,,,,,,,,,,,,,,,,,,
,,6312ada1ce715ee3916c3748,2022-09-08_14h18.19.034,CGTgamblingSpanTasks,2022.2.1,Linux armv8l,59.62318149,,,,,,,2.5403,,,,,,,,,,,,,,,2,v,1.4597,11.61882862,0,3.5403,1,,,,,,4.022743614,0,11.61882862,,,,,,,,,,,,,0,60,60,38,1,0.011499376,0,,,,,,,,,,,,,,,,,,,,,,,,,,,,,,,,,,,,,,,,,,,,,,,,,,,,,,,,,,,,,,,,,,,,,,,,,,,,,,,,
,,6312ada1ce715ee3916c3748,2022-09-08_14h18.19.034,CGTgamblingSpanTasks,2022.2.1,Linux armv8l,59.62318149,,,,,,,2.1526,,,,,,,,,,,,,,,1,v,1.8474,0,1,3.6526,1.5,,,,,,13.4287264,0,1.317368801,,,,,,,,,,,,,0,61,61,100,1,0.502953125,1,,,,,,,,,,,,,,,,,,,,,,,,,,,,,,,,,,,,,,,,,,,,,,,,,,,,,,,,,,,,,,,,,,,,,,,,,,,,,,,,
,,6312ada1ce715ee3916c3748,2022-09-08_14h18.19.034,CGTgamblingSpanTasks,2022.2.1,Linux armv8l,59.62318149,,,,,,,3.1015,,,,,,,,,,,,,,,1,v,0.8985,0,1,4.6015,1.5,,,,,,15.43649625,0,1.65459324,,,,,,,,,,,,,0,62,62,33,1,0.479480163,1,,,,,,,,,,,,,,,,,,,,,,,,,,,,,,,,,,,,,,,,,,,,,,,,,,,,,,,,,,,,,,,,,,,,,,,,,,,,,,,,
,,6312ada1ce715ee3916c3748,2022-09-08_14h18.19.034,CGTgamblingSpanTasks,2022.2.1,Linux armv8l,59.62318149,,,,,,,2.2704,,,,,,,,,,,,,,,2,n,1.7296,0,1,3.2704,1,,,,,,21.46599803,0,0.059789256,,,,,,,,,,,,,0,63,63,8,1,0.909019081,0,,,,,,,,,,,,,,,,,,,,,,,,,,,,,,,,,,,,,,,,,,,,,,,,,,,,,,,,,,,,,,,,,,,,,,,,,,,,,,,,
,,6312ada1ce715ee3916c3748,2022-09-08_14h18.19.034,CGTgamblingSpanTasks,2022.2.1,Linux armv8l,59.62318149,,,,,,,2.1312,,,,,,,,,,,,,,,1,v,1.8688,28.33977875,1,3.1312,1,,,,,,28.33977875,0,2.768313633,,,,,,,,,,,,,0,64,64,116,1,0.50406901,1,,,,,,,,,,,,,,,,,,,,,,,,,,,,,,,,,,,,,,,,,,,,,,,,,,,,,,,,,,,,,,,,,,,,,,,,,,,,,,,,
,,6312ada1ce715ee3916c3748,2022-09-08_14h18.19.034,CGTgamblingSpanTasks,2022.2.1,Linux armv8l,59.62318149,,,,,,,2.9584,,,,,,,,,,,,,,,1,v,1.0416,21.39646914,1,3.9584,1,,,,,,21.39646914,0,0.072474078,,,,,,,,,,,,,0,65,65,3,1,0.902848133,0,,,,,,,,,,,,,,,,,,,,,,,,,,,,,,,,,,,,,,,,,,,,,,,,,,,,,,,,,,,,,,,,,,,,,,,,,,,,,,,,
,,6312ada1ce715ee3916c3748,2022-09-08_14h18.19.034,CGTgamblingSpanTasks,2022.2.1,Linux armv8l,59.62318149,,,,,,,3.0077,,,,,,,,,,,,,,,1,v,0.9923,26.11188619,1,4.0077,1,,,,,,26.11188619,0,0.081942421,,,,,,,,,,,,,0,66,66,105,1,0.905343856,0,,,,,,,,,,,,,,,,,,,,,,,,,,,,,,,,,,,,,,,,,,,,,,,,,,,,,,,,,,,,,,,,,,,,,,,,,,,,,,,,
,,6312ada1ce715ee3916c3748,2022-09-08_14h18.19.034,CGTgamblingSpanTasks,2022.2.1,Linux armv8l,59.62318149,,,,,,,2.8771,,,,,,,,,,,,,,,1,v,1.1229,0,1,4.3771,1.5,,,,,,21.16780451,0,2.469465385,,,,,,,,,,,,,0,67,67,32,1,0.456531699,1,,,,,,,,,,,,,,,,,,,,,,,,,,,,,,,,,,,,,,,,,,,,,,,,,,,,,,,,,,,,,,,,,,,,,,,,,,,,,,,,
,,6312ada1ce715ee3916c3748,2022-09-08_14h18.19.034,CGTgamblingSpanTasks,2022.2.1,Linux armv8l,59.62318149,,,,,,,2.5025,,,,,,,,,,,,,,,1,v,1.4975,10.05300841,1,3.5025,1,,,,,,10.05300841,0,8.512335864,,,,,,,,,,,,,0,68,68,74,1,0.040729225,0,,,,,,,,,,,,,,,,,,,,,,,,,,,,,,,,,,,,,,,,,,,,,,,,,,,,,,,,,,,,,,,,,,,,,,,,,,,,,,,,
,,6312ada1ce715ee3916c3748,2022-09-08_14h18.19.034,CGTgamblingSpanTasks,2022.2.1,Linux armv8l,59.62318149,,,,,,,2.6661,,,,,,,,,,,,,,,1,n,1.3339,8.42547829,0,3.6661,1,,,,,,15.87668502,0,8.42547829,,,,,,,,,,,,,0,69,69,56,1,0.092099462,0,,,,,,,,,,,,,,,,,,,,,,,,,,,,,,,,,,,,,,,,,,,,,,,,,,,,,,,,,,,,,,,,,,,,,,,,,,,,,,,,
,,6312ada1ce715ee3916c3748,2022-09-08_14h18.19.034,CGTgamblingSpanTasks,2022.2.1,Linux armv8l,59.62318149,,,,,,,3.2089,,,,,,,,,,,,,,,2,n,0.7911,0,1,4.7089,1.5,,,,,,17.30137174,0,1.716380842,,,,,,,,,,,,,0,70,70,20,1,0.500020285,1,,,,,,,,,,,,,,,,,,,,,,,,,,,,,,,,,,,,,,,,,,,,,,,,,,,,,,,,,,,,,,,,,,,,,,,,,,,,,,,,
,,6312ada1ce715ee3916c3748,2022-09-08_14h18.19.034,CGTgamblingSpanTasks,2022.2.1,Linux armv8l,59.62318149,,,,,,,2.8446,,,,,,,,,,,,,,,2,n,1.1554,18.51345298,1,3.8446,1,,,,,,18.51345298,0,1.932334278,,,,,,,,,,,,,0,71,71,31,1,0.48658696,1,,,,,,,,,,,,,,,,,,,,,,,,,,,,,,,,,,,,,,,,,,,,,,,,,,,,,,,,,,,,,,,,,,,,,,,,,,,,,,,,
,,6312ada1ce715ee3916c3748,2022-09-08_14h18.19.034,CGTgamblingSpanTasks,2022.2.1,Linux armv8l,59.62318149,,,,,,,2.4685,,,,,,,,,,,,,,,1,v,1.5315,28.9323758,1,3.9685,1.5,,,,,,28.9323758,0,2.893007023,,,,,,,,,,,,,0,72,72,11,1,0.497943321,1,,,,,,,,,,,,,,,,,,,,,,,,,,,,,,,,,,,,,,,,,,,,,,,,,,,,,,,,,,,,,,,,,,,,,,,,,,,,,,,,
,,6312ada1ce715ee3916c3748,2022-09-08_14h18.19.034,CGTgamblingSpanTasks,2022.2.1,Linux armv8l,59.62318149,,,,,,,2.4953,,,,,,,,,,,,,,,1,v,1.5047,19.36415485,1,3.4953,1,,,,,,19.36415485,0,1.966229494,,,,,,,,,,,,,0,73,73,96,1,0.493893111,1,,,,,,,,,,,,,,,,,,,,,,,,,,,,,,,,,,,,,,,,,,,,,,,,,,,,,,,,,,,,,,,,,,,,,,,,,,,,,,,,
,,6312ada1ce715ee3916c3748,2022-09-08_14h18.19.034,CGTgamblingSpanTasks,2022.2.1,Linux armv8l,59.62318149,,,,,,,2.6138,,,,,,,,,,,,,,,1,v,1.3862,22.25959835,1,3.6138,1,,,,,,22.25959835,0,0.065383587,,,,,,,,,,,,,0,74,74,97,1,0.907413875,0,,,,,,,,,,,,,,,,,,,,,,,,,,,,,,,,,,,,,,,,,,,,,,,,,,,,,,,,,,,,,,,,,,,,,,,,,,,,,,,,
,,6312ada1ce715ee3916c3748,2022-09-08_14h18.19.034,CGTgamblingSpanTasks,2022.2.1,Linux armv8l,59.62318149,,,,,,,2.972,,,,,,,,,,,,,,,1,v,1.028,24.57684014,1,3.972,1,,,,,,24.57684014,0,0.061756244,,,,,,,,,,,,,0,75,75,68,1,0.911988903,0,,,,,,,,,,,,,,,,,,,,,,,,,,,,,,,,,,,,,,,,,,,,,,,,,,,,,,,,,,,,,,,,,,,,,,,,,,,,,,,,
,,6312ada1ce715ee3916c3748,2022-09-08_14h18.19.034,CGTgamblingSpanTasks,2022.2.1,Linux armv8l,59.62318149,,,,,,,3.0898,,,,,,,,,,,,,,,2,n,0.9102,21.7711579,1,4.0898,1,,,,,,21.7711579,0,2.502728921,,,,,,,,,,,,,0,76,76,101,1,0.460552621,1,,,,,,,,,,,,,,,,,,,,,,,,,,,,,,,,,,,,,,,,,,,,,,,,,,,,,,,,,,,,,,,,,,,,,,,,,,,,,,,,
,,6312ada1ce715ee3916c3748,2022-09-08_14h18.19.034,CGTgamblingSpanTasks,2022.2.1,Linux armv8l,59.62318149,,,,,,,2.9637,,,,,,,,,,,,,,,2,n,1.0363,0,1,3.9637,1,,,,,,12.9904115,0,11.42134125,,,,,,,,,,,,,0,77,77,118,1,0.037876033,0,,,,,,,,,,,,,,,,,,,,,,,,,,,,,,,,,,,,,,,,,,,,,,,,,,,,,,,,,,,,,,,,,,,,,,,,,,,,,,,,
,,6312ada1ce715ee3916c3748,2022-09-08_14h18.19.034,CGTgamblingSpanTasks,2022.2.1,Linux armv8l,59.62318149,,,,,,,2.9304,,,,,,,,,,,,,,,1,v,1.0696,21.48443242,1,3.9304,1,,,,,,21.48443242,0,2.229247341,,,,,,,,,,,,,0,78,78,63,1,0.488155912,1,,,,,,,,,,,,,,,,,,,,,,,,,,,,,,,,,,,,,,,,,,,,,,,,,,,,,,,,,,,,,,,,,,,,,,,,,,,,,,,,
,,6312ada1ce715ee3916c3748,2022-09-08_14h18.19.034,CGTgamblingSpanTasks,2022.2.1,Linux armv8l,59.62318149,,,,,,,3.0305,,,,,,,,,,,,,,,2,n,0.9695,0,1,4.5305,1.5,,,,,,23.24777057,0,2.003482335,,,,,,,,,,,,,0,79,79,59,1,0.536135174,1,,,,,,,,,,,,,,,,,,,,,,,,,,,,,,,,,,,,,,,,,,,,,,,,,,,,,,,,,,,,,,,,,,,,,,,,,,,,,,,,
,,6312ada1ce715ee3916c3748,2022-09-08_14h18.19.034,CGTgamblingSpanTasks,2022.2.1,Linux armv8l,59.62318149,,,,,,,2.9167,,,,,,,,,,,,,,,1,v,1.0833,0,1,3.9167,1,,,,,,27.38828234,0,0.0639233,,,,,,,,,,,,,0,80,80,43,1,0.914010176,0,,,,,,,,,,,,,,,,,,,,,,,,,,,,,,,,,,,,,,,,,,,,,,,,,,,,,,,,,,,,,,,,,,,,,,,,,,,,,,,,
,,6312ada1ce715ee3916c3748,2022-09-08_14h18.19.034,CGTgamblingSpanTasks,2022.2.1,Linux armv8l,59.62318149,,,,,,,2.76,,,,,,,,,,,,,,,1,n,1.24,8.653432553,0,3.76,1,,,,,,15.13999312,0,8.653432553,,,,,,,,,,,,,0,81,81,54,1,0.081767484,0,,,,,,,,,,,,,,,,,,,,,,,,,,,,,,,,,,,,,,,,,,,,,,,,,,,,,,,,,,,,,,,,,,,,,,,,,,,,,,,,
,,6312ada1ce715ee3916c3748,2022-09-08_14h18.19.034,CGTgamblingSpanTasks,2022.2.1,Linux armv8l,59.62318149,,,,,,,2.3236,,,,,,,,,,,,,,,2,n,1.6764,28.9381277,1,3.3236,1,,,,,,28.9381277,0,2.663622024,,,,,,,,,,,,,0,82,82,103,1,0.519453367,1,,,,,,,,,,,,,,,,,,,,,,,,,,,,,,,,,,,,,,,,,,,,,,,,,,,,,,,,,,,,,,,,,,,,,,,,,,,,,,,,
,,6312ada1ce715ee3916c3748,2022-09-08_14h18.19.034,CGTgamblingSpanTasks,2022.2.1,Linux armv8l,59.62318149,,,,,,,3.1445,,,,,,,,,,,,,,,2,n,0.8555,27.57491653,1,4.1445,1,,,,,,27.57491653,0,2.99133314,,,,,,,,,,,,,0,83,83,10,1,0.47625893,1,,,,,,,,,,,,,,,,,,,,,,,,,,,,,,,,,,,,,,,,,,,,,,,,,,,,,,,,,,,,,,,,,,,,,,,,,,,,,,,,
,,6312ada1ce715ee3916c3748,2022-09-08_14h18.19.034,CGTgamblingSpanTasks,2022.2.1,Linux armv8l,59.62318149,,,,,,,3.7362,,,,,,,,,,,,,,,2,n,0.2638,6.307062696,1,5.2362,1.5,,,,,,6.307062696,0,10.41201161,,,,,,,,,,,,,0,84,84,23,1,0.018187109,0,,,,,,,,,,,,,,,,,,,,,,,,,,,,,,,,,,,,,,,,,,,,,,,,,,,,,,,,,,,,,,,,,,,,,,,,,,,,,,,,
,,6312ada1ce715ee3916c3748,2022-09-08_14h18.19.034,CGTgamblingSpanTasks,2022.2.1,Linux armv8l,59.62318149,,,,,,,3.1071,,,,,,,,,,,,,,,2,n,0.8929,0,1,4.1071,1,,,,,,19.58698544,0,9.936178001,,,,,,,,,,,,,0,85,85,77,1,0.098812204,0,,,,,,,,,,,,,,,,,,,,,,,,,,,,,,,,,,,,,,,,,,,,,,,,,,,,,,,,,,,,,,,,,,,,,,,,,,,,,,,,
,,6312ada1ce715ee3916c3748,2022-09-08_14h18.19.034,CGTgamblingSpanTasks,2022.2.1,Linux armv8l,59.62318149,,,,,,,2.7563,,,,,,,,,,,,,,,1,v,1.2437,0,1,3.7563,1,,,,,,25.65316415,0,0.079652925,,,,,,,,,,,,,0,86,86,109,1,0.90568168,0,,,,,,,,,,,,,,,,,,,,,,,,,,,,,,,,,,,,,,,,,,,,,,,,,,,,,,,,,,,,,,,,,,,,,,,,,,,,,,,,
,,6312ada1ce715ee3916c3748,2022-09-08_14h18.19.034,CGTgamblingSpanTasks,2022.2.1,Linux armv8l,59.62318149,,,,,,,3.2646,,,,,,,,,,,,,,,2,n,0.7354,25.0707644,1,4.2646,1,,,,,,25.0707644,0,0.067651625,,,,,,,,,,,,,0,87,87,70,1,0.909952349,0,,,,,,,,,,,,,,,,,,,,,,,,,,,,,,,,,,,,,,,,,,,,,,,,,,,,,,,,,,,,,,,,,,,,,,,,,,,,,,,,
,,6312ada1ce715ee3916c3748,2022-09-08_14h18.19.034,CGTgamblingSpanTasks,2022.2.1,Linux armv8l,59.62318149,,,,,,,2.618,,,,,,,,,,,,,,,1,n,1.382,6.781500919,0,4.118,1.5,,,,,,8.363821911,0,6.781500919,,,,,,,,,,,,,0,88,88,61,1,0.044227959,0,,,,,,,,,,,,,,,,,,,,,,,,,,,,,,,,,,,,,,,,,,,,,,,,,,,,,,,,,,,,,,,,,,,,,,,,,,,,,,,,
,,6312ada1ce715ee3916c3748,2022-09-08_14h18.19.034,CGTgamblingSpanTasks,2022.2.1,Linux armv8l,59.62318149,,,,,,,2.7781,,,,,,,,,,,,,,,2,v,1.2219,4.251676631,0,4.2781,1.5,,,,,,3.395192929,0,4.251676631,,,,,,,,,,,,,0,89,89,7,1,0.023467153,0,,,,,,,,,,,,,,,,,,,,,,,,,,,,,,,,,,,,,,,,,,,,,,,,,,,,,,,,,,,,,,,,,,,,,,,,,,,,,,,,
,,6312ada1ce715ee3916c3748,2022-09-08_14h18.19.034,CGTgamblingSpanTasks,2022.2.1,Linux armv8l,59.62318149,,,,,,,3.0207,,,,,,,,,,,,,,,1,v,0.9793,0,1,4.5207,1.5,,,,,,9.012590634,0,1.002188111,,,,,,,,,,,,,0,90,90,12,1,0.46958041,1,,,,,,,,,,,,,,,,,,,,,,,,,,,,,,,,,,,,,,,,,,,,,,,,,,,,,,,,,,,,,,,,,,,,,,,,,,,,,,,,
,,6312ada1ce715ee3916c3748,2022-09-08_14h18.19.034,CGTgamblingSpanTasks,2022.2.1,Linux armv8l,59.62318149,,,,,,,2.774,,,,,,,,,,,,,,,2,n,1.226,14.20587264,1,4.274,1.5,,,,,,14.20587264,0,11.93550497,,,,,,,,,,,,,0,91,91,21,1,0.041340301,0,,,,,,,,,,,,,,,,,,,,,,,,,,,,,,,,,,,,,,,,,,,,,,,,,,,,,,,,,,,,,,,,,,,,,,,,,,,,,,,,
,,6312ada1ce715ee3916c3748,2022-09-08_14h18.19.034,CGTgamblingSpanTasks,2022.2.1,Linux armv8l,59.62318149,,,,,,,3.1746,,,,,,,,,,,,,,,1,v,0.8254,0,1,4.6746,1.5,,,,,,27.7711693,0,2.320849632,,,,,,,,,,,,,0,92,92,94,1,0.543786368,1,,,,,,,,,,,,,,,,,,,,,,,,,,,,,,,,,,,,,,,,,,,,,,,,,,,,,,,,,,,,,,,,,,,,,,,,,,,,,,,,
,,6312ada1ce715ee3916c3748,2022-09-08_14h18.19.034,CGTgamblingSpanTasks,2022.2.1,Linux armv8l,59.62318149,,,,,,,3.0416,,,,,,,,,,,,,,,1,v,0.9584,0,1,4.5416,1.5,,,,,,25.21882231,0,0.085746782,,,,,,,,,,,,,0,93,93,64,1,0.90272076,0,,,,,,,,,,,,,,,,,,,,,,,,,,,,,,,,,,,,,,,,,,,,,,,,,,,,,,,,,,,,,,,,,,,,,,,,,,,,,,,,
,,6312ada1ce715ee3916c3748,2022-09-08_14h18.19.034,CGTgamblingSpanTasks,2022.2.1,Linux armv8l,59.62318149,,,,,,,2.653,,,,,,,,,,,,,,,1,v,1.347,0,1,3.653,1,,,,,,18.20422443,0,1.635040165,,,,,,,,,,,,,0,94,94,82,1,0.525708991,1,,,,,,,,,,,,,,,,,,,,,,,,,,,,,,,,,,,,,,,,,,,,,,,,,,,,,,,,,,,,,,,,,,,,,,,,,,,,,,,,
,,6312ada1ce715ee3916c3748,2022-09-08_14h18.19.034,CGTgamblingSpanTasks,2022.2.1,Linux armv8l,59.62318149,,,,,,,2.3741,,,,,,,,,,,,,,,2,v,1.6259,6.091504705,0,3.8741,1.5,,,,,,6.662965216,0,6.091504705,,,,,,,,,,,,,0,95,95,102,1,0.035087099,0,,,,,,,,,,,,,,,,,,,,,,,,,,,,,,,,,,,,,,,,,,,,,,,,,,,,,,,,,,,,,,,,,,,,,,,,,,,,,,,,
,,6312ada1ce715ee3916c3748,2022-09-08_14h18.19.034,CGTgamblingSpanTasks,2022.2.1,Linux armv8l,59.62318149,,,,,,,1.0151,,,,,,,,,,,,,,,1,v,2.9849,25.76582409,1,2.0151,1,,,,,,25.76582409,0,2.393193076,,,,,,,,,,,,,0,96,96,46,1,0.517129855,1,,,,,,,,,,,,,,,,,,,,,,,,,,,,,,,,,,,,,,,,,,,,,,,,,,,,,,,,,,,,,,,,,,,,,,,,,,,,,,,,
,,6312ada1ce715ee3916c3748,2022-09-08_14h18.19.034,CGTgamblingSpanTasks,2022.2.1,Linux armv8l,59.62318149,,,,,,,2.7111,,,,,,,,,,,,,,,2,n,1.2889,0,1,3.7111,1,,,,,,21.00799273,0,0.067969053,,,,,,,,,,,,,0,97,97,92,1,0.904360262,0,,,,,,,,,,,,,,,,,,,,,,,,,,,,,,,,,,,,,,,,,,,,,,,,,,,,,,,,,,,,,,,,,,,,,,,,,,,,,,,,
,,6312ada1ce715ee3916c3748,2022-09-08_14h18.19.034,CGTgamblingSpanTasks,2022.2.1,Linux armv8l,59.62318149,,,,,,,2.6447,,,,,,,,,,,,,,,1,v,1.3553,23.4214135,1,4.1447,1.5,,,,,,23.4214135,0,2.485985001,,,,,,,,,,,,,0,98,98,81,1,0.482105905,1,,,,,,,,,,,,,,,,,,,,,,,,,,,,,,,,,,,,,,,,,,,,,,,,,,,,,,,,,,,,,,,,,,,,,,,,,,,,,,,,
,,6312ada1ce715ee3916c3748,2022-09-08_14h18.19.034,CGTgamblingSpanTasks,2022.2.1,Linux armv8l,59.62318149,,,,,,,2.2148,,,,,,,,,,,,,,,1,v,1.7852,9.725876653,1,3.2148,1,,,,,,9.725876653,0,5.526483034,,,,,,,,,,,,,0,99,99,44,1,0.082550696,0,,,,,,,,,,,,,,,,,,,,,,,,,,,,,,,,,,,,,,,,,,,,,,,,,,,,,,,,,,,,,,,,,,,,,,,,,,,,,,,,
,,6312ada1ce715ee3916c3748,2022-09-08_14h18.19.034,CGTgamblingSpanTasks,2022.2.1,Linux armv8l,59.62318149,,,,,,,2.9697,,,,,,,,,,,,,,,2,n,1.0303,0,1,3.9697,1,,,,,,27.53810185,0,0.097022401,,,,,,,,,,,,,0,100,100,50,1,0.901515865,0,,,,,,,,,,,,,,,,,,,,,,,,,,,,,,,,,,,,,,,,,,,,,,,,,,,,,,,,,,,,,,,,,,,,,,,,,,,,,,,,
,,6312ada1ce715ee3916c3748,2022-09-08_14h18.19.034,CGTgamblingSpanTasks,2022.2.1,Linux armv8l,59.62318149,,,,,,,2.4898,,,,,,,,,,,,,,,1,v,1.5102,0,1,3.9898,1.5,,,,,,27.12325385,0,0.080932047,,,,,,,,,,,,,0,101,101,14,1,0.906929184,0,,,,,,,,,,,,,,,,,,,,,,,,,,,,,,,,,,,,,,,,,,,,,,,,,,,,,,,,,,,,,,,,,,,,,,,,,,,,,,,,
,,6312ada1ce715ee3916c3748,2022-09-08_14h18.19.034,CGTgamblingSpanTasks,2022.2.1,Linux armv8l,59.62318149,,,,,,,2.3109,,,,,,,,,,,,,,,1,v,1.6891,0,1,3.3109,1,,,,,,19.5450126,0,2.123581464,,,,,,,,,,,,,0,102,102,65,1,0.475836144,1,,,,,,,,,,,,,,,,,,,,,,,,,,,,,,,,,,,,,,,,,,,,,,,,,,,,,,,,,,,,,,,,,,,,,,,,,,,,,,,,
,,6312ada1ce715ee3916c3748,2022-09-08_14h18.19.034,CGTgamblingSpanTasks,2022.2.1,Linux armv8l,59.62318149,,,,,,,2.1398,,,,,,,,,,,,,,,2,n,1.8602,21.03408097,1,3.1398,1,,,,,,21.03408097,0,2.208275162,,,,,,,,,,,,,0,103,103,0,1,0.485031246,1,,,,,,,,,,,,,,,,,,,,,,,,,,,,,,,,,,,,,,,,,,,,,,,,,,,,,,,,,,,,,,,,,,,,,,,,,,,,,,,,
,,6312ada1ce715ee3916c3748,2022-09-08_14h18.19.034,CGTgamblingSpanTasks,2022.2.1,Linux armv8l,59.62318149,,,,,,,1.2937,,,,,,,,,,,,,,,2,n,2.7063,0,1,2.7937,1.5,,,,,,22.87092517,0,0.059276504,,,,,,,,,,,,,0,104,104,27,1,0.911114935,0,,,,,,,,,,,,,,,,,,,,,,,,,,,,,,,,,,,,,,,,,,,,,,,,,,,,,,,,,,,,,,,,,,,,,,,,,,,,,,,,
,,6312ada1ce715ee3916c3748,2022-09-08_14h18.19.034,CGTgamblingSpanTasks,2022.2.1,Linux armv8l,59.62318149,,,,,,,2.2869,,,,,,,,,,,,,,,2,v,1.7131,11.19311486,0,3.2869,1,,,,,,8.17598802,0,11.19311486,,,,,,,,,,,,,0,105,105,110,1,0.021568003,0,,,,,,,,,,,,,,,,,,,,,,,,,,,,,,,,,,,,,,,,,,,,,,,,,,,,,,,,,,,,,,,,,,,,,,,,,,,,,,,,
,,6312ada1ce715ee3916c3748,2022-09-08_14h18.19.034,CGTgamblingSpanTasks,2022.2.1,Linux armv8l,59.62318149,,,,,,,1.5519,,,,,,,,,,,,,,,2,n,2.4481,0,1,3.0519,1.5,,,,,,27.93093084,0,0.050207531,,,,,,,,,,,,,0,106,106,83,1,0.920505936,0,,,,,,,,,,,,,,,,,,,,,,,,,,,,,,,,,,,,,,,,,,,,,,,,,,,,,,,,,,,,,,,,,,,,,,,,,,,,,,,,
,,6312ada1ce715ee3916c3748,2022-09-08_14h18.19.034,CGTgamblingSpanTasks,2022.2.1,Linux armv8l,59.62318149,,,,,,,1.4527,,,,,,,,,,,,,,,2,n,2.5473,10.43004651,1,2.4527,1,,,,,,10.43004651,0,11.6744431,,,,,,,,,,,,,0,107,107,15,1,0.026176489,0,,,,,,,,,,,,,,,,,,,,,,,,,,,,,,,,,,,,,,,,,,,,,,,,,,,,,,,,,,,,,,,,,,,,,,,,,,,,,,,,
,,6312ada1ce715ee3916c3748,2022-09-08_14h18.19.034,CGTgamblingSpanTasks,2022.2.1,Linux armv8l,59.62318149,,,,,,,1.92,,,,,,,,,,,,,,,2,n,2.08,0,1,2.92,1,,,,,,15.73000491,0,8.830252162,,,,,,,,,,,,,0,108,108,95,1,0.084193143,0,,,,,,,,,,,,,,,,,,,,,,,,,,,,,,,,,,,,,,,,,,,,,,,,,,,,,,,,,,,,,,,,,,,,,,,,,,,,,,,,
,,6312ada1ce715ee3916c3748,2022-09-08_14h18.19.034,CGTgamblingSpanTasks,2022.2.1,Linux armv8l,59.62318149,,,,,,,3.0806,,,,,,,,,,,,,,,2,n,0.9194,0,1,4.0806,1,,,,,,29.76099779,0,0.095763086,,,,,,,,,,,,,0,109,109,35,1,0.904537896,0,,,,,,,,,,,,,,,,,,,,,,,,,,,,,,,,,,,,,,,,,,,,,,,,,,,,,,,,,,,,,,,,,,,,,,,,,,,,,,,,
,,6312ada1ce715ee3916c3748,2022-09-08_14h18.19.034,CGTgamblingSpanTasks,2022.2.1,Linux armv8l,59.62318149,,,,,,,1.9387,,,,,,,,,,,,,,,2,n,2.0613,0,1,2.9387,1,,,,,,11.16819157,0,0.941456753,,,,,,,,,,,,,0,110,110,45,1,0.54163803,1,,,,,,,,,,,,,,,,,,,,,,,,,,,,,,,,,,,,,,,,,,,,,,,,,,,,,,,,,,,,,,,,,,,,,,,,,,,,,,,,
,,6312ada1ce715ee3916c3748,2022-09-08_14h18.19.034,CGTgamblingSpanTasks,2022.2.1,Linux armv8l,59.62318149,,,,,,,1.8543,,,,,,,,,,,,,,,1,v,2.1457,11.08143071,1,3.3543,1.5,,,,,,11.08143071,0,1.207538756,,,,,,,,,,,,,0,111,111,84,1,0.475047453,1,,,,,,,,,,,,,,,,,,,,,,,,,,,,,,,,,,,,,,,,,,,,,,,,,,,,,,,,,,,,,,,,,,,,,,,,,,,,,,,,
,,6312ada1ce715ee3916c3748,2022-09-08_14h18.19.034,CGTgamblingSpanTasks,2022.2.1,Linux armv8l,59.62318149,,,,,,,2.7941,,,,,,,,,,,,,,,1,v,1.2059,0,1,3.7941,1,,,,,,29.75778644,0,2.810531415,,,,,,,,,,,,,0,112,112,113,1,0.512824233,1,,,,,,,,,,,,,,,,,,,,,,,,,,,,,,,,,,,,,,,,,,,,,,,,,,,,,,,,,,,,,,,,,,,,,,,,,,,,,,,,
,,6312ada1ce715ee3916c3748,2022-09-08_14h18.19.034,CGTgamblingSpanTasks,2022.2.1,Linux armv8l,59.62318149,,,,,,,3.1652,,,,,,,,,,,,,,,2,n,0.8348,28.13634754,1,4.6652,1.5,,,,,,28.13634754,0,2.532806323,,,,,,,,,,,,,0,113,113,28,1,0.525136524,1,,,,,,,,,,,,,,,,,,,,,,,,,,,,,,,,,,,,,,,,,,,,,,,,,,,,,,,,,,,,,,,,,,,,,,,,,,,,,,,,
,,6312ada1ce715ee3916c3748,2022-09-08_14h18.19.034,CGTgamblingSpanTasks,2022.2.1,Linux armv8l,59.62318149,,,,,,,3.0114,,,,,,,,,,,,,,,1,v,0.9886,0,1,4.5114,1.5,,,,,,28.94627214,0,2.701896413,,,,,,,,,,,,,0,114,114,111,1,0.515860759,1,,,,,,,,,,,,,,,,,,,,,,,,,,,,,,,,,,,,,,,,,,,,,,,,,,,,,,,,,,,,,,,,,,,,,,,,,,,,,,,,
,,6312ada1ce715ee3916c3748,2022-09-08_14h18.19.034,CGTgamblingSpanTasks,2022.2.1,Linux armv8l,59.62318149,,,,,,,2.8949,,,,,,,,,,,,,,,1,v,1.1051,27.2532142,1,3.8949,1,,,,,,27.2532142,0,0.08089327,,,,,,,,,,,,,0,115,115,119,1,0.907091845,0,,,,,,,,,,,,,,,,,,,,,,,,,,,,,,,,,,,,,,,,,,,,,,,,,,,,,,,,,,,,,,,,,,,,,,,,,,,,,,,,
,,6312ada1ce715ee3916c3748,2022-09-08_14h18.19.034,CGTgamblingSpanTasks,2022.2.1,Linux armv8l,59.62318149,,,,,,,3.0824,,,,,,,,,,,,,,,1,v,0.9176,17.92584289,1,4.5824,1.5,,,,,,17.92584289,0,1.878232496,,,,,,,,,,,,,0,116,116,5,1,0.485559263,1,,,,,,,,,,,,,,,,,,,,,,,,,,,,,,,,,,,,,,,,,,,,,,,,,,,,,,,,,,,,,,,,,,,,,,,,,,,,,,,,
,,6312ada1ce715ee3916c3748,2022-09-08_14h18.19.034,CGTgamblingSpanTasks,2022.2.1,Linux armv8l,59.62318149,,,,,,,3.22,,,,,,,,,,,,,,,2,n,0.78,21.17800335,1,4.72,1.5,,,,,,21.17800335,0,0.059830985,,,,,,,,,,,,,0,117,117,67,1,0.908594974,0,,,,,,,,,,,,,,,,,,,,,,,,,,,,,,,,,,,,,,,,,,,,,,,,,,,,,,,,,,,,,,,,,,,,,,,,,,,,,,,,
,,6312ada1ce715ee3916c3748,2022-09-08_14h18.19.034,CGTgamblingSpanTasks,2022.2.1,Linux armv8l,59.62318149,,,,,,,2.7592,,,,,,,,,,,,,,,1,v,1.2408,0,1,4.2592,1.5,,,,,,22.62475578,0,2.397643354,,,,,,,,,,,,,0,118,118,93,1,0.482527609,1,,,,,,,,,,,,,,,,,,,,,,,,,,,,,,,,,,,,,,,,,,,,,,,,,,,,,,,,,,,,,,,,,,,,,,,,,,,,,,,,
,,6312ada1ce715ee3916c3748,2022-09-08_14h18.19.034,CGTgamblingSpanTasks,2022.2.1,Linux armv8l,59.62318149,,,,,,,1.8355,,,,,,,,,,,,,,,1,v,2.1645,27.4965044,1,3.3355,1.5,,,,,,27.4965044,0,2.461467004,,,,,,,,,,,,,0,119,119,36,1,0.526550878,1,,,,,,,,,,,,,,,,,,,,,,,,,,,,,,,,,,,,,,,,,,,,,,,,,,,,,,,,,,,,,,,,,,,,,,,,,,,,,,,,
,,6312ada1ce715ee3916c3748,2022-09-08_14h18.19.034,CGTgamblingSpanTasks,2022.2.1,Linux armv8l,59.62318149,,,,,,,,,,,,,,,,,,,,,,,,,,,,,,,,,,,,,,,,,,,,,,,,,,,,,,,,return,122.4827,,,,,,,,,,,,,,,,,,,,,,,,,,,,,,,,,,,,,,,,,,,,,,,,,,,,,,,,,,,,,,,,,,,,,,,,,,,,,,
,,6312ada1ce715ee3916c3748,2022-09-08_14h18.19.034,CGTgamblingSpanTasks,2022.2.1,Linux armv8l,59.62318149,,,,,,,,,,,,,,,,,,,,,,,,,,,,,,,,,,,,,,,,,,,,,,,,,,,,,,,,,,return,7.0125,,,,,,,,,,,,,,,,,,,,,,,,,,,,,,,,,,,,,,,,,,,,,,,,,,,,,,,,,,,,,,,,,,,,,,,,,,,,
,,6312ada1ce715ee3916c3748,2022-09-08_14h18.19.034,CGTgamblingSpanTasks,2022.2.1,Linux armv8l,59.62318149,,,,,,,,,,,,,,,,,,,,,,,,,,,,,,,,,,,,,,,,,,,,,,,,,,,,,,,,,,,,return,32.5793,,,,,,,,,,,,,,,,,,,,,,,,,,,,,,,,,,,,,,,,,,,,,,,,,,,,,,,,,,,,,,,,,,,,,,,,,,
,,6312ada1ce715ee3916c3748,2022-09-08_14h18.19.034,CGTgamblingSpanTasks,2022.2.1,Linux armv8l,59.62318149,,,,,,,,,,,,,,,,,,,,,,,,,,,,,,,,,,,,,,,,,,,,,,,,,,,,,,,,,,,,,,542,0,0.050390472,-0.410074997,1,0,0,cont_buttonPractice,0,0,0,0,1,3,342,24,2,42,,,,,,,,,,,,,,,,,,,,,,,,,,,,,,,,,,,,,,,,,,,,,,,,,,,,,,,,
,,6312ada1ce715ee3916c3748,2022-09-08_14h18.19.034,CGTgamblingSpanTasks,2022.2.1,Linux armv8l,59.62318149,,,,,,,,,,,,,,,,,,,,,,,,,,,,,,,,,,,,,,,,,,,,,,,,,,,,,,,,,,,,,,937,1,0.064549789,-0.399250717,1,0,0,cont_buttonPractice,0,1,1,1,1,3,937,73,2,37,,,,,,,,,,,,,,,,,,,,,,,,,,,,,,,,,,,,,,,,,,,,,,,,,,,,,,,,
,,6312ada1ce715ee3916c3748,2022-09-08_14h18.19.034,CGTgamblingSpanTasks,2022.2.1,Linux armv8l,59.62318149,,,,,,,,,,,,,,,,,,,,,,,,,,,,,,,,,,,,,,,,,,,,,,,,,,,,,,,,,,,,,,,,,,,,,,,,,,,,,,,,return,3.8035,,,,,,,,,,,,,,,,,,,,,,,,,,,,,,,,,,,,,,,,,,,,,,,,,,,,,,
,,6312ada1ce715ee3916c3748,2022-09-08_14h18.19.034,CGTgamblingSpanTasks,2022.2.1,Linux armv8l,59.62318149,,,,,,,,,,,,,,,,,,,,,,,,,,,,,,,,,,,,,,,,,,,,,,,,,,,,,,,,,,,,,,,,,,,,,,,,,,,,,,,,,,"[7,5,8]",0,0,0,0,1,,,,,,,,,,,,,,,,,,,,,,,,,,,,,,,,,,,,,,,,,,,,,,,,
,,6312ada1ce715ee3916c3748,2022-09-08_14h18.19.034,CGTgamblingSpanTasks,2022.2.1,Linux armv8l,59.62318149,,,,,,,,,,,,,,,,,,,,,,,,,,,,,,,,,,,,,,,,,,,,,,,,,,,,,,,,,,,,,,,,,,,,,,,,,,,,,,,,,,"[7,5,8]",1,0,1,0,1,,,,,,,,,,,,,,,,,,,,,,,,,,,,,,,,,,,,,,,,,,,,,,,,
,,6312ada1ce715ee3916c3748,2022-09-08_14h18.19.034,CGTgamblingSpanTasks,2022.2.1,Linux armv8l,59.62318149,,,,,,,,,,,,,,,,,,,,,,,,,,,,,,,,,,,,,,,,,,,,,,,,,,,,,,,,,,,,,,,,,,,,,,,,,,,,,,,,,,"[7,5,8]",2,0,2,0,1,,,,,,,,,,,,,,,,,,,,,,,,,,,,,,,,,,,,,,,,,,,,,,,,
,,6312ada1ce715ee3916c3748,2022-09-08_14h18.19.034,CGTgamblingSpanTasks,2022.2.1,Linux armv8l,59.62318149,,,,,,,,,,,,,,,,,,,,,,,,,,,,,,,,,,,,,,,,,,,,,,,,,,,,,,,,,,,,,,,1,,,,,,,,,,,,,,,,,,,,,,,,,758,0.073711548,-0.425895081,1,0,0,cont_button,0,0,0,0,1,1,,,,,,,,,,,,,,,,,,,,,,,,,,,,,,,,,,,
,,6312ada1ce715ee3916c3748,2022-09-08_14h18.19.034,CGTgamblingSpanTasks,2022.2.1,Linux armv8l,59.62318149,,,,,,,,,,,,,,,,,,,,,,,,,,,,,,,,,,,,,,,,,,,,,,,,,,,,,,,,,,,,,,,,,,,,,,,,,,,,,,,,,,"[3,8,6,2]",0,0,0,0,1,,,,,,,,,,,,,,,,,,,,,,,,,,,,,,,,,,,,,,,,,,,,,,,,
,,6312ada1ce715ee3916c3748,2022-09-08_14h18.19.034,CGTgamblingSpanTasks,2022.2.1,Linux armv8l,59.62318149,,,,,,,,,,,,,,,,,,,,,,,,,,,,,,,,,,,,,,,,,,,,,,,,,,,,,,,,,,,,,,,,,,,,,,,,,,,,,,,,,,"[3,8,6,2]",1,0,1,0,1,,,,,,,,,,,,,,,,,,,,,,,,,,,,,,,,,,,,,,,,,,,,,,,,
,,6312ada1ce715ee3916c3748,2022-09-08_14h18.19.034,CGTgamblingSpanTasks,2022.2.1,Linux armv8l,59.62318149,,,,,,,,,,,,,,,,,,,,,,,,,,,,,,,,,,,,,,,,,,,,,,,,,,,,,,,,,,,,,,,,,,,,,,,,,,,,,,,,,,"[3,8,6,2]",2,0,2,0,1,,,,,,,,,,,,,,,,,,,,,,,,,,,,,,,,,,,,,,,,,,,,,,,,
,,6312ada1ce715ee3916c3748,2022-09-08_14h18.19.034,CGTgamblingSpanTasks,2022.2.1,Linux armv8l,59.62318149,,,,,,,,,,,,,,,,,,,,,,,,,,,,,,,,,,,,,,,,,,,,,,,,,,,,,,,,,,,,,,,,,,,,,,,,,,,,,,,,,,"[3,8,6,2]",3,0,3,0,1,,,,,,,,,,,,,,,,,,,,,,,,,,,,,,,,,,,,,,,,,,,,,,,,
,,6312ada1ce715ee3916c3748,2022-09-08_14h18.19.034,CGTgamblingSpanTasks,2022.2.1,Linux armv8l,59.62318149,,,,,,,,,,,,,,,,,,,,,,,,,,,,,,,,,,,,,,,,,,,,,,,,,,,,,,,,,,,,,,,1,,,,,,,,,,,,,,,,,,,,,,,,,3862,0.016241608,-0.424229965,1,0,0,cont_button,0,1,1,1,1,2,,,,,,,,,,,,,,,,,,,,,,,,,,,,,,,,,,,
,,6312ada1ce715ee3916c3748,2022-09-08_14h18.19.034,CGTgamblingSpanTasks,2022.2.1,Linux armv8l,59.62318149,,,,,,,,,,,,,,,,,,,,,,,,,,,,,,,,,,,,,,,,,,,,,,,,,,,,,,,,,,,,,,,,,,,,,,,,,,,,,,,,,,"[8,9,1,4,3]",0,0,0,0,1,,,,,,,,,,,,,,,,,,,,,,,,,,,,,,,,,,,,,,,,,,,,,,,,
,,6312ada1ce715ee3916c3748,2022-09-08_14h18.19.034,CGTgamblingSpanTasks,2022.2.1,Linux armv8l,59.62318149,,,,,,,,,,,,,,,,,,,,,,,,,,,,,,,,,,,,,,,,,,,,,,,,,,,,,,,,,,,,,,,,,,,,,,,,,,,,,,,,,,"[8,9,1,4,3]",1,0,1,0,1,,,,,,,,,,,,,,,,,,,,,,,,,,,,,,,,,,,,,,,,,,,,,,,,
,,6312ada1ce715ee3916c3748,2022-09-08_14h18.19.034,CGTgamblingSpanTasks,2022.2.1,Linux armv8l,59.62318149,,,,,,,,,,,,,,,,,,,,,,,,,,,,,,,,,,,,,,,,,,,,,,,,,,,,,,,,,,,,,,,,,,,,,,,,,,,,,,,,,,"[8,9,1,4,3]",2,0,2,0,1,,,,,,,,,,,,,,,,,,,,,,,,,,,,,,,,,,,,,,,,,,,,,,,,
,,6312ada1ce715ee3916c3748,2022-09-08_14h18.19.034,CGTgamblingSpanTasks,2022.2.1,Linux armv8l,59.62318149,,,,,,,,,,,,,,,,,,,,,,,,,,,,,,,,,,,,,,,,,,,,,,,,,,,,,,,,,,,,,,,,,,,,,,,,,,,,,,,,,,"[8,9,1,4,3]",3,0,3,0,1,,,,,,,,,,,,,,,,,,,,,,,,,,,,,,,,,,,,,,,,,,,,,,,,
,,6312ada1ce715ee3916c3748,2022-09-08_14h18.19.034,CGTgamblingSpanTasks,2022.2.1,Linux armv8l,59.62318149,,,,,,,,,,,,,,,,,,,,,,,,,,,,,,,,,,,,,,,,,,,,,,,,,,,,,,,,,,,,,,,,,,,,,,,,,,,,,,,,,,"[8,9,1,4,3]",4,0,4,0,1,,,,,,,,,,,,,,,,,,,,,,,,,,,,,,,,,,,,,,,,,,,,,,,,
,,6312ada1ce715ee3916c3748,2022-09-08_14h18.19.034,CGTgamblingSpanTasks,2022.2.1,Linux armv8l,59.62318149,,,,,,,,,,,,,,,,,,,,,,,,,,,,,,,,,,,,,,,,,,,,,,,,,,,,,,,,,,,,,,,1,,,,,,,,,,,,,,,,,,,,,,,,,89143,0.007912598,-0.433388901,1,0,0,cont_button,0,2,2,2,1,3,,,,,,,,,,,,,,,,,,,,,,,,,,,,,,,,,,,
,,6312ada1ce715ee3916c3748,2022-09-08_14h18.19.034,CGTgamblingSpanTasks,2022.2.1,Linux armv8l,59.62318149,,,,,,,,,,,,,,,,,,,,,,,,,,,,,,,,,,,,,,,,,,,,,,,,,,,,,,,,,,,,,,,,,,,,,,,,,,,,,,,,,,"[1,2,4,6,3,8]",0,0,0,0,1,,,,,,,,,,,,,,,,,,,,,,,,,,,,,,,,,,,,,,,,,,,,,,,,
,,6312ada1ce715ee3916c3748,2022-09-08_14h18.19.034,CGTgamblingSpanTasks,2022.2.1,Linux armv8l,59.62318149,,,,,,,,,,,,,,,,,,,,,,,,,,,,,,,,,,,,,,,,,,,,,,,,,,,,,,,,,,,,,,,,,,,,,,,,,,,,,,,,,,"[1,2,4,6,3,8]",1,0,1,0,1,,,,,,,,,,,,,,,,,,,,,,,,,,,,,,,,,,,,,,,,,,,,,,,,
,,6312ada1ce715ee3916c3748,2022-09-08_14h18.19.034,CGTgamblingSpanTasks,2022.2.1,Linux armv8l,59.62318149,,,,,,,,,,,,,,,,,,,,,,,,,,,,,,,,,,,,,,,,,,,,,,,,,,,,,,,,,,,,,,,,,,,,,,,,,,,,,,,,,,"[1,2,4,6,3,8]",2,0,2,0,1,,,,,,,,,,,,,,,,,,,,,,,,,,,,,,,,,,,,,,,,,,,,,,,,
,,6312ada1ce715ee3916c3748,2022-09-08_14h18.19.034,CGTgamblingSpanTasks,2022.2.1,Linux armv8l,59.62318149,,,,,,,,,,,,,,,,,,,,,,,,,,,,,,,,,,,,,,,,,,,,,,,,,,,,,,,,,,,,,,,,,,,,,,,,,,,,,,,,,,"[1,2,4,6,3,8]",3,0,3,0,1,,,,,,,,,,,,,,,,,,,,,,,,,,,,,,,,,,,,,,,,,,,,,,,,
,,6312ada1ce715ee3916c3748,2022-09-08_14h18.19.034,CGTgamblingSpanTasks,2022.2.1,Linux armv8l,59.62318149,,,,,,,,,,,,,,,,,,,,,,,,,,,,,,,,,,,,,,,,,,,,,,,,,,,,,,,,,,,,,,,,,,,,,,,,,,,,,,,,,,"[1,2,4,6,3,8]",4,0,4,0,1,,,,,,,,,,,,,,,,,,,,,,,,,,,,,,,,,,,,,,,,,,,,,,,,
,,6312ada1ce715ee3916c3748,2022-09-08_14h18.19.034,CGTgamblingSpanTasks,2022.2.1,Linux armv8l,59.62318149,,,,,,,,,,,,,,,,,,,,,,,,,,,,,,,,,,,,,,,,,,,,,,,,,,,,,,,,,,,,,,,,,,,,,,,,,,,,,,,,,,"[1,2,4,6,3,8]",5,0,5,0,1,,,,,,,,,,,,,,,,,,,,,,,,,,,,,,,,,,,,,,,,,,,,,,,,
,,6312ada1ce715ee3916c3748,2022-09-08_14h18.19.034,CGTgamblingSpanTasks,2022.2.1,Linux armv8l,59.62318149,,,,,,,,,,,,,,,,,,,,,,,,,,,,,,,,,,,,,,,,,,,,,,,,,,,,,,,,,,,,,,,0,,,,,,,,,,,,,,,,,,,,,,,,,12463,0.003748016,-0.389258957,1,0,0,cont_button,0,3,3,3,1,4,,,,,,,,,,,,,,,,,,,,,,,,,,,,,,,,,,,
,,6312ada1ce715ee3916c3748,2022-09-08_14h18.19.034,CGTgamblingSpanTasks,2022.2.1,Linux armv8l,59.62318149,,,,,,,,,,,,,,,,,,,,,,,,,,,,,,,,,,,,,,,,,,,,,,,,,,,,,,,,,,,,,,,,,,,,,,,,,,,,,,,,,,"[5,7,3,2,6,8]",0,0,0,0,1,,,,,,,,,,,,,,,,,,,,,,,,,,,,,,,,,,,,,,,,,,,,,,,,
,,6312ada1ce715ee3916c3748,2022-09-08_14h18.19.034,CGTgamblingSpanTasks,2022.2.1,Linux armv8l,59.62318149,,,,,,,,,,,,,,,,,,,,,,,,,,,,,,,,,,,,,,,,,,,,,,,,,,,,,,,,,,,,,,,,,,,,,,,,,,,,,,,,,,"[5,7,3,2,6,8]",1,0,1,0,1,,,,,,,,,,,,,,,,,,,,,,,,,,,,,,,,,,,,,,,,,,,,,,,,
,,6312ada1ce715ee3916c3748,2022-09-08_14h18.19.034,CGTgamblingSpanTasks,2022.2.1,Linux armv8l,59.62318149,,,,,,,,,,,,,,,,,,,,,,,,,,,,,,,,,,,,,,,,,,,,,,,,,,,,,,,,,,,,,,,,,,,,,,,,,,,,,,,,,,"[5,7,3,2,6,8]",2,0,2,0,1,,,,,,,,,,,,,,,,,,,,,,,,,,,,,,,,,,,,,,,,,,,,,,,,
,,6312ada1ce715ee3916c3748,2022-09-08_14h18.19.034,CGTgamblingSpanTasks,2022.2.1,Linux armv8l,59.62318149,,,,,,,,,,,,,,,,,,,,,,,,,,,,,,,,,,,,,,,,,,,,,,,,,,,,,,,,,,,,,,,,,,,,,,,,,,,,,,,,,,"[5,7,3,2,6,8]",3,0,3,0,1,,,,,,,,,,,,,,,,,,,,,,,,,,,,,,,,,,,,,,,,,,,,,,,,
,,6312ada1ce715ee3916c3748,2022-09-08_14h18.19.034,CGTgamblingSpanTasks,2022.2.1,Linux armv8l,59.62318149,,,,,,,,,,,,,,,,,,,,,,,,,,,,,,,,,,,,,,,,,,,,,,,,,,,,,,,,,,,,,,,,,,,,,,,,,,,,,,,,,,"[5,7,3,2,6,8]",4,0,4,0,1,,,,,,,,,,,,,,,,,,,,,,,,,,,,,,,,,,,,,,,,,,,,,,,,
,,6312ada1ce715ee3916c3748,2022-09-08_14h18.19.034,CGTgamblingSpanTasks,2022.2.1,Linux armv8l,59.62318149,,,,,,,,,,,,,,,,,,,,,,,,,,,,,,,,,,,,,,,,,,,,,,,,,,,,,,,,,,,,,,,,,,,,,,,,,,,,,,,,,,"[5,7,3,2,6,8]",5,0,5,0,1,,,,,,,,,,,,,,,,,,,,,,,,,,,,,,,,,,,,,,,,,,,,,,,,
,,6312ada1ce715ee3916c3748,2022-09-08_14h18.19.034,CGTgamblingSpanTasks,2022.2.1,Linux armv8l,59.62318149,,,,,,,,,,,,,,,,,,,,,,,,,,,,,,,,,,,,,,,,,,,,,,,,,,,,,,,,,,,,,,,0,,,,,,,,,,,,,,,,,,,,,,,,,573258,-0.029567947,-0.378434677,1,0,0,cont_button,0,4,4,4,1,5,,,,,,,,,,,,,,,,,,,,,,,,,,,,,,,,,,,
,,6312ada1ce715ee3916c3748,2022-09-08_14h18.19.034,CGTgamblingSpanTasks,2022.2.1,Linux armv8l,59.62318149,,,,,,,,,,,,,,,,,,,,,,,,,,,,,,,,,,,,,,,,,,,,,,,,,,,,,,,,,,,,,,,,,,,,,,,,,,,,,,,,,,"[4,1,3,6,8]",0,0,0,0,1,,,,,,,,,,,,,,,,,,,,,,,,,,,,,,,,,,,,,,,,,,,,,,,,
,,6312ada1ce715ee3916c3748,2022-09-08_14h18.19.034,CGTgamblingSpanTasks,2022.2.1,Linux armv8l,59.62318149,,,,,,,,,,,,,,,,,,,,,,,,,,,,,,,,,,,,,,,,,,,,,,,,,,,,,,,,,,,,,,,,,,,,,,,,,,,,,,,,,,"[4,1,3,6,8]",1,0,1,0,1,,,,,,,,,,,,,,,,,,,,,,,,,,,,,,,,,,,,,,,,,,,,,,,,
,,6312ada1ce715ee3916c3748,2022-09-08_14h18.19.034,CGTgamblingSpanTasks,2022.2.1,Linux armv8l,59.62318149,,,,,,,,,,,,,,,,,,,,,,,,,,,,,,,,,,,,,,,,,,,,,,,,,,,,,,,,,,,,,,,,,,,,,,,,,,,,,,,,,,"[4,1,3,6,8]",2,0,2,0,1,,,,,,,,,,,,,,,,,,,,,,,,,,,,,,,,,,,,,,,,,,,,,,,,
,,6312ada1ce715ee3916c3748,2022-09-08_14h18.19.034,CGTgamblingSpanTasks,2022.2.1,Linux armv8l,59.62318149,,,,,,,,,,,,,,,,,,,,,,,,,,,,,,,,,,,,,,,,,,,,,,,,,,,,,,,,,,,,,,,,,,,,,,,,,,,,,,,,,,"[4,1,3,6,8]",3,0,3,0,1,,,,,,,,,,,,,,,,,,,,,,,,,,,,,,,,,,,,,,,,,,,,,,,,
,,6312ada1ce715ee3916c3748,2022-09-08_14h18.19.034,CGTgamblingSpanTasks,2022.2.1,Linux armv8l,59.62318149,,,,,,,,,,,,,,,,,,,,,,,,,,,,,,,,,,,,,,,,,,,,,,,,,,,,,,,,,,,,,,,,,,,,,,,,,,,,,,,,,,"[4,1,3,6,8]",4,0,4,0,1,,,,,,,,,,,,,,,,,,,,,,,,,,,,,,,,,,,,,,,,,,,,,,,,
,,6312ada1ce715ee3916c3748,2022-09-08_14h18.19.034,CGTgamblingSpanTasks,2022.2.1,Linux armv8l,59.62318149,,,,,,,,,,,,,,,,,,,,,,,,,,,,,,,,,,,,,,,,,,,,,,,,,,,,,,,,,,,,,,,1,,,,,,,,,,,,,,,,,,,,,,,,,41368,-0.012077026,-0.412572861,1,0,0,cont_button,0,5,5,5,1,6,,,,,,,,,,,,,,,,,,,,,,,,,,,,,,,,,,,
,,6312ada1ce715ee3916c3748,2022-09-08_14h18.19.034,CGTgamblingSpanTasks,2022.2.1,Linux armv8l,59.62318149,,,,,,,,,,,,,,,,,,,,,,,,,,,,,,,,,,,,,,,,,,,,,,,,,,,,,,,,,,,,,,,,,,,,,,,,,,,,,,,,,,"[3,1,7,2,6,9]",0,0,0,0,1,,,,,,,,,,,,,,,,,,,,,,,,,,,,,,,,,,,,,,,,,,,,,,,,
,,6312ada1ce715ee3916c3748,2022-09-08_14h18.19.034,CGTgamblingSpanTasks,2022.2.1,Linux armv8l,59.62318149,,,,,,,,,,,,,,,,,,,,,,,,,,,,,,,,,,,,,,,,,,,,,,,,,,,,,,,,,,,,,,,,,,,,,,,,,,,,,,,,,,"[3,1,7,2,6,9]",1,0,1,0,1,,,,,,,,,,,,,,,,,,,,,,,,,,,,,,,,,,,,,,,,,,,,,,,,
,,6312ada1ce715ee3916c3748,2022-09-08_14h18.19.034,CGTgamblingSpanTasks,2022.2.1,Linux armv8l,59.62318149,,,,,,,,,,,,,,,,,,,,,,,,,,,,,,,,,,,,,,,,,,,,,,,,,,,,,,,,,,,,,,,,,,,,,,,,,,,,,,,,,,"[3,1,7,2,6,9]",2,0,2,0,1,,,,,,,,,,,,,,,,,,,,,,,,,,,,,,,,,,,,,,,,,,,,,,,,
,,6312ada1ce715ee3916c3748,2022-09-08_14h18.19.034,CGTgamblingSpanTasks,2022.2.1,Linux armv8l,59.62318149,,,,,,,,,,,,,,,,,,,,,,,,,,,,,,,,,,,,,,,,,,,,,,,,,,,,,,,,,,,,,,,,,,,,,,,,,,,,,,,,,,"[3,1,7,2,6,9]",3,0,3,0,1,,,,,,,,,,,,,,,,,,,,,,,,,,,,,,,,,,,,,,,,,,,,,,,,
,,6312ada1ce715ee3916c3748,2022-09-08_14h18.19.034,CGTgamblingSpanTasks,2022.2.1,Linux armv8l,59.62318149,,,,,,,,,,,,,,,,,,,,,,,,,,,,,,,,,,,,,,,,,,,,,,,,,,,,,,,,,,,,,,,,,,,,,,,,,,,,,,,,,,"[3,1,7,2,6,9]",4,0,4,0,1,,,,,,,,,,,,,,,,,,,,,,,,,,,,,,,,,,,,,,,,,,,,,,,,
,,6312ada1ce715ee3916c3748,2022-09-08_14h18.19.034,CGTgamblingSpanTasks,2022.2.1,Linux armv8l,59.62318149,,,,,,,,,,,,,,,,,,,,,,,,,,,,,,,,,,,,,,,,,,,,,,,,,,,,,,,,,,,,,,,,,,,,,,,,,,,,,,,,,,"[3,1,7,2,6,9]",5,0,5,0,1,,,,,,,,,,,,,,,,,,,,,,,,,,,,,,,,,,,,,,,,,,,,,,,,
,,6312ada1ce715ee3916c3748,2022-09-08_14h18.19.034,CGTgamblingSpanTasks,2022.2.1,Linux armv8l,59.62318149,,,,,,,,,,,,,,,,,,,,,,,,,,,,,,,,,,,,,,,,,,,,,,,,,,,,,,,,,,,,,,,1,,,,,,,,,,,,,,,,,,,,,,,,,317269,0.074544525,-0.409242401,1,0,0,cont_button,0,6,6,6,1,7,,,,,,,,,,,,,,,,,,,,,,,,,,,,,,,,,,,
,,6312ada1ce715ee3916c3748,2022-09-08_14h18.19.034,CGTgamblingSpanTasks,2022.2.1,Linux armv8l,59.62318149,,,,,,,,,,,,,,,,,,,,,,,,,,,,,,,,,,,,,,,,,,,,,,,,,,,,,,,,,,,,,,,,,,,,,,,,,,,,,,,,,,"[9,2,3,1,5,4,7]",0,0,0,0,1,,,,,,,,,,,,,,,,,,,,,,,,,,,,,,,,,,,,,,,,,,,,,,,,
,,6312ada1ce715ee3916c3748,2022-09-08_14h18.19.034,CGTgamblingSpanTasks,2022.2.1,Linux armv8l,59.62318149,,,,,,,,,,,,,,,,,,,,,,,,,,,,,,,,,,,,,,,,,,,,,,,,,,,,,,,,,,,,,,,,,,,,,,,,,,,,,,,,,,"[9,2,3,1,5,4,7]",1,0,1,0,1,,,,,,,,,,,,,,,,,,,,,,,,,,,,,,,,,,,,,,,,,,,,,,,,
,,6312ada1ce715ee3916c3748,2022-09-08_14h18.19.034,CGTgamblingSpanTasks,2022.2.1,Linux armv8l,59.62318149,,,,,,,,,,,,,,,,,,,,,,,,,,,,,,,,,,,,,,,,,,,,,,,,,,,,,,,,,,,,,,,,,,,,,,,,,,,,,,,,,,"[9,2,3,1,5,4,7]",2,0,2,0,1,,,,,,,,,,,,,,,,,,,,,,,,,,,,,,,,,,,,,,,,,,,,,,,,
,,6312ada1ce715ee3916c3748,2022-09-08_14h18.19.034,CGTgamblingSpanTasks,2022.2.1,Linux armv8l,59.62318149,,,,,,,,,,,,,,,,,,,,,,,,,,,,,,,,,,,,,,,,,,,,,,,,,,,,,,,,,,,,,,,,,,,,,,,,,,,,,,,,,,"[9,2,3,1,5,4,7]",3,0,3,0,1,,,,,,,,,,,,,,,,,,,,,,,,,,,,,,,,,,,,,,,,,,,,,,,,
,,6312ada1ce715ee3916c3748,2022-09-08_14h18.19.034,CGTgamblingSpanTasks,2022.2.1,Linux armv8l,59.62318149,,,,,,,,,,,,,,,,,,,,,,,,,,,,,,,,,,,,,,,,,,,,,,,,,,,,,,,,,,,,,,,,,,,,,,,,,,,,,,,,,,"[9,2,3,1,5,4,7]",4,0,4,0,1,,,,,,,,,,,,,,,,,,,,,,,,,,,,,,,,,,,,,,,,,,,,,,,,
,,6312ada1ce715ee3916c3748,2022-09-08_14h18.19.034,CGTgamblingSpanTasks,2022.2.1,Linux armv8l,59.62318149,,,,,,,,,,,,,,,,,,,,,,,,,,,,,,,,,,,,,,,,,,,,,,,,,,,,,,,,,,,,,,,,,,,,,,,,,,,,,,,,,,"[9,2,3,1,5,4,7]",5,0,5,0,1,,,,,,,,,,,,,,,,,,,,,,,,,,,,,,,,,,,,,,,,,,,,,,,,
,,6312ada1ce715ee3916c3748,2022-09-08_14h18.19.034,CGTgamblingSpanTasks,2022.2.1,Linux armv8l,59.62318149,,,,,,,,,,,,,,,,,,,,,,,,,,,,,,,,,,,,,,,,,,,,,,,,,,,,,,,,,,,,,,,,,,,,,,,,,,,,,,,,,,"[9,2,3,1,5,4,7]",6,0,6,0,1,,,,,,,,,,,,,,,,,,,,,,,,,,,,,,,,,,,,,,,,,,,,,,,,
,,6312ada1ce715ee3916c3748,2022-09-08_14h18.19.034,CGTgamblingSpanTasks,2022.2.1,Linux armv8l,59.62318149,,,,,,,,,,,,,,,,,,,,,,,,,,,,,,,,,,,,,,,,,,,,,,,,,,,,,,,,,,,,,,,0,,,,,,,,,,,,,,,,,,,,,,,,,9231457,0.017907333,-0.366777802,1,0,0,cont_button,0,7,7,7,1,8,,,,,,,,,,,,,,,,,,,,,,,,,,,,,,,,,,,
,,6312ada1ce715ee3916c3748,2022-09-08_14h18.19.034,CGTgamblingSpanTasks,2022.2.1,Linux armv8l,59.62318149,,,,,,,,,,,,,,,,,,,,,,,,,,,,,,,,,,,,,,,,,,,,,,,,,,,,,,,,,,,,,,,,,,,,,,,,,,,,,,,,,,"[8,7,9,2,1,3,5]",0,0,0,0,1,,,,,,,,,,,,,,,,,,,,,,,,,,,,,,,,,,,,,,,,,,,,,,,,
,,6312ada1ce715ee3916c3748,2022-09-08_14h18.19.034,CGTgamblingSpanTasks,2022.2.1,Linux armv8l,59.62318149,,,,,,,,,,,,,,,,,,,,,,,,,,,,,,,,,,,,,,,,,,,,,,,,,,,,,,,,,,,,,,,,,,,,,,,,,,,,,,,,,,"[8,7,9,2,1,3,5]",1,0,1,0,1,,,,,,,,,,,,,,,,,,,,,,,,,,,,,,,,,,,,,,,,,,,,,,,,
,,6312ada1ce715ee3916c3748,2022-09-08_14h18.19.034,CGTgamblingSpanTasks,2022.2.1,Linux armv8l,59.62318149,,,,,,,,,,,,,,,,,,,,,,,,,,,,,,,,,,,,,,,,,,,,,,,,,,,,,,,,,,,,,,,,,,,,,,,,,,,,,,,,,,"[8,7,9,2,1,3,5]",2,0,2,0,1,,,,,,,,,,,,,,,,,,,,,,,,,,,,,,,,,,,,,,,,,,,,,,,,
,,6312ada1ce715ee3916c3748,2022-09-08_14h18.19.034,CGTgamblingSpanTasks,2022.2.1,Linux armv8l,59.62318149,,,,,,,,,,,,,,,,,,,,,,,,,,,,,,,,,,,,,,,,,,,,,,,,,,,,,,,,,,,,,,,,,,,,,,,,,,,,,,,,,,"[8,7,9,2,1,3,5]",3,0,3,0,1,,,,,,,,,,,,,,,,,,,,,,,,,,,,,,,,,,,,,,,,,,,,,,,,
,,6312ada1ce715ee3916c3748,2022-09-08_14h18.19.034,CGTgamblingSpanTasks,2022.2.1,Linux armv8l,59.62318149,,,,,,,,,,,,,,,,,,,,,,,,,,,,,,,,,,,,,,,,,,,,,,,,,,,,,,,,,,,,,,,,,,,,,,,,,,,,,,,,,,"[8,7,9,2,1,3,5]",4,0,4,0,1,,,,,,,,,,,,,,,,,,,,,,,,,,,,,,,,,,,,,,,,,,,,,,,,
,,6312ada1ce715ee3916c3748,2022-09-08_14h18.19.034,CGTgamblingSpanTasks,2022.2.1,Linux armv8l,59.62318149,,,,,,,,,,,,,,,,,,,,,,,,,,,,,,,,,,,,,,,,,,,,,,,,,,,,,,,,,,,,,,,,,,,,,,,,,,,,,,,,,,"[8,7,9,2,1,3,5]",5,0,5,0,1,,,,,,,,,,,,,,,,,,,,,,,,,,,,,,,,,,,,,,,,,,,,,,,,
,,6312ada1ce715ee3916c3748,2022-09-08_14h18.19.034,CGTgamblingSpanTasks,2022.2.1,Linux armv8l,59.62318149,,,,,,,,,,,,,,,,,,,,,,,,,,,,,,,,,,,,,,,,,,,,,,,,,,,,,,,,,,,,,,,,,,,,,,,,,,,,,,,,,,"[8,7,9,2,1,3,5]",6,0,6,0,1,,,,,,,,,,,,,,,,,,,,,,,,,,,,,,,,,,,,,,,,,,,,,,,,
,,6312ada1ce715ee3916c3748,2022-09-08_14h18.19.034,CGTgamblingSpanTasks,2022.2.1,Linux armv8l,59.62318149,,,,,,,,,,,,,,,,,,,,,,,,,,,,,,,,,,,,,,,,,,,,,,,,,,,,,,,,,,,,,,,0,,,,,,,,,,,,,,,,,,,,,,,,,8721935,0.091202621,-0.396752777,1,0,0,cont_button,0,8,8,8,1,9,,,,,,,,,,,,,,,,,,,,,,,,,,,,,,,,,,,
,,6312ada1ce715ee3916c3748,2022-09-08_14h18.19.034,CGTgamblingSpanTasks,2022.2.1,Linux armv8l,59.62318149,,,,,,,,,,,,,,,,,,,,,,,,,,,,,,,,,,,,,,,,,,,,,,,,,,,,,,,,,,,,,,,,,,,,,,,,,,,,,,,,,,"[2,1,9,6,5,7]",0,0,0,0,1,,,,,,,,,,,,,,,,,,,,,,,,,,,,,,,,,,,,,,,,,,,,,,,,
,,6312ada1ce715ee3916c3748,2022-09-08_14h18.19.034,CGTgamblingSpanTasks,2022.2.1,Linux armv8l,59.62318149,,,,,,,,,,,,,,,,,,,,,,,,,,,,,,,,,,,,,,,,,,,,,,,,,,,,,,,,,,,,,,,,,,,,,,,,,,,,,,,,,,"[2,1,9,6,5,7]",1,0,1,0,1,,,,,,,,,,,,,,,,,,,,,,,,,,,,,,,,,,,,,,,,,,,,,,,,
,,6312ada1ce715ee3916c3748,2022-09-08_14h18.19.034,CGTgamblingSpanTasks,2022.2.1,Linux armv8l,59.62318149,,,,,,,,,,,,,,,,,,,,,,,,,,,,,,,,,,,,,,,,,,,,,,,,,,,,,,,,,,,,,,,,,,,,,,,,,,,,,,,,,,"[2,1,9,6,5,7]",2,0,2,0,1,,,,,,,,,,,,,,,,,,,,,,,,,,,,,,,,,,,,,,,,,,,,,,,,
,,6312ada1ce715ee3916c3748,2022-09-08_14h18.19.034,CGTgamblingSpanTasks,2022.2.1,Linux armv8l,59.62318149,,,,,,,,,,,,,,,,,,,,,,,,,,,,,,,,,,,,,,,,,,,,,,,,,,,,,,,,,,,,,,,,,,,,,,,,,,,,,,,,,,"[2,1,9,6,5,7]",3,0,3,0,1,,,,,,,,,,,,,,,,,,,,,,,,,,,,,,,,,,,,,,,,,,,,,,,,
,,6312ada1ce715ee3916c3748,2022-09-08_14h18.19.034,CGTgamblingSpanTasks,2022.2.1,Linux armv8l,59.62318149,,,,,,,,,,,,,,,,,,,,,,,,,,,,,,,,,,,,,,,,,,,,,,,,,,,,,,,,,,,,,,,,,,,,,,,,,,,,,,,,,,"[2,1,9,6,5,7]",4,0,4,0,1,,,,,,,,,,,,,,,,,,,,,,,,,,,,,,,,,,,,,,,,,,,,,,,,
,,6312ada1ce715ee3916c3748,2022-09-08_14h18.19.034,CGTgamblingSpanTasks,2022.2.1,Linux armv8l,59.62318149,,,,,,,,,,,,,,,,,,,,,,,,,,,,,,,,,,,,,,,,,,,,,,,,,,,,,,,,,,,,,,,,,,,,,,,,,,,,,,,,,,"[2,1,9,6,5,7]",5,0,5,0,1,,,,,,,,,,,,,,,,,,,,,,,,,,,,,,,,,,,,,,,,,,,,,,,,
,,6312ada1ce715ee3916c3748,2022-09-08_14h18.19.034,CGTgamblingSpanTasks,2022.2.1,Linux armv8l,59.62318149,,,,,,,,,,,,,,,,,,,,,,,,,,,,,,,,,,,,,,,,,,,,,,,,,,,,,,,,,,,,,,,1,,,,,,,,,,,,,,,,,,,,,,,,,219657,0.020406036,-0.412572861,1,0,0,cont_button,0,9,9,9,1,10,,,,,,,,,,,,,,,,,,,,,,,,,,,,,,,,,,,
,,6312ada1ce715ee3916c3748,2022-09-08_14h18.19.034,CGTgamblingSpanTasks,2022.2.1,Linux armv8l,59.62318149,,,,,,,,,,,,,,,,,,,,,,,,,,,,,,,,,,,,,,,,,,,,,,,,,,,,,,,,,,,,,,,,,,,,,,,,,,,,,,,,,,"[9,2,1,4,3,5,6]",0,0,0,0,1,,,,,,,,,,,,,,,,,,,,,,,,,,,,,,,,,,,,,,,,,,,,,,,,
,,6312ada1ce715ee3916c3748,2022-09-08_14h18.19.034,CGTgamblingSpanTasks,2022.2.1,Linux armv8l,59.62318149,,,,,,,,,,,,,,,,,,,,,,,,,,,,,,,,,,,,,,,,,,,,,,,,,,,,,,,,,,,,,,,,,,,,,,,,,,,,,,,,,,"[9,2,1,4,3,5,6]",1,0,1,0,1,,,,,,,,,,,,,,,,,,,,,,,,,,,,,,,,,,,,,,,,,,,,,,,,
,,6312ada1ce715ee3916c3748,2022-09-08_14h18.19.034,CGTgamblingSpanTasks,2022.2.1,Linux armv8l,59.62318149,,,,,,,,,,,,,,,,,,,,,,,,,,,,,,,,,,,,,,,,,,,,,,,,,,,,,,,,,,,,,,,,,,,,,,,,,,,,,,,,,,"[9,2,1,4,3,5,6]",2,0,2,0,1,,,,,,,,,,,,,,,,,,,,,,,,,,,,,,,,,,,,,,,,,,,,,,,,
,,6312ada1ce715ee3916c3748,2022-09-08_14h18.19.034,CGTgamblingSpanTasks,2022.2.1,Linux armv8l,59.62318149,,,,,,,,,,,,,,,,,,,,,,,,,,,,,,,,,,,,,,,,,,,,,,,,,,,,,,,,,,,,,,,,,,,,,,,,,,,,,,,,,,"[9,2,1,4,3,5,6]",3,0,3,0,1,,,,,,,,,,,,,,,,,,,,,,,,,,,,,,,,,,,,,,,,,,,,,,,,
,,6312ada1ce715ee3916c3748,2022-09-08_14h18.19.034,CGTgamblingSpanTasks,2022.2.1,Linux armv8l,59.62318149,,,,,,,,,,,,,,,,,,,,,,,,,,,,,,,,,,,,,,,,,,,,,,,,,,,,,,,,,,,,,,,,,,,,,,,,,,,,,,,,,,"[9,2,1,4,3,5,6]",4,0,4,0,1,,,,,,,,,,,,,,,,,,,,,,,,,,,,,,,,,,,,,,,,,,,,,,,,
,,6312ada1ce715ee3916c3748,2022-09-08_14h18.19.034,CGTgamblingSpanTasks,2022.2.1,Linux armv8l,59.62318149,,,,,,,,,,,,,,,,,,,,,,,,,,,,,,,,,,,,,,,,,,,,,,,,,,,,,,,,,,,,,,,,,,,,,,,,,,,,,,,,,,"[9,2,1,4,3,5,6]",5,0,5,0,1,,,,,,,,,,,,,,,,,,,,,,,,,,,,,,,,,,,,,,,,,,,,,,,,
,,6312ada1ce715ee3916c3748,2022-09-08_14h18.19.034,CGTgamblingSpanTasks,2022.2.1,Linux armv8l,59.62318149,,,,,,,,,,,,,,,,,,,,,,,,,,,,,,,,,,,,,,,,,,,,,,,,,,,,,,,,,,,,,,,,,,,,,,,,,,,,,,,,,,"[9,2,1,4,3,5,6]",6,0,6,0,1,,,,,,,,,,,,,,,,,,,,,,,,,,,,,,,,,,,,,,,,,,,,,,,,
,,6312ada1ce715ee3916c3748,2022-09-08_14h18.19.034,CGTgamblingSpanTasks,2022.2.1,Linux armv8l,59.62318149,,,,,,,,,,,,,,,,,,,,,,,,,,,,,,,,,,,,,,,,,,,,,,,,,,,,,,,,,,,,,,,1,,,,,,,,,,,,,,,,,,,,,,,,,9214356,0.002082214,-0.400083313,1,0,0,cont_button,0,10,10,10,1,11,,,,,,,,,,,,,,,,,,,,,,,,,,,,,,,,,,,
,,6312ada1ce715ee3916c3748,2022-09-08_14h18.19.034,CGTgamblingSpanTasks,2022.2.1,Linux armv8l,59.62318149,,,,,,,,,,,,,,,,,,,,,,,,,,,,,,,,,,,,,,,,,,,,,,,,,,,,,,,,,,,,,,,,,,,,,,,,,,,,,,,,,,"[6,7,3,5,2,8,1,9]",0,0,0,0,1,,,,,,,,,,,,,,,,,,,,,,,,,,,,,,,,,,,,,,,,,,,,,,,,
,,6312ada1ce715ee3916c3748,2022-09-08_14h18.19.034,CGTgamblingSpanTasks,2022.2.1,Linux armv8l,59.62318149,,,,,,,,,,,,,,,,,,,,,,,,,,,,,,,,,,,,,,,,,,,,,,,,,,,,,,,,,,,,,,,,,,,,,,,,,,,,,,,,,,"[6,7,3,5,2,8,1,9]",1,0,1,0,1,,,,,,,,,,,,,,,,,,,,,,,,,,,,,,,,,,,,,,,,,,,,,,,,
,,6312ada1ce715ee3916c3748,2022-09-08_14h18.19.034,CGTgamblingSpanTasks,2022.2.1,Linux armv8l,59.62318149,,,,,,,,,,,,,,,,,,,,,,,,,,,,,,,,,,,,,,,,,,,,,,,,,,,,,,,,,,,,,,,,,,,,,,,,,,,,,,,,,,"[6,7,3,5,2,8,1,9]",2,0,2,0,1,,,,,,,,,,,,,,,,,,,,,,,,,,,,,,,,,,,,,,,,,,,,,,,,
,,6312ada1ce715ee3916c3748,2022-09-08_14h18.19.034,CGTgamblingSpanTasks,2022.2.1,Linux armv8l,59.62318149,,,,,,,,,,,,,,,,,,,,,,,,,,,,,,,,,,,,,,,,,,,,,,,,,,,,,,,,,,,,,,,,,,,,,,,,,,,,,,,,,,"[6,7,3,5,2,8,1,9]",3,0,3,0,1,,,,,,,,,,,,,,,,,,,,,,,,,,,,,,,,,,,,,,,,,,,,,,,,
,,6312ada1ce715ee3916c3748,2022-09-08_14h18.19.034,CGTgamblingSpanTasks,2022.2.1,Linux armv8l,59.62318149,,,,,,,,,,,,,,,,,,,,,,,,,,,,,,,,,,,,,,,,,,,,,,,,,,,,,,,,,,,,,,,,,,,,,,,,,,,,,,,,,,"[6,7,3,5,2,8,1,9]",4,0,4,0,1,,,,,,,,,,,,,,,,,,,,,,,,,,,,,,,,,,,,,,,,,,,,,,,,
,,6312ada1ce715ee3916c3748,2022-09-08_14h18.19.034,CGTgamblingSpanTasks,2022.2.1,Linux armv8l,59.62318149,,,,,,,,,,,,,,,,,,,,,,,,,,,,,,,,,,,,,,,,,,,,,,,,,,,,,,,,,,,,,,,,,,,,,,,,,,,,,,,,,,"[6,7,3,5,2,8,1,9]",5,0,5,0,1,,,,,,,,,,,,,,,,,,,,,,,,,,,,,,,,,,,,,,,,,,,,,,,,
,,6312ada1ce715ee3916c3748,2022-09-08_14h18.19.034,CGTgamblingSpanTasks,2022.2.1,Linux armv8l,59.62318149,,,,,,,,,,,,,,,,,,,,,,,,,,,,,,,,,,,,,,,,,,,,,,,,,,,,,,,,,,,,,,,,,,,,,,,,,,,,,,,,,,"[6,7,3,5,2,8,1,9]",6,0,6,0,1,,,,,,,,,,,,,,,,,,,,,,,,,,,,,,,,,,,,,,,,,,,,,,,,
,,6312ada1ce715ee3916c3748,2022-09-08_14h18.19.034,CGTgamblingSpanTasks,2022.2.1,Linux armv8l,59.62318149,,,,,,,,,,,,,,,,,,,,,,,,,,,,,,,,,,,,,,,,,,,,,,,,,,,,,,,,,,,,,,,,,,,,,,,,,,,,,,,,,,"[6,7,3,5,2,8,1,9]",7,0,7,0,1,,,,,,,,,,,,,,,,,,,,,,,,,,,,,,,,,,,,,,,,,,,,,,,,
,,6312ada1ce715ee3916c3748,2022-09-08_14h18.19.034,CGTgamblingSpanTasks,2022.2.1,Linux armv8l,59.62318149,,,,,,,,,,,,,,,,,,,,,,,,,,,,,,,,,,,,,,,,,,,,,,,,,,,,,,,,,,,,,,,1,,,,,,,,,,,,,,,,,,,,,,,,,67352819,0.034565353,-0.383430481,1,0,0,cont_button,0,11,11,11,1,12,,,,,,,,,,,,,,,,,,,,,,,,,,,,,,,,,,,
,,6312ada1ce715ee3916c3748,2022-09-08_14h18.19.034,CGTgamblingSpanTasks,2022.2.1,Linux armv8l,59.62318149,,,,,,,,,,,,,,,,,,,,,,,,,,,,,,,,,,,,,,,,,,,,,,,,,,,,,,,,,,,,,,,,,,,,,,,,,,,,,,,,,,"[7,3,8,6,9,1,5,2,4]",0,0,0,0,1,,,,,,,,,,,,,,,,,,,,,,,,,,,,,,,,,,,,,,,,,,,,,,,,
,,6312ada1ce715ee3916c3748,2022-09-08_14h18.19.034,CGTgamblingSpanTasks,2022.2.1,Linux armv8l,59.62318149,,,,,,,,,,,,,,,,,,,,,,,,,,,,,,,,,,,,,,,,,,,,,,,,,,,,,,,,,,,,,,,,,,,,,,,,,,,,,,,,,,"[7,3,8,6,9,1,5,2,4]",1,0,1,0,1,,,,,,,,,,,,,,,,,,,,,,,,,,,,,,,,,,,,,,,,,,,,,,,,
,,6312ada1ce715ee3916c3748,2022-09-08_14h18.19.034,CGTgamblingSpanTasks,2022.2.1,Linux armv8l,59.62318149,,,,,,,,,,,,,,,,,,,,,,,,,,,,,,,,,,,,,,,,,,,,,,,,,,,,,,,,,,,,,,,,,,,,,,,,,,,,,,,,,,"[7,3,8,6,9,1,5,2,4]",2,0,2,0,1,,,,,,,,,,,,,,,,,,,,,,,,,,,,,,,,,,,,,,,,,,,,,,,,
,,6312ada1ce715ee3916c3748,2022-09-08_14h18.19.034,CGTgamblingSpanTasks,2022.2.1,Linux armv8l,59.62318149,,,,,,,,,,,,,,,,,,,,,,,,,,,,,,,,,,,,,,,,,,,,,,,,,,,,,,,,,,,,,,,,,,,,,,,,,,,,,,,,,,"[7,3,8,6,9,1,5,2,4]",3,0,3,0,1,,,,,,,,,,,,,,,,,,,,,,,,,,,,,,,,,,,,,,,,,,,,,,,,
,,6312ada1ce715ee3916c3748,2022-09-08_14h18.19.034,CGTgamblingSpanTasks,2022.2.1,Linux armv8l,59.62318149,,,,,,,,,,,,,,,,,,,,,,,,,,,,,,,,,,,,,,,,,,,,,,,,,,,,,,,,,,,,,,,,,,,,,,,,,,,,,,,,,,"[7,3,8,6,9,1,5,2,4]",4,0,4,0,1,,,,,,,,,,,,,,,,,,,,,,,,,,,,,,,,,,,,,,,,,,,,,,,,
,,6312ada1ce715ee3916c3748,2022-09-08_14h18.19.034,CGTgamblingSpanTasks,2022.2.1,Linux armv8l,59.62318149,,,,,,,,,,,,,,,,,,,,,,,,,,,,,,,,,,,,,,,,,,,,,,,,,,,,,,,,,,,,,,,,,,,,,,,,,,,,,,,,,,"[7,3,8,6,9,1,5,2,4]",5,0,5,0,1,,,,,,,,,,,,,,,,,,,,,,,,,,,,,,,,,,,,,,,,,,,,,,,,
,,6312ada1ce715ee3916c3748,2022-09-08_14h18.19.034,CGTgamblingSpanTasks,2022.2.1,Linux armv8l,59.62318149,,,,,,,,,,,,,,,,,,,,,,,,,,,,,,,,,,,,,,,,,,,,,,,,,,,,,,,,,,,,,,,,,,,,,,,,,,,,,,,,,,"[7,3,8,6,9,1,5,2,4]",6,0,6,0,1,,,,,,,,,,,,,,,,,,,,,,,,,,,,,,,,,,,,,,,,,,,,,,,,
,,6312ada1ce715ee3916c3748,2022-09-08_14h18.19.034,CGTgamblingSpanTasks,2022.2.1,Linux armv8l,59.62318149,,,,,,,,,,,,,,,,,,,,,,,,,,,,,,,,,,,,,,,,,,,,,,,,,,,,,,,,,,,,,,,,,,,,,,,,,,,,,,,,,,"[7,3,8,6,9,1,5,2,4]",7,0,7,0,1,,,,,,,,,,,,,,,,,,,,,,,,,,,,,,,,,,,,,,,,,,,,,,,,
,,6312ada1ce715ee3916c3748,2022-09-08_14h18.19.034,CGTgamblingSpanTasks,2022.2.1,Linux armv8l,59.62318149,,,,,,,,,,,,,,,,,,,,,,,,,,,,,,,,,,,,,,,,,,,,,,,,,,,,,,,,,,,,,,,,,,,,,,,,,,,,,,,,,,"[7,3,8,6,9,1,5,2,4]",8,0,8,0,1,,,,,,,,,,,,,,,,,,,,,,,,,,,,,,,,,,,,,,,,,,,,,,,,
,,6312ada1ce715ee3916c3748,2022-09-08_14h18.19.034,CGTgamblingSpanTasks,2022.2.1,Linux armv8l,59.62318149,,,,,,,,,,,,,,,,,,,,,,,,,,,,,,,,,,,,,,,,,,,,,,,,,,,,,,,,,,,,,,,0,,,,,,,,,,,,,,,,,,,,,,,,,7836815,-0.044560089,-0.406744385,1,0,0,cont_button,0,12,12,12,1,13,,,,,,,,,,,,,,,,,,,,,,,,,,,,,,,,,,,
,,6312ada1ce715ee3916c3748,2022-09-08_14h18.19.034,CGTgamblingSpanTasks,2022.2.1,Linux armv8l,59.62318149,,,,,,,,,,,,,,,,,,,,,,,,,,,,,,,,,,,,,,,,,,,,,,,,,,,,,,,,,,,,,,,,,,,,,,,,,,,,,,,,,,"[5,3,1,4,2,6,8,9,7]",0,0,0,0,1,,,,,,,,,,,,,,,,,,,,,,,,,,,,,,,,,,,,,,,,,,,,,,,,
,,6312ada1ce715ee3916c3748,2022-09-08_14h18.19.034,CGTgamblingSpanTasks,2022.2.1,Linux armv8l,59.62318149,,,,,,,,,,,,,,,,,,,,,,,,,,,,,,,,,,,,,,,,,,,,,,,,,,,,,,,,,,,,,,,,,,,,,,,,,,,,,,,,,,"[5,3,1,4,2,6,8,9,7]",1,0,1,0,1,,,,,,,,,,,,,,,,,,,,,,,,,,,,,,,,,,,,,,,,,,,,,,,,
,,6312ada1ce715ee3916c3748,2022-09-08_14h18.19.034,CGTgamblingSpanTasks,2022.2.1,Linux armv8l,59.62318149,,,,,,,,,,,,,,,,,,,,,,,,,,,,,,,,,,,,,,,,,,,,,,,,,,,,,,,,,,,,,,,,,,,,,,,,,,,,,,,,,,"[5,3,1,4,2,6,8,9,7]",2,0,2,0,1,,,,,,,,,,,,,,,,,,,,,,,,,,,,,,,,,,,,,,,,,,,,,,,,
,,6312ada1ce715ee3916c3748,2022-09-08_14h18.19.034,CGTgamblingSpanTasks,2022.2.1,Linux armv8l,59.62318149,,,,,,,,,,,,,,,,,,,,,,,,,,,,,,,,,,,,,,,,,,,,,,,,,,,,,,,,,,,,,,,,,,,,,,,,,,,,,,,,,,"[5,3,1,4,2,6,8,9,7]",3,0,3,0,1,,,,,,,,,,,,,,,,,,,,,,,,,,,,,,,,,,,,,,,,,,,,,,,,
,,6312ada1ce715ee3916c3748,2022-09-08_14h18.19.034,CGTgamblingSpanTasks,2022.2.1,Linux armv8l,59.62318149,,,,,,,,,,,,,,,,,,,,,,,,,,,,,,,,,,,,,,,,,,,,,,,,,,,,,,,,,,,,,,,,,,,,,,,,,,,,,,,,,,"[5,3,1,4,2,6,8,9,7]",4,0,4,0,1,,,,,,,,,,,,,,,,,,,,,,,,,,,,,,,,,,,,,,,,,,,,,,,,
,,6312ada1ce715ee3916c3748,2022-09-08_14h18.19.034,CGTgamblingSpanTasks,2022.2.1,Linux armv8l,59.62318149,,,,,,,,,,,,,,,,,,,,,,,,,,,,,,,,,,,,,,,,,,,,,,,,,,,,,,,,,,,,,,,,,,,,,,,,,,,,,,,,,,"[5,3,1,4,2,6,8,9,7]",5,0,5,0,1,,,,,,,,,,,,,,,,,,,,,,,,,,,,,,,,,,,,,,,,,,,,,,,,
,,6312ada1ce715ee3916c3748,2022-09-08_14h18.19.034,CGTgamblingSpanTasks,2022.2.1,Linux armv8l,59.62318149,,,,,,,,,,,,,,,,,,,,,,,,,,,,,,,,,,,,,,,,,,,,,,,,,,,,,,,,,,,,,,,,,,,,,,,,,,,,,,,,,,"[5,3,1,4,2,6,8,9,7]",6,0,6,0,1,,,,,,,,,,,,,,,,,,,,,,,,,,,,,,,,,,,,,,,,,,,,,,,,
,,6312ada1ce715ee3916c3748,2022-09-08_14h18.19.034,CGTgamblingSpanTasks,2022.2.1,Linux armv8l,59.62318149,,,,,,,,,,,,,,,,,,,,,,,,,,,,,,,,,,,,,,,,,,,,,,,,,,,,,,,,,,,,,,,,,,,,,,,,,,,,,,,,,,"[5,3,1,4,2,6,8,9,7]",7,0,7,0,1,,,,,,,,,,,,,,,,,,,,,,,,,,,,,,,,,,,,,,,,,,,,,,,,
,,6312ada1ce715ee3916c3748,2022-09-08_14h18.19.034,CGTgamblingSpanTasks,2022.2.1,Linux armv8l,59.62318149,,,,,,,,,,,,,,,,,,,,,,,,,,,,,,,,,,,,,,,,,,,,,,,,,,,,,,,,,,,,,,,,,,,,,,,,,,,,,,,,,,"[5,3,1,4,2,6,8,9,7]",8,0,8,0,1,,,,,,,,,,,,,,,,,,,,,,,,,,,,,,,,,,,,,,,,,,,,,,,,
,,6312ada1ce715ee3916c3748,2022-09-08_14h18.19.034,CGTgamblingSpanTasks,2022.2.1,Linux armv8l,59.62318149,,,,,,,,,,,,,,,,,,,,,,,,,,,,,,,,,,,,,,,,,,,,,,,,,,,,,,,,,,,,,,,1,,,,,,,,,,,,,,,,,,,,,,,,,531426897,0.060385361,-0.378434677,1,0,0,cont_button,0,13,13,13,1,14,,,,,,,,,,,,,,,,,,,,,,,,,,,,,,,,,,,
,,6312ada1ce715ee3916c3748,2022-09-08_14h18.19.034,CGTgamblingSpanTasks,2022.2.1,Linux armv8l,59.62318149,,,,,,,,,,,,,,,,,,,,,,,,,,,,,,,,,,,,,,,,,,,,,,,,,,,,,,,,,,,,,,,,,,,,,,,,,,,,,,,,,,,,,,,,,,,,,,,,,,,,,return,3.7316,,,,,,,,,,,,,,,,,,,,,,,,,,,,,,,,,
,,6312ada1ce715ee3916c3748,2022-09-08_14h18.19.034,CGTgamblingSpanTasks,2022.2.1,Linux armv8l,59.62318149,,,,,,,,,,,,,,,,,,,,,,,,,,,,,,,,,,,,,,,,,,,,,,,,,,,,,,,,,,,,,,,,,,,,,,,,,,,,,,,,,,,,,,,,,,,,,,,,,,,,,,,return,6.1585,,,,,,,,,,,,,,,,,,,,,,,,,,,,,,,
,,6312ada1ce715ee3916c3748,2022-09-08_14h18.19.034,CGTgamblingSpanTasks,2022.2.1,Linux armv8l,59.62318149,,,,,,,,,,,,,,,,,,,,,,,,,,,,,,,,,,,,,,,,,,,,,,,,,,,,,,,,,,,,,,,0,,,,,,,,,,,,3,342,24,2,42,,,,,,,,,,,,,,,,,,,,,,,,,,24,0.087037964,-0.402581177,1,0,0,cont_buttonPractice_2,0,0,0,0,1,,,,,,,,,,,,,,,,,,,
,,6312ada1ce715ee3916c3748,2022-09-08_14h18.19.034,CGTgamblingSpanTasks,2022.2.1,Linux armv8l,59.62318149,,,,,,,,,,,,,,,,,,,,,,,,,,,,,,,,,,,,,,,,,,,,,,,,,,,,,,,,,,,,,,,1,,,,,,,,,,,,3,937,73,2,37,,,,,,,,,,,,,,,,,,,,,,,,,,37,0.016241608,-0.383430481,1,0,0,cont_buttonPractice_2,0,1,1,1,1,,,,,,,,,,,,,,,,,,,
,,6312ada1ce715ee3916c3748,2022-09-08_14h18.19.034,CGTgamblingSpanTasks,2022.2.1,Linux armv8l,59.62318149,,,,,,,,,,,,,,,,,,,,,,,,,,,,,,,,,,,,,,,,,,,,,,,,,,,,,,,,,,,,,,,,,,,,,,,,,,,,,,,,,,,,,,,,,,,,,,,,,,,,,,,,,,,,,,,,,,,,,return,5.8386,,,,,,,,,,,,,,,,,
,,6312ada1ce715ee3916c3748,2022-09-08_14h18.19.034,CGTgamblingSpanTasks,2022.2.1,Linux armv8l,59.62318149,,,,,,,,,,,,,,,,,,,,,,,,,,,,,,,,,,,,,,,,,,,,,,,,,,,,,,,,,,,,,,,,,,,,,,,,,,,,,,,,,,"[2,4]",,,,,,,,,,,,,,,,,,,,,,,,,,,,,,,,,,,,,0,0,0,0,1,,,,,,,,,,,,
,,6312ada1ce715ee3916c3748,2022-09-08_14h18.19.034,CGTgamblingSpanTasks,2022.2.1,Linux armv8l,59.62318149,,,,,,,,,,,,,,,,,,,,,,,,,,,,,,,,,,,,,,,,,,,,,,,,,,,,,,,,,,,,,,,,,,,,,,,,,,,,,,,,,,"[2,4]",,,,,,,,,,,,,,,,,,,,,,,,,,,,,,,,,,,,,1,0,1,0,1,,,,,,,,,,,,
,,6312ada1ce715ee3916c3748,2022-09-08_14h18.19.034,CGTgamblingSpanTasks,2022.2.1,Linux armv8l,59.62318149,,,,,,,,,,,,,,,,,,,,,,,,,,,,,,,,,,,,,,,,,,,,,,,,,,,,,,,,,,,,,,,1,,,,,,,,,,,,,,,,,,,,,,,,,,,,,,,,,,,,,1,,,,,,,,,,,,,,,,,,,,,,,,42,0.024570541,-0.416736069,1,0,0,cont_buttonBS,0,0,0,0,1
,,6312ada1ce715ee3916c3748,2022-09-08_14h18.19.034,CGTgamblingSpanTasks,2022.2.1,Linux armv8l,59.62318149,,,,,,,,,,,,,,,,,,,,,,,,,,,,,,,,,,,,,,,,,,,,,,,,,,,,,,,,,,,,,,,,,,,,,,,,,,,,,,,,,,"[1,3,7]",,,,,,,,,,,,,,,,,,,,,,,,,,,,,,,,,,,,,0,0,0,0,1,,,,,,,,,,,,
,,6312ada1ce715ee3916c3748,2022-09-08_14h18.19.034,CGTgamblingSpanTasks,2022.2.1,Linux armv8l,59.62318149,,,,,,,,,,,,,,,,,,,,,,,,,,,,,,,,,,,,,,,,,,,,,,,,,,,,,,,,,,,,,,,,,,,,,,,,,,,,,,,,,,"[1,3,7]",,,,,,,,,,,,,,,,,,,,,,,,,,,,,,,,,,,,,1,0,1,0,1,,,,,,,,,,,,
,,6312ada1ce715ee3916c3748,2022-09-08_14h18.19.034,CGTgamblingSpanTasks,2022.2.1,Linux armv8l,59.62318149,,,,,,,,,,,,,,,,,,,,,,,,,,,,,,,,,,,,,,,,,,,,,,,,,,,,,,,,,,,,,,,,,,,,,,,,,,,,,,,,,,"[1,3,7]",,,,,,,,,,,,,,,,,,,,,,,,,,,,,,,,,,,,,2,0,2,0,1,,,,,,,,,,,,
,,6312ada1ce715ee3916c3748,2022-09-08_14h18.19.034,CGTgamblingSpanTasks,2022.2.1,Linux armv8l,59.62318149,,,,,,,,,,,,,,,,,,,,,,,,,,,,,,,,,,,,,,,,,,,,,,,,,,,,,,,,,,,,,,,1,,,,,,,,,,,,,,,,,,,,,,,,,,,,,,,,,,,,,2,,,,,,,,,,,,,,,,,,,,,,,,731,0.074544525,-0.396752777,1,0,0,cont_buttonBS,0,1,1,1,1
,,6312ada1ce715ee3916c3748,2022-09-08_14h18.19.034,CGTgamblingSpanTasks,2022.2.1,Linux armv8l,59.62318149,,,,,,,,,,,,,,,,,,,,,,,,,,,,,,,,,,,,,,,,,,,,,,,,,,,,,,,,,,,,,,,,,,,,,,,,,,,,,,,,,,"[1,4,3,8]",,,,,,,,,,,,,,,,,,,,,,,,,,,,,,,,,,,,,0,0,0,0,1,,,,,,,,,,,,
,,6312ada1ce715ee3916c3748,2022-09-08_14h18.19.034,CGTgamblingSpanTasks,2022.2.1,Linux armv8l,59.62318149,,,,,,,,,,,,,,,,,,,,,,,,,,,,,,,,,,,,,,,,,,,,,,,,,,,,,,,,,,,,,,,,,,,,,,,,,,,,,,,,,,"[1,4,3,8]",,,,,,,,,,,,,,,,,,,,,,,,,,,,,,,,,,,,,1,0,1,0,1,,,,,,,,,,,,
,,6312ada1ce715ee3916c3748,2022-09-08_14h18.19.034,CGTgamblingSpanTasks,2022.2.1,Linux armv8l,59.62318149,,,,,,,,,,,,,,,,,,,,,,,,,,,,,,,,,,,,,,,,,,,,,,,,,,,,,,,,,,,,,,,,,,,,,,,,,,,,,,,,,,"[1,4,3,8]",,,,,,,,,,,,,,,,,,,,,,,,,,,,,,,,,,,,,2,0,2,0,1,,,,,,,,,,,,
,,6312ada1ce715ee3916c3748,2022-09-08_14h18.19.034,CGTgamblingSpanTasks,2022.2.1,Linux armv8l,59.62318149,,,,,,,,,,,,,,,,,,,,,,,,,,,,,,,,,,,,,,,,,,,,,,,,,,,,,,,,,,,,,,,,,,,,,,,,,,,,,,,,,,"[1,4,3,8]",,,,,,,,,,,,,,,,,,,,,,,,,,,,,,,,,,,,,3,0,3,0,1,,,,,,,,,,,,
,,6312ada1ce715ee3916c3748,2022-09-08_14h18.19.034,CGTgamblingSpanTasks,2022.2.1,Linux armv8l,59.62318149,,,,,,,,,,,,,,,,,,,,,,,,,,,,,,,,,,,,,,,,,,,,,,,,,,,,,,,,,,,,,,,1,,,,,,,,,,,,,,,,,,,,,,,,,,,,,,,,,,,,,3,,,,,,,,,,,,,,,,,,,,,,,,8341,0.027069244,-0.425895081,1,0,0,cont_buttonBS,0,2,2,2,1
,,6312ada1ce715ee3916c3748,2022-09-08_14h18.19.034,CGTgamblingSpanTasks,2022.2.1,Linux armv8l,59.62318149,,,,,,,,,,,,,,,,,,,,,,,,,,,,,,,,,,,,,,,,,,,,,,,,,,,,,,,,,,,,,,,,,,,,,,,,,,,,,,,,,,"[7,8,6,1,9]",,,,,,,,,,,,,,,,,,,,,,,,,,,,,,,,,,,,,0,0,0,0,1,,,,,,,,,,,,
,,6312ada1ce715ee3916c3748,2022-09-08_14h18.19.034,CGTgamblingSpanTasks,2022.2.1,Linux armv8l,59.62318149,,,,,,,,,,,,,,,,,,,,,,,,,,,,,,,,,,,,,,,,,,,,,,,,,,,,,,,,,,,,,,,,,,,,,,,,,,,,,,,,,,"[7,8,6,1,9]",,,,,,,,,,,,,,,,,,,,,,,,,,,,,,,,,,,,,1,0,1,0,1,,,,,,,,,,,,
,,6312ada1ce715ee3916c3748,2022-09-08_14h18.19.034,CGTgamblingSpanTasks,2022.2.1,Linux armv8l,59.62318149,,,,,,,,,,,,,,,,,,,,,,,,,,,,,,,,,,,,,,,,,,,,,,,,,,,,,,,,,,,,,,,,,,,,,,,,,,,,,,,,,,"[7,8,6,1,9]",,,,,,,,,,,,,,,,,,,,,,,,,,,,,,,,,,,,,2,0,2,0,1,,,,,,,,,,,,
,,6312ada1ce715ee3916c3748,2022-09-08_14h18.19.034,CGTgamblingSpanTasks,2022.2.1,Linux armv8l,59.62318149,,,,,,,,,,,,,,,,,,,,,,,,,,,,,,,,,,,,,,,,,,,,,,,,,,,,,,,,,,,,,,,,,,,,,,,,,,,,,,,,,,"[7,8,6,1,9]",,,,,,,,,,,,,,,,,,,,,,,,,,,,,,,,,,,,,3,0,3,0,1,,,,,,,,,,,,
,,6312ada1ce715ee3916c3748,2022-09-08_14h18.19.034,CGTgamblingSpanTasks,2022.2.1,Linux armv8l,59.62318149,,,,,,,,,,,,,,,,,,,,,,,,,,,,,,,,,,,,,,,,,,,,,,,,,,,,,,,,,,,,,,,,,,,,,,,,,,,,,,,,,,"[7,8,6,1,9]",,,,,,,,,,,,,,,,,,,,,,,,,,,,,,,,,,,,,4,0,4,0,1,,,,,,,,,,,,
,,6312ada1ce715ee3916c3748,2022-09-08_14h18.19.034,CGTgamblingSpanTasks,2022.2.1,Linux armv8l,59.62318149,,,,,,,,,,,,,,,,,,,,,,,,,,,,,,,,,,,,,,,,,,,,,,,,,,,,,,,,,,,,,,,1,,,,,,,,,,,,,,,,,,,,,,,,,,,,,,,,,,,,,4,,,,,,,,,,,,,,,,,,,,,,,,91687,-0.017907257,-0.378434677,1,0,0,cont_buttonBS,0,3,3,3,1
,,6312ada1ce715ee3916c3748,2022-09-08_14h18.19.034,CGTgamblingSpanTasks,2022.2.1,Linux armv8l,59.62318149,,,,,,,,,,,,,,,,,,,,,,,,,,,,,,,,,,,,,,,,,,,,,,,,,,,,,,,,,,,,,,,,,,,,,,,,,,,,,,,,,,"[9,3,8,4,6,7]",,,,,,,,,,,,,,,,,,,,,,,,,,,,,,,,,,,,,0,0,0,0,1,,,,,,,,,,,,
,,6312ada1ce715ee3916c3748,2022-09-08_14h18.19.034,CGTgamblingSpanTasks,2022.2.1,Linux armv8l,59.62318149,,,,,,,,,,,,,,,,,,,,,,,,,,,,,,,,,,,,,,,,,,,,,,,,,,,,,,,,,,,,,,,,,,,,,,,,,,,,,,,,,,"[9,3,8,4,6,7]",,,,,,,,,,,,,,,,,,,,,,,,,,,,,,,,,,,,,1,0,1,0,1,,,,,,,,,,,,
,,6312ada1ce715ee3916c3748,2022-09-08_14h18.19.034,CGTgamblingSpanTasks,2022.2.1,Linux armv8l,59.62318149,,,,,,,,,,,,,,,,,,,,,,,,,,,,,,,,,,,,,,,,,,,,,,,,,,,,,,,,,,,,,,,,,,,,,,,,,,,,,,,,,,"[9,3,8,4,6,7]",,,,,,,,,,,,,,,,,,,,,,,,,,,,,,,,,,,,,2,0,2,0,1,,,,,,,,,,,,
,,6312ada1ce715ee3916c3748,2022-09-08_14h18.19.034,CGTgamblingSpanTasks,2022.2.1,Linux armv8l,59.62318149,,,,,,,,,,,,,,,,,,,,,,,,,,,,,,,,,,,,,,,,,,,,,,,,,,,,,,,,,,,,,,,,,,,,,,,,,,,,,,,,,,"[9,3,8,4,6,7]",,,,,,,,,,,,,,,,,,,,,,,,,,,,,,,,,,,,,3,0,3,0,1,,,,,,,,,,,,
,,6312ada1ce715ee3916c3748,2022-09-08_14h18.19.034,CGTgamblingSpanTasks,2022.2.1,Linux armv8l,59.62318149,,,,,,,,,,,,,,,,,,,,,,,,,,,,,,,,,,,,,,,,,,,,,,,,,,,,,,,,,,,,,,,,,,,,,,,,,,,,,,,,,,"[9,3,8,4,6,7]",,,,,,,,,,,,,,,,,,,,,,,,,,,,,,,,,,,,,4,0,4,0,1,,,,,,,,,,,,
,,6312ada1ce715ee3916c3748,2022-09-08_14h18.19.034,CGTgamblingSpanTasks,2022.2.1,Linux armv8l,59.62318149,,,,,,,,,,,,,,,,,,,,,,,,,,,,,,,,,,,,,,,,,,,,,,,,,,,,,,,,,,,,,,,,,,,,,,,,,,,,,,,,,,"[9,3,8,4,6,7]",,,,,,,,,,,,,,,,,,,,,,,,,,,,,,,,,,,,,5,0,5,0,1,,,,,,,,,,,,
,,6312ada1ce715ee3916c3748,2022-09-08_14h18.19.034,CGTgamblingSpanTasks,2022.2.1,Linux armv8l,59.62318149,,,,,,,,,,,,,,,,,,,,,,,,,,,,,,,,,,,,,,,,,,,,,,,,,,,,,,,,,,,,,,,1,,,,,,,,,,,,,,,,,,,,,,,,,,,,,,,,,,,,,5,,,,,,,,,,,,,,,,,,,,,,,,764839,0.020406036,-0.414238205,1,0,0,cont_buttonBS,0,4,4,4,1
,,6312ada1ce715ee3916c3748,2022-09-08_14h18.19.034,CGTgamblingSpanTasks,2022.2.1,Linux armv8l,59.62318149,,,,,,,,,,,,,,,,,,,,,,,,,,,,,,,,,,,,,,,,,,,,,,,,,,,,,,,,,,,,,,,,,,,,,,,,,,,,,,,,,,"[6,1,7,2,4,5,3]",,,,,,,,,,,,,,,,,,,,,,,,,,,,,,,,,,,,,0,0,0,0,1,,,,,,,,,,,,
,,6312ada1ce715ee3916c3748,2022-09-08_14h18.19.034,CGTgamblingSpanTasks,2022.2.1,Linux armv8l,59.62318149,,,,,,,,,,,,,,,,,,,,,,,,,,,,,,,,,,,,,,,,,,,,,,,,,,,,,,,,,,,,,,,,,,,,,,,,,,,,,,,,,,"[6,1,7,2,4,5,3]",,,,,,,,,,,,,,,,,,,,,,,,,,,,,,,,,,,,,1,0,1,0,1,,,,,,,,,,,,
,,6312ada1ce715ee3916c3748,2022-09-08_14h18.19.034,CGTgamblingSpanTasks,2022.2.1,Linux armv8l,59.62318149,,,,,,,,,,,,,,,,,,,,,,,,,,,,,,,,,,,,,,,,,,,,,,,,,,,,,,,,,,,,,,,,,,,,,,,,,,,,,,,,,,"[6,1,7,2,4,5,3]",,,,,,,,,,,,,,,,,,,,,,,,,,,,,,,,,,,,,2,0,2,0,1,,,,,,,,,,,,
,,6312ada1ce715ee3916c3748,2022-09-08_14h18.19.034,CGTgamblingSpanTasks,2022.2.1,Linux armv8l,59.62318149,,,,,,,,,,,,,,,,,,,,,,,,,,,,,,,,,,,,,,,,,,,,,,,,,,,,,,,,,,,,,,,,,,,,,,,,,,,,,,,,,,"[6,1,7,2,4,5,3]",,,,,,,,,,,,,,,,,,,,,,,,,,,,,,,,,,,,,3,0,3,0,1,,,,,,,,,,,,
,,6312ada1ce715ee3916c3748,2022-09-08_14h18.19.034,CGTgamblingSpanTasks,2022.2.1,Linux armv8l,59.62318149,,,,,,,,,,,,,,,,,,,,,,,,,,,,,,,,,,,,,,,,,,,,,,,,,,,,,,,,,,,,,,,,,,,,,,,,,,,,,,,,,,"[6,1,7,2,4,5,3]",,,,,,,,,,,,,,,,,,,,,,,,,,,,,,,,,,,,,4,0,4,0,1,,,,,,,,,,,,
,,6312ada1ce715ee3916c3748,2022-09-08_14h18.19.034,CGTgamblingSpanTasks,2022.2.1,Linux armv8l,59.62318149,,,,,,,,,,,,,,,,,,,,,,,,,,,,,,,,,,,,,,,,,,,,,,,,,,,,,,,,,,,,,,,,,,,,,,,,,,,,,,,,,,"[6,1,7,2,4,5,3]",,,,,,,,,,,,,,,,,,,,,,,,,,,,,,,,,,,,,5,0,5,0,1,,,,,,,,,,,,
,,6312ada1ce715ee3916c3748,2022-09-08_14h18.19.034,CGTgamblingSpanTasks,2022.2.1,Linux armv8l,59.62318149,,,,,,,,,,,,,,,,,,,,,,,,,,,,,,,,,,,,,,,,,,,,,,,,,,,,,,,,,,,,,,,,,,,,,,,,,,,,,,,,,,"[6,1,7,2,4,5,3]",,,,,,,,,,,,,,,,,,,,,,,,,,,,,,,,,,,,,6,0,6,0,1,,,,,,,,,,,,
,,6312ada1ce715ee3916c3748,2022-09-08_14h18.19.034,CGTgamblingSpanTasks,2022.2.1,Linux armv8l,59.62318149,,,,,,,,,,,,,,,,,,,,,,,,,,,,,,,,,,,,,,,,,,,,,,,,,,,,,,,,,,,,,,,0,,,,,,,,,,,,,,,,,,,,,,,,,,,,,,,,,,,,,6,,,,,,,,,,,,,,,,,,,,,,,,36814,0.033732452,-0.398417969,1,0,0,cont_buttonBS,0,5,5,5,1
,,6312ada1ce715ee3916c3748,2022-09-08_14h18.19.034,CGTgamblingSpanTasks,2022.2.1,Linux armv8l,59.62318149,,,,,,,,,,,,,,,,,,,,,,,,,,,,,,,,,,,,,,,,,,,,,,,,,,,,,,,,,,,,,,,,,,,,,,,,,,,,,,,,,,"[3,6,2,1,7,9,5]",,,,,,,,,,,,,,,,,,,,,,,,,,,,,,,,,,,,,0,0,0,0,1,,,,,,,,,,,,
,,6312ada1ce715ee3916c3748,2022-09-08_14h18.19.034,CGTgamblingSpanTasks,2022.2.1,Linux armv8l,59.62318149,,,,,,,,,,,,,,,,,,,,,,,,,,,,,,,,,,,,,,,,,,,,,,,,,,,,,,,,,,,,,,,,,,,,,,,,,,,,,,,,,,"[3,6,2,1,7,9,5]",,,,,,,,,,,,,,,,,,,,,,,,,,,,,,,,,,,,,1,0,1,0,1,,,,,,,,,,,,
,,6312ada1ce715ee3916c3748,2022-09-08_14h18.19.034,CGTgamblingSpanTasks,2022.2.1,Linux armv8l,59.62318149,,,,,,,,,,,,,,,,,,,,,,,,,,,,,,,,,,,,,,,,,,,,,,,,,,,,,,,,,,,,,,,,,,,,,,,,,,,,,,,,,,"[3,6,2,1,7,9,5]",,,,,,,,,,,,,,,,,,,,,,,,,,,,,,,,,,,,,2,0,2,0,1,,,,,,,,,,,,
,,6312ada1ce715ee3916c3748,2022-09-08_14h18.19.034,CGTgamblingSpanTasks,2022.2.1,Linux armv8l,59.62318149,,,,,,,,,,,,,,,,,,,,,,,,,,,,,,,,,,,,,,,,,,,,,,,,,,,,,,,,,,,,,,,,,,,,,,,,,,,,,,,,,,"[3,6,2,1,7,9,5]",,,,,,,,,,,,,,,,,,,,,,,,,,,,,,,,,,,,,3,0,3,0,1,,,,,,,,,,,,
,,6312ada1ce715ee3916c3748,2022-09-08_14h18.19.034,CGTgamblingSpanTasks,2022.2.1,Linux armv8l,59.62318149,,,,,,,,,,,,,,,,,,,,,,,,,,,,,,,,,,,,,,,,,,,,,,,,,,,,,,,,,,,,,,,,,,,,,,,,,,,,,,,,,,"[3,6,2,1,7,9,5]",,,,,,,,,,,,,,,,,,,,,,,,,,,,,,,,,,,,,4,0,4,0,1,,,,,,,,,,,,
,,6312ada1ce715ee3916c3748,2022-09-08_14h18.19.034,CGTgamblingSpanTasks,2022.2.1,Linux armv8l,59.62318149,,,,,,,,,,,,,,,,,,,,,,,,,,,,,,,,,,,,,,,,,,,,,,,,,,,,,,,,,,,,,,,,,,,,,,,,,,,,,,,,,,"[3,6,2,1,7,9,5]",,,,,,,,,,,,,,,,,,,,,,,,,,,,,,,,,,,,,5,0,5,0,1,,,,,,,,,,,,
,,6312ada1ce715ee3916c3748,2022-09-08_14h18.19.034,CGTgamblingSpanTasks,2022.2.1,Linux armv8l,59.62318149,,,,,,,,,,,,,,,,,,,,,,,,,,,,,,,,,,,,,,,,,,,,,,,,,,,,,,,,,,,,,,,,,,,,,,,,,,,,,,,,,,"[3,6,2,1,7,9,5]",,,,,,,,,,,,,,,,,,,,,,,,,,,,,,,,,,,,,6,0,6,0,1,,,,,,,,,,,,
,,6312ada1ce715ee3916c3748,2022-09-08_14h18.19.034,CGTgamblingSpanTasks,2022.2.1,Linux armv8l,59.62318149,,,,,,,,,,,,,,,,,,,,,,,,,,,,,,,,,,,,,,,,,,,,,,,,,,,,,,,,,,,,,,,1,,,,,,,,,,,,,,,,,,,,,,,,,,,,,,,,,,,,,7,,,,,,,,,,,,,,,,,,,,,,,,5971263,0.047891693,-0.402581177,1,0,0,cont_buttonBS,0,6,6,6,1
,,6312ada1ce715ee3916c3748,2022-09-08_14h18.19.034,CGTgamblingSpanTasks,2022.2.1,Linux armv8l,59.62318149,,,,,,,,,,,,,,,,,,,,,,,,,,,,,,,,,,,,,,,,,,,,,,,,,,,,,,,,,,,,,,,,,,,,,,,,,,,,,,,,,,"[1,8,2,9,6,5,3,7]",,,,,,,,,,,,,,,,,,,,,,,,,,,,,,,,,,,,,0,0,0,0,1,,,,,,,,,,,,
,,6312ada1ce715ee3916c3748,2022-09-08_14h18.19.034,CGTgamblingSpanTasks,2022.2.1,Linux armv8l,59.62318149,,,,,,,,,,,,,,,,,,,,,,,,,,,,,,,,,,,,,,,,,,,,,,,,,,,,,,,,,,,,,,,,,,,,,,,,,,,,,,,,,,"[1,8,2,9,6,5,3,7]",,,,,,,,,,,,,,,,,,,,,,,,,,,,,,,,,,,,,1,0,1,0,1,,,,,,,,,,,,
