initITIstatic,initITIdynamic,participant,date,expName,psychopyVersion,OS,frameRate,inst1.keys,inst1.rt,startPracResp.keys,startPracResp.rt,choice1.keys,choice1.rt,outcome,extraITI,trials.thisRepN,trials.thisTrialN,trials.thisN,trials.thisIndex,trials.ran,riskyGain,riskyLoss,alternative,isi,iti,loc,postPractResp.keys,postPractResp.rt,realloc,realChoice.keys,realChoice.rt,outcomes,choices,actualITI,init ITI,staticRDM.thisRepN,staticRDM.thisTrialN,staticRDM.thisN,staticRDM.thisIndex,staticRDM.ran,riskyoption1,riskyoption2,safeoption,ischecktrial,dynamicChoiceSetName,dynamicChoiceSetPath,bestRho,bestMu,trials_2.thisRepN,trials_2.thisTrialN,trials_2.thisN,trials_2.thisIndex,trials_2.ran,key_resp.keys,key_resp.rt,dynamicRDM.thisRepN,dynamicRDM.thisTrialN,dynamicRDM.thisN,dynamicRDM.thisIndex,dynamicRDM.ran,choiceP,easy0difficult1,stopBreak.keys,stopBreak.rt,movealong.keys,movealong.rt,startPractice.keys,startPractice.rt,textboxPractice.text,correct,mousePractice.x,mousePractice.y,mousePractice.leftButton,mousePractice.midButton,mousePractice.rightButton,mousePractice.clicked_name,trialFSPractice.thisRepN,trialFSPractice.thisTrialN,trialFSPractice.thisN,trialFSPractice.thisIndex,trialFSPractice.ran,digitSpanForward,digits,digitsReverse,digitSpanReverse,digitsReverseCorrAnswer,startFSreal.keys,startFSreal.rt,digitsForTrial,digitLoop.thisRepN,digitLoop.thisTrialN,digitLoop.thisN,digitLoop.thisIndex,digitLoop.ran,textbox.text,mouse_3.x,mouse_3.y,mouse_3.leftButton,mouse_3.midButton,mouse_3.rightButton,mouse_3.clicked_name,trialsFS.thisRepN,trialsFS.thisTrialN,trialsFS.thisN,trialsFS.thisIndex,trialsFS.ran,trialNumber,moveToBS.keys,moveToBS.rt,startBSprac.keys,startBSprac.rt,textboxPractice_2.text,mousePractice_2.x,mousePractice_2.y,mousePractice_2.leftButton,mousePractice_2.midButton,mousePractice_2.rightButton,mousePractice_2.clicked_name,trialsPracticeBS.thisRepN,trialsPracticeBS.thisTrialN,trialsPracticeBS.thisN,trialsPracticeBS.thisIndex,trialsPracticeBS.ran,startBSreal.keys,startBSreal.rt,digitLoopBS.thisRepN,digitLoopBS.thisTrialN,digitLoopBS.thisN,digitLoopBS.thisIndex,digitLoopBS.ran,textboxBS.text,mouseBS.x,mouseBS.y,mouseBS.leftButton,mouseBS.midButton,mouseBS.rightButton,mouseBS.clicked_name,trialsBS.thisRepN,trialsBS.thisTrialN,trialsBS.thisN,trialsBS.thisIndex,trialsBS.ran
"[1.5,1.5,1.5,1.5,1.5,1,1.5,1.5,1,1,1,1.5,1.5,1,1,1,1.5,1.5,1,1,1,1,1.5,1,1.5,1.5,1,1.5,1.5,1.5,1,1,1.5,1.5,1,1,1,1.5,1,1.5,1.5,1,1,1,1,1,1.5,1.5,1.5,1]","[1.5,1,1,1,1.5,1.5,1.5,1.5,1,1.5,1,1,1.5,1,1.5,1,1,1,1,1.5,1,1,1,1,1.5,1,1,1.5,1.5,1,1,1.5,1.5,1.5,1,1,1.5,1.5,1,1.5,1,1,1,1.5,1,1.5,1.5,1.5,1,1,1.5,1,1.5,1.5,1.5,1.5,1,1,1,1.5,1.5,1,1.5,1.5,1,1.5,1.5,1,1,1,1.5,1,1,1.5,1.5,1.5,1,1.5,1.5,1,1.5,1.5,1,1.5,1.5,1,1.5,1,1,1.5,1.5,1,1.5,1.5,1,1.5,1.5,1.5,1,1.5,1,1,1.5,1,1.5,1.5,1.5,1,1.5,1,1.5,1,1,1.5,1,1,1,1,1,1.5]",62c396eed1893e06fdad4574,2022-09-08_14h19.12.377,CGTgamblingSpanTasks,2022.2.1,MacIntel,60.0024001,,,,,,,,,,,,,,,,,,,,,,,,,,,,,,,,,,,,,,,,,,,,,,,,,,,,,,,,,,,,,,,,,,,,,,,,,,,,,,,,,,,,,,,,,,,,,,,,,,,,,,,,,,,,,,,,,,,,,,,,,,,,,,,,,,,,,,,
,,62c396eed1893e06fdad4574,2022-09-08_14h19.12.377,CGTgamblingSpanTasks,2022.2.1,MacIntel,60.0024001,return,12.5855,,,,,,,,,,,,,,,,,,,,,,,,,,,,,,,,,,,,,,,,,,,,,,,,,,,,,,,,,,,,,,,,,,,,,,,,,,,,,,,,,,,,,,,,,,,,,,,,,,,,,,,,,,,,,,,,,,,,,,,,,,,,,,,,,,,,,
,,62c396eed1893e06fdad4574,2022-09-08_14h19.12.377,CGTgamblingSpanTasks,2022.2.1,MacIntel,60.0024001,,,v,0.3009,,,,,,,,,,,,,,,,,,,,,,,,,,,,,,,,,,,,,,,,,,,,,,,,,,,,,,,,,,,,,,,,,,,,,,,,,,,,,,,,,,,,,,,,,,,,,,,,,,,,,,,,,,,,,,,,,,,,,,,,,,,,,,,,,,,
,,62c396eed1893e06fdad4574,2022-09-08_14h19.12.377,CGTgamblingSpanTasks,2022.2.1,MacIntel,60.0024001,,,,,n,1.8754,9.45,2.1246,0,0,0,0,1,18.23,0,9.45,2,1,1,,,,,,,,,,,,,,,,,,,,,,,,,,,,,,,,,,,,,,,,,,,,,,,,,,,,,,,,,,,,,,,,,,,,,,,,,,,,,,,,,,,,,,,,,,,,,,,,,,,,,,,,,,,,,,,,,,,,
,,62c396eed1893e06fdad4574,2022-09-08_14h19.12.377,CGTgamblingSpanTasks,2022.2.1,MacIntel,60.0024001,,,,,n,1.8518,35.16,2.1482,0,1,1,1,1,53.27,0,35.16,1,1.5,1,,,,,,,,,,,,,,,,,,,,,,,,,,,,,,,,,,,,,,,,,,,,,,,,,,,,,,,,,,,,,,,,,,,,,,,,,,,,,,,,,,,,,,,,,,,,,,,,,,,,,,,,,,,,,,,,,,,,
,,62c396eed1893e06fdad4574,2022-09-08_14h19.12.377,CGTgamblingSpanTasks,2022.2.1,MacIntel,60.0024001,,,,,n,1.0535,8.27,2.9465,0,2,2,2,1,8.27,0,1.15,1,1.5,2,,,,,,,,,,,,,,,,,,,,,,,,,,,,,,,,,,,,,,,,,,,,,,,,,,,,,,,,,,,,,,,,,,,,,,,,,,,,,,,,,,,,,,,,,,,,,,,,,,,,,,,,,,,,,,,,,,,,
,,62c396eed1893e06fdad4574,2022-09-08_14h19.12.377,CGTgamblingSpanTasks,2022.2.1,MacIntel,60.0024001,,,,,v,1.0488,45.88,2.9512,0,3,3,3,1,45.88,0,40.41,3,1,1,,,,,,,,,,,,,,,,,,,,,,,,,,,,,,,,,,,,,,,,,,,,,,,,,,,,,,,,,,,,,,,,,,,,,,,,,,,,,,,,,,,,,,,,,,,,,,,,,,,,,,,,,,,,,,,,,,,,
,,62c396eed1893e06fdad4574,2022-09-08_14h19.12.377,CGTgamblingSpanTasks,2022.2.1,MacIntel,60.0024001,,,,,v,1.946,11.96,2.054,0,4,4,4,1,21.56,0,11.96,1,1.5,2,,,,,,,,,,,,,,,,,,,,,,,,,,,,,,,,,,,,,,,,,,,,,,,,,,,,,,,,,,,,,,,,,,,,,,,,,,,,,,,,,,,,,,,,,,,,,,,,,,,,,,,,,,,,,,,,,,,,
,,62c396eed1893e06fdad4574,2022-09-08_14h19.12.377,CGTgamblingSpanTasks,2022.2.1,MacIntel,60.0024001,,,,,,,,,,,,,,,,,,,,v,2.1285,,,,,,,,,,,,,,,,,,,,,,,,,,,,,,,,,,,,,,,,,,,,,,,,,,,,,,,,,,,,,,,,,,,,,,,,,,,,,,,,,,,,,,,,,,,,,,,,,,,,,,,,,,,,,,,,,,
,,62c396eed1893e06fdad4574,2022-09-08_14h19.12.377,CGTgamblingSpanTasks,2022.2.1,MacIntel,60.0024001,,,,,,,,2.6058,,,,,,,,,,,,,,2,v,1.3942,10.15,0,4.1058,1.5,0,0,0,33,1,15.7,0,10.15,0,,,,,,,,,,,,,,,,,,,,,,,,,,,,,,,,,,,,,,,,,,,,,,,,,,,,,,,,,,,,,,,,,,,,,,,,,,,,,,,,,,,,,,,,,,,,,,,,,,
,,62c396eed1893e06fdad4574,2022-09-08_14h19.12.377,CGTgamblingSpanTasks,2022.2.1,MacIntel,60.0024001,,,,,,,,2.5796,,,,,,,,,,,,,,1,n,1.4204,6.4,0,4.0796,1.5,0,1,1,26,1,11.2,0,6.4,0,,,,,,,,,,,,,,,,,,,,,,,,,,,,,,,,,,,,,,,,,,,,,,,,,,,,,,,,,,,,,,,,,,,,,,,,,,,,,,,,,,,,,,,,,,,,,,,,,,
,,62c396eed1893e06fdad4574,2022-09-08_14h19.12.377,CGTgamblingSpanTasks,2022.2.1,MacIntel,60.0024001,,,,,,,,2.6257,,,,,,,,,,,,,,2,v,1.3743,6.29,0,4.1257,1.5,0,2,2,24,1,11.43,0,6.29,0,,,,,,,,,,,,,,,,,,,,,,,,,,,,,,,,,,,,,,,,,,,,,,,,,,,,,,,,,,,,,,,,,,,,,,,,,,,,,,,,,,,,,,,,,,,,,,,,,,
,,62c396eed1893e06fdad4574,2022-09-08_14h19.12.377,CGTgamblingSpanTasks,2022.2.1,MacIntel,60.0024001,,,,,,,,2.8317,,,,,,,,,,,,,,2,v,1.1683,6.81,0,4.3317,1.5,0,3,3,34,1,10.39,0,6.81,0,,,,,,,,,,,,,,,,,,,,,,,,,,,,,,,,,,,,,,,,,,,,,,,,,,,,,,,,,,,,,,,,,,,,,,,,,,,,,,,,,,,,,,,,,,,,,,,,,,
,,62c396eed1893e06fdad4574,2022-09-08_14h19.12.377,CGTgamblingSpanTasks,2022.2.1,MacIntel,60.0024001,,,,,,,,2.9397,,,,,,,,,,,,,,1,n,1.0603,6.73,0,4.4397,1.5,0,4,4,32,1,10.55,0,6.73,0,,,,,,,,,,,,,,,,,,,,,,,,,,,,,,,,,,,,,,,,,,,,,,,,,,,,,,,,,,,,,,,,,,,,,,,,,,,,,,,,,,,,,,,,,,,,,,,,,,
,,62c396eed1893e06fdad4574,2022-09-08_14h19.12.377,CGTgamblingSpanTasks,2022.2.1,MacIntel,60.0024001,,,,,,,,2.5391,,,,,,,,,,,,,,1,v,1.4609,21.32,1,3.5391,1,0,5,5,7,1,21.32,0,7.34,0,,,,,,,,,,,,,,,,,,,,,,,,,,,,,,,,,,,,,,,,,,,,,,,,,,,,,,,,,,,,,,,,,,,,,,,,,,,,,,,,,,,,,,,,,,,,,,,,,,
,,62c396eed1893e06fdad4574,2022-09-08_14h19.12.377,CGTgamblingSpanTasks,2022.2.1,MacIntel,60.0024001,,,,,,,,2.8245,,,,,,,,,,,,,,2,n,1.1755,0,1,4.3245,1.5,0,6,6,5,1,22.97,0,6.51,0,,,,,,,,,,,,,,,,,,,,,,,,,,,,,,,,,,,,,,,,,,,,,,,,,,,,,,,,,,,,,,,,,,,,,,,,,,,,,,,,,,,,,,,,,,,,,,,,,,
,,62c396eed1893e06fdad4574,2022-09-08_14h19.12.377,CGTgamblingSpanTasks,2022.2.1,MacIntel,60.0024001,,,,,,,,2.8427,,,,,,,,,,,,,,1,n,1.1573,10.37,0,4.3427,1.5,0,7,7,37,1,15.27,0,10.37,0,,,,,,,,,,,,,,,,,,,,,,,,,,,,,,,,,,,,,,,,,,,,,,,,,,,,,,,,,,,,,,,,,,,,,,,,,,,,,,,,,,,,,,,,,,,,,,,,,,
,,62c396eed1893e06fdad4574,2022-09-08_14h19.12.377,CGTgamblingSpanTasks,2022.2.1,MacIntel,60.0024001,,,,,,,,2.392,,,,,,,,,,,,,,2,n,1.608,19.86,1,3.392,1,0,8,8,11,1,19.86,0,8.07,0,,,,,,,,,,,,,,,,,,,,,,,,,,,,,,,,,,,,,,,,,,,,,,,,,,,,,,,,,,,,,,,,,,,,,,,,,,,,,,,,,,,,,,,,,,,,,,,,,,
,,62c396eed1893e06fdad4574,2022-09-08_14h19.12.377,CGTgamblingSpanTasks,2022.2.1,MacIntel,60.0024001,,,,,,,,2.8942,,,,,,,,,,,,,,2,v,1.1058,9.36,0,3.8942,1,0,9,9,23,1,17.28,0,9.36,0,,,,,,,,,,,,,,,,,,,,,,,,,,,,,,,,,,,,,,,,,,,,,,,,,,,,,,,,,,,,,,,,,,,,,,,,,,,,,,,,,,,,,,,,,,,,,,,,,,
,,62c396eed1893e06fdad4574,2022-09-08_14h19.12.377,CGTgamblingSpanTasks,2022.2.1,MacIntel,60.0024001,,,,,,,,2.3602,,,,,,,,,,,,,,1,v,1.6398,0,1,3.3602,1,0,10,10,12,1,13.04,0,5.48,0,,,,,,,,,,,,,,,,,,,,,,,,,,,,,,,,,,,,,,,,,,,,,,,,,,,,,,,,,,,,,,,,,,,,,,,,,,,,,,,,,,,,,,,,,,,,,,,,,,
,,62c396eed1893e06fdad4574,2022-09-08_14h19.12.377,CGTgamblingSpanTasks,2022.2.1,MacIntel,60.0024001,,,,,,,,2.9386,,,,,,,,,,,,,,1,n,1.0614,6.53,0,4.4386,1.5,0,11,11,28,1,10.95,0,6.53,0,,,,,,,,,,,,,,,,,,,,,,,,,,,,,,,,,,,,,,,,,,,,,,,,,,,,,,,,,,,,,,,,,,,,,,,,,,,,,,,,,,,,,,,,,,,,,,,,,,
,,62c396eed1893e06fdad4574,2022-09-08_14h19.12.377,CGTgamblingSpanTasks,2022.2.1,MacIntel,60.0024001,,,,,,,,1.9955,,,,,,,,,,,,,,2,v,2.0045,3.13,0,3.4955,1.5,0,12,12,47,1,0,0,3.13,1,,,,,,,,,,,,,,,,,,,,,,,,,,,,,,,,,,,,,,,,,,,,,,,,,,,,,,,,,,,,,,,,,,,,,,,,,,,,,,,,,,,,,,,,,,,,,,,,,,
,,62c396eed1893e06fdad4574,2022-09-08_14h19.12.377,CGTgamblingSpanTasks,2022.2.1,MacIntel,60.0024001,,,,,,,,2.5145,,,,,,,,,,,,,,1,n,1.4855,6.19,0,3.5145,1,0,13,13,22,1,11.62,0,6.19,0,,,,,,,,,,,,,,,,,,,,,,,,,,,,,,,,,,,,,,,,,,,,,,,,,,,,,,,,,,,,,,,,,,,,,,,,,,,,,,,,,,,,,,,,,,,,,,,,,,
,,62c396eed1893e06fdad4574,2022-09-08_14h19.12.377,CGTgamblingSpanTasks,2022.2.1,MacIntel,60.0024001,,,,,,,,2.6108,,,,,,,,,,,,,,1,n,1.3892,6.94,0,3.6108,1,0,14,14,38,1,10.12,0,6.94,0,,,,,,,,,,,,,,,,,,,,,,,,,,,,,,,,,,,,,,,,,,,,,,,,,,,,,,,,,,,,,,,,,,,,,,,,,,,,,,,,,,,,,,,,,,,,,,,,,,
,,62c396eed1893e06fdad4574,2022-09-08_14h19.12.377,CGTgamblingSpanTasks,2022.2.1,MacIntel,60.0024001,,,,,,,,3.1964,,,,,,,,,,,,,,1,n,0.8036,10.27,0,4.1964,1,0,15,15,35,1,15.47,0,10.27,0,,,,,,,,,,,,,,,,,,,,,,,,,,,,,,,,,,,,,,,,,,,,,,,,,,,,,,,,,,,,,,,,,,,,,,,,,,,,,,,,,,,,,,,,,,,,,,,,,,
,,62c396eed1893e06fdad4574,2022-09-08_14h19.12.377,CGTgamblingSpanTasks,2022.2.1,MacIntel,60.0024001,,,,,,,,1.9427,,,,,,,,,,,,,,2,n,2.0573,18.33,1,3.4427,1.5,0,16,16,17,1,18.33,0,8.84,0,,,,,,,,,,,,,,,,,,,,,,,,,,,,,,,,,,,,,,,,,,,,,,,,,,,,,,,,,,,,,,,,,,,,,,,,,,,,,,,,,,,,,,,,,,,,,,,,,,
,,62c396eed1893e06fdad4574,2022-09-08_14h19.12.377,CGTgamblingSpanTasks,2022.2.1,MacIntel,60.0024001,,,,,,,,2.5922,,,,,,,,,,,,,,2,n,1.4078,0,1,4.0922,1.5,0,17,17,0,1,20.03,0,1.99,0,,,,,,,,,,,,,,,,,,,,,,,,,,,,,,,,,,,,,,,,,,,,,,,,,,,,,,,,,,,,,,,,,,,,,,,,,,,,,,,,,,,,,,,,,,,,,,,,,,
,,62c396eed1893e06fdad4574,2022-09-08_14h19.12.377,CGTgamblingSpanTasks,2022.2.1,MacIntel,60.0024001,,,,,,,,2.7604,,,,,,,,,,,,,,2,n,1.2396,12.36,1,3.7604,1,0,18,18,16,1,12.36,0,5.82,0,,,,,,,,,,,,,,,,,,,,,,,,,,,,,,,,,,,,,,,,,,,,,,,,,,,,,,,,,,,,,,,,,,,,,,,,,,,,,,,,,,,,,,,,,,,,,,,,,,
,,62c396eed1893e06fdad4574,2022-09-08_14h19.12.377,CGTgamblingSpanTasks,2022.2.1,MacIntel,60.0024001,,,,,,,,2.8463,,,,,,,,,,,,,,2,v,1.1537,7.55,0,3.8463,1,0,19,19,45,1,0,0,7.55,1,,,,,,,,,,,,,,,,,,,,,,,,,,,,,,,,,,,,,,,,,,,,,,,,,,,,,,,,,,,,,,,,,,,,,,,,,,,,,,,,,,,,,,,,,,,,,,,,,,
,,62c396eed1893e06fdad4574,2022-09-08_14h19.12.377,CGTgamblingSpanTasks,2022.2.1,MacIntel,60.0024001,,,,,,,,2.7559,,,,,,,,,,,,,,1,v,1.2441,16,1,3.7559,1,0,20,20,4,1,16,0,4,0,,,,,,,,,,,,,,,,,,,,,,,,,,,,,,,,,,,,,,,,,,,,,,,,,,,,,,,,,,,,,,,,,,,,,,,,,,,,,,,,,,,,,,,,,,,,,,,,,,
,,62c396eed1893e06fdad4574,2022-09-08_14h19.12.377,CGTgamblingSpanTasks,2022.2.1,MacIntel,60.0024001,,,,,,,,2.8561,,,,,,,,,,,,,,1,v,1.1439,0,1,3.8561,1,0,21,21,10,1,13.45,0,5.27,0,,,,,,,,,,,,,,,,,,,,,,,,,,,,,,,,,,,,,,,,,,,,,,,,,,,,,,,,,,,,,,,,,,,,,,,,,,,,,,,,,,,,,,,,,,,,,,,,,,
,,62c396eed1893e06fdad4574,2022-09-08_14h19.12.377,CGTgamblingSpanTasks,2022.2.1,MacIntel,60.0024001,,,,,,,,2.4615,,,,,,,,,,,,,,1,v,1.5385,0,1,3.9615,1.5,0,22,22,3,1,25.2,0,5.4,0,,,,,,,,,,,,,,,,,,,,,,,,,,,,,,,,,,,,,,,,,,,,,,,,,,,,,,,,,,,,,,,,,,,,,,,,,,,,,,,,,,,,,,,,,,,,,,,,,,
,,62c396eed1893e06fdad4574,2022-09-08_14h19.12.377,CGTgamblingSpanTasks,2022.2.1,MacIntel,60.0024001,,,,,,,,2.47,,,,,,,,,,,,,,2,v,1.53,6.88,0,3.47,1,0,23,23,36,1,10.24,0,6.88,0,,,,,,,,,,,,,,,,,,,,,,,,,,,,,,,,,,,,,,,,,,,,,,,,,,,,,,,,,,,,,,,,,,,,,,,,,,,,,,,,,,,,,,,,,,,,,,,,,,
,,62c396eed1893e06fdad4574,2022-09-08_14h19.12.377,CGTgamblingSpanTasks,2022.2.1,MacIntel,60.0024001,,,,,,,,2.3593,,,,,,,,,,,,,,2,n,1.6407,0,1,3.8593,1.5,0,24,24,41,1,14.26,0,0,1,,,,,,,,,,,,,,,,,,,,,,,,,,,,,,,,,,,,,,,,,,,,,,,,,,,,,,,,,,,,,,,,,,,,,,,,,,,,,,,,,,,,,,,,,,,,,,,,,,
,,62c396eed1893e06fdad4574,2022-09-08_14h19.12.377,CGTgamblingSpanTasks,2022.2.1,MacIntel,60.0024001,,,,,,,,2.4083,,,,,,,,,,,,,,1,v,1.5917,0,1,3.9083,1.5,0,25,25,15,1,18.77,0,8.61,0,,,,,,,,,,,,,,,,,,,,,,,,,,,,,,,,,,,,,,,,,,,,,,,,,,,,,,,,,,,,,,,,,,,,,,,,,,,,,,,,,,,,,,,,,,,,,,,,,,
,,62c396eed1893e06fdad4574,2022-09-08_14h19.12.377,CGTgamblingSpanTasks,2022.2.1,MacIntel,60.0024001,,,,,,,,2.3097,,,,,,,,,,,,,,1,n,1.6903,10.46,0,3.3097,1,0,26,26,39,1,15.09,0,10.46,0,,,,,,,,,,,,,,,,,,,,,,,,,,,,,,,,,,,,,,,,,,,,,,,,,,,,,,,,,,,,,,,,,,,,,,,,,,,,,,,,,,,,,,,,,,,,,,,,,,
,,62c396eed1893e06fdad4574,2022-09-08_14h19.12.377,CGTgamblingSpanTasks,2022.2.1,MacIntel,60.0024001,,,,,,,,2.3958,,,,,,,,,,,,,,2,n,1.6042,19.28,1,3.8958,1.5,0,27,27,13,1,19.28,0,8.36,0,,,,,,,,,,,,,,,,,,,,,,,,,,,,,,,,,,,,,,,,,,,,,,,,,,,,,,,,,,,,,,,,,,,,,,,,,,,,,,,,,,,,,,,,,,,,,,,,,,
,,62c396eed1893e06fdad4574,2022-09-08_14h19.12.377,CGTgamblingSpanTasks,2022.2.1,MacIntel,60.0024001,,,,,,,,2.5301,,,,,,,,,,,,,,1,v,1.4699,13.1,1,4.0301,1.5,0,28,28,44,1,13.1,7.73,4.68,1,,,,,,,,,,,,,,,,,,,,,,,,,,,,,,,,,,,,,,,,,,,,,,,,,,,,,,,,,,,,,,,,,,,,,,,,,,,,,,,,,,,,,,,,,,,,,,,,,,
,,62c396eed1893e06fdad4574,2022-09-08_14h19.12.377,CGTgamblingSpanTasks,2022.2.1,MacIntel,60.0024001,,,,,,,,2.2996,,,,,,,,,,,,,,2,n,1.7004,12.08,1,3.7996,1.5,0,29,29,18,1,12.08,0,5.96,0,,,,,,,,,,,,,,,,,,,,,,,,,,,,,,,,,,,,,,,,,,,,,,,,,,,,,,,,,,,,,,,,,,,,,,,,,,,,,,,,,,,,,,,,,,,,,,,,,,
,,62c396eed1893e06fdad4574,2022-09-08_14h19.12.377,CGTgamblingSpanTasks,2022.2.1,MacIntel,60.0024001,,,,,,,,2.4451,,,,,,,,,,,,,,2,n,1.5549,0,1,3.4451,1,0,30,30,2,1,17.73,0,3.13,0,,,,,,,,,,,,,,,,,,,,,,,,,,,,,,,,,,,,,,,,,,,,,,,,,,,,,,,,,,,,,,,,,,,,,,,,,,,,,,,,,,,,,,,,,,,,,,,,,,
,,62c396eed1893e06fdad4574,2022-09-08_14h19.12.377,CGTgamblingSpanTasks,2022.2.1,MacIntel,60.0024001,,,,,,,,2.1198,,,,,,,,,,,,,,2,v,1.8802,10.25,0,3.1198,1,0,31,31,46,1,0,0,10.25,1,,,,,,,,,,,,,,,,,,,,,,,,,,,,,,,,,,,,,,,,,,,,,,,,,,,,,,,,,,,,,,,,,,,,,,,,,,,,,,,,,,,,,,,,,,,,,,,,,,
,,62c396eed1893e06fdad4574,2022-09-08_14h19.12.377,CGTgamblingSpanTasks,2022.2.1,MacIntel,60.0024001,,,,,,,,2.076,,,,,,,,,,,,,,1,n,1.924,9.03,0,3.576,1.5,0,32,32,19,1,17.94,0,9.03,0,,,,,,,,,,,,,,,,,,,,,,,,,,,,,,,,,,,,,,,,,,,,,,,,,,,,,,,,,,,,,,,,,,,,,,,,,,,,,,,,,,,,,,,,,,,,,,,,,,
,,62c396eed1893e06fdad4574,2022-09-08_14h19.12.377,CGTgamblingSpanTasks,2022.2.1,MacIntel,60.0024001,,,,,,,,2.2934,,,,,,,,,,,,,,1,v,1.7066,0,1,3.7934,1.5,0,33,33,8,1,13.94,0,5.03,0,,,,,,,,,,,,,,,,,,,,,,,,,,,,,,,,,,,,,,,,,,,,,,,,,,,,,,,,,,,,,,,,,,,,,,,,,,,,,,,,,,,,,,,,,,,,,,,,,,
,,62c396eed1893e06fdad4574,2022-09-08_14h19.12.377,CGTgamblingSpanTasks,2022.2.1,MacIntel,60.0024001,,,,,,,,2.4795,,,,,,,,,,,,,,1,n,1.5205,9.87,0,3.4795,1,0,34,34,29,1,16.26,0,9.87,0,,,,,,,,,,,,,,,,,,,,,,,,,,,,,,,,,,,,,,,,,,,,,,,,,,,,,,,,,,,,,,,,,,,,,,,,,,,,,,,,,,,,,,,,,,,,,,,,,,
,,62c396eed1893e06fdad4574,2022-09-08_14h19.12.377,CGTgamblingSpanTasks,2022.2.1,MacIntel,60.0024001,,,,,,,,2.9752,,,,,,,,,,,,,,1,v,1.0248,20.53,1,3.9752,1,0,35,35,9,1,20.53,0,7.73,0,,,,,,,,,,,,,,,,,,,,,,,,,,,,,,,,,,,,,,,,,,,,,,,,,,,,,,,,,,,,,,,,,,,,,,,,,,,,,,,,,,,,,,,,,,,,,,,,,,
,,62c396eed1893e06fdad4574,2022-09-08_14h19.12.377,CGTgamblingSpanTasks,2022.2.1,MacIntel,60.0024001,,,,,,,,2.6472,,,,,,,,,,,,,,2,n,1.3528,0,1,3.6472,1,0,36,36,14,1,12.68,0,5.66,0,,,,,,,,,,,,,,,,,,,,,,,,,,,,,,,,,,,,,,,,,,,,,,,,,,,,,,,,,,,,,,,,,,,,,,,,,,,,,,,,,,,,,,,,,,,,,,,,,,
,,62c396eed1893e06fdad4574,2022-09-08_14h19.12.377,CGTgamblingSpanTasks,2022.2.1,MacIntel,60.0024001,,,,,,,,2.778,,,,,,,,,,,,,,1,n,1.222,6.08,0,4.278,1.5,0,37,37,20,1,11.84,0,6.08,0,,,,,,,,,,,,,,,,,,,,,,,,,,,,,,,,,,,,,,,,,,,,,,,,,,,,,,,,,,,,,,,,,,,,,,,,,,,,,,,,,,,,,,,,,,,,,,,,,,
,,62c396eed1893e06fdad4574,2022-09-08_14h19.12.377,CGTgamblingSpanTasks,2022.2.1,MacIntel,60.0024001,,,,,,,,2.8609,,,,,,,,,,,,,,1,v,1.1391,0,1,3.8609,1,0,38,38,40,1,10.35,0,0,1,,,,,,,,,,,,,,,,,,,,,,,,,,,,,,,,,,,,,,,,,,,,,,,,,,,,,,,,,,,,,,,,,,,,,,,,,,,,,,,,,,,,,,,,,,,,,,,,,,
,,62c396eed1893e06fdad4574,2022-09-08_14h19.12.377,CGTgamblingSpanTasks,2022.2.1,MacIntel,60.0024001,,,,,,,,2.7129,,,,,,,,,,,,,,2,n,1.2871,6.99,1,4.2129,1.5,0,39,39,43,1,16.11,6.99,6.99,1,,,,,,,,,,,,,,,,,,,,,,,,,,,,,,,,,,,,,,,,,,,,,,,,,,,,,,,,,,,,,,,,,,,,,,,,,,,,,,,,,,,,,,,,,,,,,,,,,,
,,62c396eed1893e06fdad4574,2022-09-08_14h19.12.377,CGTgamblingSpanTasks,2022.2.1,MacIntel,60.0024001,,,,,,,,2.8481,,,,,,,,,,,,,,2,n,1.1519,14.72,1,4.3481,1.5,0,40,40,6,1,14.72,0,4.64,0,,,,,,,,,,,,,,,,,,,,,,,,,,,,,,,,,,,,,,,,,,,,,,,,,,,,,,,,,,,,,,,,,,,,,,,,,,,,,,,,,,,,,,,,,,,,,,,,,,
,,62c396eed1893e06fdad4574,2022-09-08_14h19.12.377,CGTgamblingSpanTasks,2022.2.1,MacIntel,60.0024001,,,,,,,,3.0458,,,,,,,,,,,,,,2,n,0.9542,0,1,4.0458,1,0,41,41,42,1,19.86,0,0,1,,,,,,,,,,,,,,,,,,,,,,,,,,,,,,,,,,,,,,,,,,,,,,,,,,,,,,,,,,,,,,,,,,,,,,,,,,,,,,,,,,,,,,,,,,,,,,,,,,
,,62c396eed1893e06fdad4574,2022-09-08_14h19.12.377,CGTgamblingSpanTasks,2022.2.1,MacIntel,60.0024001,,,,,,,,2.1068,,,,,,,,,,,,,,2,v,1.8932,9.2,0,3.1068,1,0,42,42,21,1,17.59,0,9.2,0,,,,,,,,,,,,,,,,,,,,,,,,,,,,,,,,,,,,,,,,,,,,,,,,,,,,,,,,,,,,,,,,,,,,,,,,,,,,,,,,,,,,,,,,,,,,,,,,,,
,,62c396eed1893e06fdad4574,2022-09-08_14h19.12.377,CGTgamblingSpanTasks,2022.2.1,MacIntel,60.0024001,,,,,,,,2.746,,,,,,,,,,,,,,2,n,1.254,28.21,1,3.746,1,0,43,43,1,1,28.21,0,3.89,0,,,,,,,,,,,,,,,,,,,,,,,,,,,,,,,,,,,,,,,,,,,,,,,,,,,,,,,,,,,,,,,,,,,,,,,,,,,,,,,,,,,,,,,,,,,,,,,,,,
,,62c396eed1893e06fdad4574,2022-09-08_14h19.12.377,CGTgamblingSpanTasks,2022.2.1,MacIntel,60.0024001,,,,,,,,2.8776,,,,,,,,,,,,,,1,n,1.1224,9.5,0,3.8776,1,0,44,44,25,1,17,0,9.5,0,,,,,,,,,,,,,,,,,,,,,,,,,,,,,,,,,,,,,,,,,,,,,,,,,,,,,,,,,,,,,,,,,,,,,,,,,,,,,,,,,,,,,,,,,,,,,,,,,,
,,62c396eed1893e06fdad4574,2022-09-08_14h19.12.377,CGTgamblingSpanTasks,2022.2.1,MacIntel,60.0024001,,,,,,,,2.9773,,,,,,,,,,,,,,2,n,1.0227,15.96,1,3.9773,1,0,45,45,31,1,15.96,0,10.02,0,,,,,,,,,,,,,,,,,,,,,,,,,,,,,,,,,,,,,,,,,,,,,,,,,,,,,,,,,,,,,,,,,,,,,,,,,,,,,,,,,,,,,,,,,,,,,,,,,,
,,62c396eed1893e06fdad4574,2022-09-08_14h19.12.377,CGTgamblingSpanTasks,2022.2.1,MacIntel,60.0024001,,,,,,,,2.6468,,,,,,,,,,,,,,1,n,1.3532,6.63,0,4.1468,1.5,0,46,46,30,1,10.73,0,6.63,0,,,,,,,,,,,,,,,,,,,,,,,,,,,,,,,,,,,,,,,,,,,,,,,,,,,,,,,,,,,,,,,,,,,,,,,,,,,,,,,,,,,,,,,,,,,,,,,,,,
,,62c396eed1893e06fdad4574,2022-09-08_14h19.12.377,CGTgamblingSpanTasks,2022.2.1,MacIntel,60.0024001,,,,,,,,2.8206,,,,,,,,,,,,,,1,n,1.1794,9.7,0,4.3206,1.5,0,47,47,27,1,16.6,0,9.7,0,,,,,,,,,,,,,,,,,,,,,,,,,,,,,,,,,,,,,,,,,,,,,,,,,,,,,,,,,,,,,,,,,,,,,,,,,,,,,,,,,,,,,,,,,,,,,,,,,,
,,62c396eed1893e06fdad4574,2022-09-08_14h19.12.377,CGTgamblingSpanTasks,2022.2.1,MacIntel,60.0024001,,,,,,,,2.5395,,,,,,,,,,,,,,2,v,1.4605,10.68,0,4.0395,1.5,0,48,48,48,1,10.68,0,10.68,1,,,,,,,,,,,,,,,,,,,,,,,,,,,,,,,,,,,,,,,,,,,,,,,,,,,,,,,,,,,,,,,,,,,,,,,,,,,,,,,,,,,,,,,,,,,,,,,,,,
,,62c396eed1893e06fdad4574,2022-09-08_14h19.12.377,CGTgamblingSpanTasks,2022.2.1,MacIntel,60.0024001,,,,,,,,2.4796,,,,,,,,,,,,,,2,v,1.5204,9.92,0,3.4796,1,0,49,49,49,1,6.79,0,9.92,1,,,,,,,,,,,,,,,,,,,,,,,,,,,,,,,,,,,,,,,,,,,,,,,,,,,,,,,,,,,,,,,,,,,,,,,,,,,,,,,,,,,,,,,,,,,,,,,,,,
,,62c396eed1893e06fdad4574,2022-09-08_14h19.12.377,CGTgamblingSpanTasks,2022.2.1,MacIntel,60.0024001,,,,,,,,,,,,,,,,,,,,,,,,,,,,,,,,,,,,,,bespoke_choiceset_rhoInd075_muInd156.csv,bespoke_choicesets/bespoke_choiceset_rhoInd075_muInd156.csv,75,156,0,0,0,0,1,,,,,,,,,,,,,,,,,,,,,,,,,,,,,,,,,,,,,,,,,,,,,,,,,,,,,,,,,,,,,,,,,,,,,,,,,,,,,,,,,,,,,,,,,
,,62c396eed1893e06fdad4574,2022-09-08_14h19.12.377,CGTgamblingSpanTasks,2022.2.1,MacIntel,60.0024001,,,,,,,,,,,,,,,,,,,,,,,,,,,,,,,,,,,,,,,,,,,,,,,,,,,,,,,,,,,,,,,,,,,,,,,,,,,,,,,,,,,,,,,,,,,,,,,,,,,,,,,,,,,,,,,,,,,,,,,,,,,,,,,,,,,,,,,
,,62c396eed1893e06fdad4574,2022-09-08_14h19.12.377,CGTgamblingSpanTasks,2022.2.1,MacIntel,60.0024001,,,,,,,,,,,,,,,,,,,,,,,,,,,,,,,,,,,,,,,,,,,,,,,v,1.8096,,,,,,,,,,,,,,,,,,,,,,,,,,,,,,,,,,,,,,,,,,,,,,,,,,,,,,,,,,,,,,,,,,,,,,,,,,,,,,,,,,,,,,,
,,62c396eed1893e06fdad4574,2022-09-08_14h19.12.377,CGTgamblingSpanTasks,2022.2.1,MacIntel,60.0024001,,,,,,,,2.5623,,,,,,,,,,,,,,1,v,1.4377,0,1,4.0623,1.5,,,,,,22.0050376,0,2.257683666,,,,,,,,,,,,,0,0,0,4,1,0.491147312,1,,,,,,,,,,,,,,,,,,,,,,,,,,,,,,,,,,,,,,,,,,,,,,,,,,,,,,,,,,,,,,,,,,,,,,,,,,,,,,,,
,,62c396eed1893e06fdad4574,2022-09-08_14h19.12.377,CGTgamblingSpanTasks,2022.2.1,MacIntel,60.0024001,,,,,,,,2.8634,,,,,,,,,,,,,,1,n,1.1366,3.877530383,0,3.8634,1,,,,,,3.471484939,0,3.877530383,,,,,,,,,,,,,0,1,1,40,1,0.02623078,0,,,,,,,,,,,,,,,,,,,,,,,,,,,,,,,,,,,,,,,,,,,,,,,,,,,,,,,,,,,,,,,,,,,,,,,,,,,,,,,,
,,62c396eed1893e06fdad4574,2022-09-08_14h19.12.377,CGTgamblingSpanTasks,2022.2.1,MacIntel,60.0024001,,,,,,,,2.544,,,,,,,,,,,,,,2,v,1.456,11.35147481,0,3.544,1,,,,,,17.67865084,0,11.35147481,,,,,,,,,,,,,0,2,2,91,1,0.067304606,0,,,,,,,,,,,,,,,,,,,,,,,,,,,,,,,,,,,,,,,,,,,,,,,,,,,,,,,,,,,,,,,,,,,,,,,,,,,,,,,,
,,62c396eed1893e06fdad4574,2022-09-08_14h19.12.377,CGTgamblingSpanTasks,2022.2.1,MacIntel,60.0024001,,,,,,,,2.5622,,,,,,,,,,,,,,1,v,1.4378,0,1,3.5622,1,,,,,,29.75778644,0,2.810531415,,,,,,,,,,,,,0,3,3,113,1,0.512824233,1,,,,,,,,,,,,,,,,,,,,,,,,,,,,,,,,,,,,,,,,,,,,,,,,,,,,,,,,,,,,,,,,,,,,,,,,,,,,,,,,
,,62c396eed1893e06fdad4574,2022-09-08_14h19.12.377,CGTgamblingSpanTasks,2022.2.1,MacIntel,60.0024001,,,,,,,,2.4574,,,,,,,,,,,,,,2,n,1.5426,0,1,3.9574,1.5,,,,,,27.94544945,0,2.32030209,,,,,,,,,,,,,0,4,4,115,1,0.545390564,1,,,,,,,,,,,,,,,,,,,,,,,,,,,,,,,,,,,,,,,,,,,,,,,,,,,,,,,,,,,,,,,,,,,,,,,,,,,,,,,,
,,62c396eed1893e06fdad4574,2022-09-08_14h19.12.377,CGTgamblingSpanTasks,2022.2.1,MacIntel,60.0024001,,,,,,,,2.7452,,,,,,,,,,,,,,2,v,1.2548,4.251676631,0,4.2452,1.5,,,,,,3.395192929,0,4.251676631,,,,,,,,,,,,,0,5,5,7,1,0.023467153,0,,,,,,,,,,,,,,,,,,,,,,,,,,,,,,,,,,,,,,,,,,,,,,,,,,,,,,,,,,,,,,,,,,,,,,,,,,,,,,,,
,,62c396eed1893e06fdad4574,2022-09-08_14h19.12.377,CGTgamblingSpanTasks,2022.2.1,MacIntel,60.0024001,,,,,,,,2.6778,,,,,,,,,,,,,,2,n,1.3222,28.33977875,1,4.1778,1.5,,,,,,28.33977875,0,2.768313633,,,,,,,,,,,,,0,6,6,116,1,0.50406901,1,,,,,,,,,,,,,,,,,,,,,,,,,,,,,,,,,,,,,,,,,,,,,,,,,,,,,,,,,,,,,,,,,,,,,,,,,,,,,,,,
,,62c396eed1893e06fdad4574,2022-09-08_14h19.12.377,CGTgamblingSpanTasks,2022.2.1,MacIntel,60.0024001,,,,,,,,2.7277,,,,,,,,,,,,,,1,v,1.2723,19.68065872,1,4.2277,1.5,,,,,,19.68065872,0,1.843597162,,,,,,,,,,,,,0,7,7,80,1,0.514941058,1,,,,,,,,,,,,,,,,,,,,,,,,,,,,,,,,,,,,,,,,,,,,,,,,,,,,,,,,,,,,,,,,,,,,,,,,,,,,,,,,
,,62c396eed1893e06fdad4574,2022-09-08_14h19.12.377,CGTgamblingSpanTasks,2022.2.1,MacIntel,60.0024001,,,,,,,,2.4705,,,,,,,,,,,,,,2,v,1.5295,11.42134125,0,3.4705,1,,,,,,12.9904115,0,11.42134125,,,,,,,,,,,,,0,8,8,118,1,0.037876033,0,,,,,,,,,,,,,,,,,,,,,,,,,,,,,,,,,,,,,,,,,,,,,,,,,,,,,,,,,,,,,,,,,,,,,,,,,,,,,,,,
,,62c396eed1893e06fdad4574,2022-09-08_14h19.12.377,CGTgamblingSpanTasks,2022.2.1,MacIntel,60.0024001,,,,,,,,2.2955,,,,,,,,,,,,,,2,n,1.7045,0,1,3.7955,1.5,,,,,,27.88092897,0,2.771762788,,,,,,,,,,,,,0,9,9,117,1,0.499466648,1,,,,,,,,,,,,,,,,,,,,,,,,,,,,,,,,,,,,,,,,,,,,,,,,,,,,,,,,,,,,,,,,,,,,,,,,,,,,,,,,
,,62c396eed1893e06fdad4574,2022-09-08_14h19.12.377,CGTgamblingSpanTasks,2022.2.1,MacIntel,60.0024001,,,,,,,,2.4277,,,,,,,,,,,,,,1,n,1.5723,11.41737518,0,3.4277,1,,,,,,18.11029021,0,11.41737518,,,,,,,,,,,,,0,10,10,48,1,0.069445859,0,,,,,,,,,,,,,,,,,,,,,,,,,,,,,,,,,,,,,,,,,,,,,,,,,,,,,,,,,,,,,,,,,,,,,,,,,,,,,,,,
,,62c396eed1893e06fdad4574,2022-09-08_14h19.12.377,CGTgamblingSpanTasks,2022.2.1,MacIntel,60.0024001,,,,,,,,2.7743,,,,,,,,,,,,,,1,v,1.2257,26.16821818,1,3.7743,1,,,,,,26.16821818,0,0.093528069,,,,,,,,,,,,,0,11,11,42,1,0.901022427,0,,,,,,,,,,,,,,,,,,,,,,,,,,,,,,,,,,,,,,,,,,,,,,,,,,,,,,,,,,,,,,,,,,,,,,,,,,,,,,,,
,,62c396eed1893e06fdad4574,2022-09-08_14h19.12.377,CGTgamblingSpanTasks,2022.2.1,MacIntel,60.0024001,,,,,,,,2.7791,,,,,,,,,,,,,,2,v,1.2209,5.683635938,0,4.2791,1.5,,,,,,4.941039335,0,5.683635938,,,,,,,,,,,,,0,12,12,9,1,0.025481984,0,,,,,,,,,,,,,,,,,,,,,,,,,,,,,,,,,,,,,,,,,,,,,,,,,,,,,,,,,,,,,,,,,,,,,,,,,,,,,,,,
,,62c396eed1893e06fdad4574,2022-09-08_14h19.12.377,CGTgamblingSpanTasks,2022.2.1,MacIntel,60.0024001,,,,,,,,2.8251,,,,,,,,,,,,,,1,n,1.1749,8.512335864,0,3.8251,1,,,,,,10.05300841,0,8.512335864,,,,,,,,,,,,,0,13,13,74,1,0.040729225,0,,,,,,,,,,,,,,,,,,,,,,,,,,,,,,,,,,,,,,,,,,,,,,,,,,,,,,,,,,,,,,,,,,,,,,,,,,,,,,,,
,,62c396eed1893e06fdad4574,2022-09-08_14h19.12.377,CGTgamblingSpanTasks,2022.2.1,MacIntel,60.0024001,,,,,,,,2.8382,,,,,,,,,,,,,,1,v,1.1618,27.12325385,1,4.3382,1.5,,,,,,27.12325385,0,0.080932047,,,,,,,,,,,,,0,14,14,14,1,0.906929184,0,,,,,,,,,,,,,,,,,,,,,,,,,,,,,,,,,,,,,,,,,,,,,,,,,,,,,,,,,,,,,,,,,,,,,,,,,,,,,,,,
,,62c396eed1893e06fdad4574,2022-09-08_14h19.12.377,CGTgamblingSpanTasks,2022.2.1,MacIntel,60.0024001,,,,,,,,2.7818,,,,,,,,,,,,,,2,n,1.2182,0,1,3.7818,1,,,,,,20.31034258,0,1.870404296,,,,,,,,,,,,,0,15,15,85,1,0.519325853,1,,,,,,,,,,,,,,,,,,,,,,,,,,,,,,,,,,,,,,,,,,,,,,,,,,,,,,,,,,,,,,,,,,,,,,,,,,,,,,,,
,,62c396eed1893e06fdad4574,2022-09-08_14h19.12.377,CGTgamblingSpanTasks,2022.2.1,MacIntel,60.0024001,,,,,,,,2.9297,,,,,,,,,,,,,,1,v,1.0703,25.21882231,1,3.9297,1,,,,,,25.21882231,0,0.085746782,,,,,,,,,,,,,0,16,16,64,1,0.90272076,0,,,,,,,,,,,,,,,,,,,,,,,,,,,,,,,,,,,,,,,,,,,,,,,,,,,,,,,,,,,,,,,,,,,,,,,,,,,,,,,,
,,62c396eed1893e06fdad4574,2022-09-08_14h19.12.377,CGTgamblingSpanTasks,2022.2.1,MacIntel,60.0024001,,,,,,,,3.0787,,,,,,,,,,,,,,1,v,0.9213,25.56803059,1,4.0787,1,,,,,,25.56803059,0,2.543951743,,,,,,,,,,,,,0,17,17,41,1,0.499247217,1,,,,,,,,,,,,,,,,,,,,,,,,,,,,,,,,,,,,,,,,,,,,,,,,,,,,,,,,,,,,,,,,,,,,,,,,,,,,,,,,
,,62c396eed1893e06fdad4574,2022-09-08_14h19.12.377,CGTgamblingSpanTasks,2022.2.1,MacIntel,60.0024001,,,,,,,,2.8704,,,,,,,,,,,,,,1,v,1.1296,0,1,3.8704,1,,,,,,27.57491653,0,2.99133314,,,,,,,,,,,,,0,18,18,10,1,0.47625893,1,,,,,,,,,,,,,,,,,,,,,,,,,,,,,,,,,,,,,,,,,,,,,,,,,,,,,,,,,,,,,,,,,,,,,,,,,,,,,,,,
,,62c396eed1893e06fdad4574,2022-09-08_14h19.12.377,CGTgamblingSpanTasks,2022.2.1,MacIntel,60.0024001,,,,,,,,2.6125,,,,,,,,,,,,,,1,n,1.3875,8.579385201,0,4.1125,1.5,,,,,,14.11762686,0,8.579385201,,,,,,,,,,,,,0,19,19,60,1,0.073886959,0,,,,,,,,,,,,,,,,,,,,,,,,,,,,,,,,,,,,,,,,,,,,,,,,,,,,,,,,,,,,,,,,,,,,,,,,,,,,,,,,
,,62c396eed1893e06fdad4574,2022-09-08_14h19.12.377,CGTgamblingSpanTasks,2022.2.1,MacIntel,60.0024001,,,,,,,,1.9111,,,,,,,,,,,,,,2,v,2.0889,11.19311486,0,2.9111,1,,,,,,8.17598802,0,11.19311486,,,,,,,,,,,,,0,20,20,110,1,0.021568003,0,,,,,,,,,,,,,,,,,,,,,,,,,,,,,,,,,,,,,,,,,,,,,,,,,,,,,,,,,,,,,,,,,,,,,,,,,,,,,,,,
,,62c396eed1893e06fdad4574,2022-09-08_14h19.12.377,CGTgamblingSpanTasks,2022.2.1,MacIntel,60.0024001,,,,,,,,2.0601,,,,,,,,,,,,,,2,n,1.9399,22.86604061,1,3.0601,1,,,,,,22.86604061,0,2.293289792,,,,,,,,,,,,,0,21,21,51,1,0.49715382,1,,,,,,,,,,,,,,,,,,,,,,,,,,,,,,,,,,,,,,,,,,,,,,,,,,,,,,,,,,,,,,,,,,,,,,,,,,,,,,,,
,,62c396eed1893e06fdad4574,2022-09-08_14h19.12.377,CGTgamblingSpanTasks,2022.2.1,MacIntel,60.0024001,,,,,,,,2.2755,,,,,,,,,,,,,,1,n,1.7245,7.646213173,0,3.2755,1,,,,,,2.042350179,0,7.646213173,,,,,,,,,,,,,0,22,22,53,1,0.009522273,0,,,,,,,,,,,,,,,,,,,,,,,,,,,,,,,,,,,,,,,,,,,,,,,,,,,,,,,,,,,,,,,,,,,,,,,,,,,,,,,,
,,62c396eed1893e06fdad4574,2022-09-08_14h19.12.377,CGTgamblingSpanTasks,2022.2.1,MacIntel,60.0024001,,,,,,,,2.3769,,,,,,,,,,,,,,1,v,1.6231,0,1,3.3769,1,,,,,,23.4214135,0,2.485985001,,,,,,,,,,,,,0,23,23,81,1,0.482105905,1,,,,,,,,,,,,,,,,,,,,,,,,,,,,,,,,,,,,,,,,,,,,,,,,,,,,,,,,,,,,,,,,,,,,,,,,,,,,,,,,
,,62c396eed1893e06fdad4574,2022-09-08_14h19.12.377,CGTgamblingSpanTasks,2022.2.1,MacIntel,60.0024001,,,,,,,,1.7593,,,,,,,,,,,,,,2,v,2.2407,11.39288827,0,3.2593,1.5,,,,,,20.97851654,0,11.39288827,,,,,,,,,,,,,0,24,24,2,1,0.088791079,0,,,,,,,,,,,,,,,,,,,,,,,,,,,,,,,,,,,,,,,,,,,,,,,,,,,,,,,,,,,,,,,,,,,,,,,,,,,,,,,,
,,62c396eed1893e06fdad4574,2022-09-08_14h19.12.377,CGTgamblingSpanTasks,2022.2.1,MacIntel,60.0024001,,,,,,,,2.2396,,,,,,,,,,,,,,2,n,1.7604,0,1,3.2396,1,,,,,,25.26994993,0,2.78925142,,,,,,,,,,,,,0,25,25,108,1,0.471582922,1,,,,,,,,,,,,,,,,,,,,,,,,,,,,,,,,,,,,,,,,,,,,,,,,,,,,,,,,,,,,,,,,,,,,,,,,,,,,,,,,
,,62c396eed1893e06fdad4574,2022-09-08_14h19.12.377,CGTgamblingSpanTasks,2022.2.1,MacIntel,60.0024001,,,,,,,,2.3282,,,,,,,,,,,,,,2,n,1.6718,22.72923833,1,3.3282,1,,,,,,22.72923833,0,0.067170781,,,,,,,,,,,,,0,26,26,86,1,0.907226703,0,,,,,,,,,,,,,,,,,,,,,,,,,,,,,,,,,,,,,,,,,,,,,,,,,,,,,,,,,,,,,,,,,,,,,,,,,,,,,,,,
,,62c396eed1893e06fdad4574,2022-09-08_14h19.12.377,CGTgamblingSpanTasks,2022.2.1,MacIntel,60.0024001,,,,,,,,2.2309,,,,,,,,,,,,,,1,v,1.7691,0,1,3.7309,1.5,,,,,,21.17800335,0,0.059830985,,,,,,,,,,,,,0,27,27,67,1,0.908594974,0,,,,,,,,,,,,,,,,,,,,,,,,,,,,,,,,,,,,,,,,,,,,,,,,,,,,,,,,,,,,,,,,,,,,,,,,,,,,,,,,
,,62c396eed1893e06fdad4574,2022-09-08_14h19.12.377,CGTgamblingSpanTasks,2022.2.1,MacIntel,60.0024001,,,,,,,,1.6101,,,,,,,,,,,,,,2,n,2.3899,17.5608285,1,3.1101,1.5,,,,,,17.5608285,0,1.825111303,,,,,,,,,,,,,0,28,28,104,1,0.487721116,1,,,,,,,,,,,,,,,,,,,,,,,,,,,,,,,,,,,,,,,,,,,,,,,,,,,,,,,,,,,,,,,,,,,,,,,,,,,,,,,,
,,62c396eed1893e06fdad4574,2022-09-08_14h19.12.377,CGTgamblingSpanTasks,2022.2.1,MacIntel,60.0024001,,,,,,,,1.9602,,,,,,,,,,,,,,1,v,2.0398,28.13634754,1,2.9602,1,,,,,,28.13634754,0,2.532806323,,,,,,,,,,,,,0,29,29,28,1,0.525136524,1,,,,,,,,,,,,,,,,,,,,,,,,,,,,,,,,,,,,,,,,,,,,,,,,,,,,,,,,,,,,,,,,,,,,,,,,,,,,,,,,
,,62c396eed1893e06fdad4574,2022-09-08_14h19.12.377,CGTgamblingSpanTasks,2022.2.1,MacIntel,60.0024001,,,,,,,,2.2118,,,,,,,,,,,,,,1,v,1.7882,0,1,3.2118,1,,,,,,19.5450126,0,2.123581464,,,,,,,,,,,,,0,30,30,65,1,0.475836144,1,,,,,,,,,,,,,,,,,,,,,,,,,,,,,,,,,,,,,,,,,,,,,,,,,,,,,,,,,,,,,,,,,,,,,,,,,,,,,,,,
,,62c396eed1893e06fdad4574,2022-09-08_14h19.12.377,CGTgamblingSpanTasks,2022.2.1,MacIntel,60.0024001,,,,,,,,2.1894,,,,,,,,,,,,,,2,n,1.8106,0,1,3.6894,1.5,,,,,,27.37527992,0,2.860319095,,,,,,,,,,,,,0,31,31,39,1,0.486304156,1,,,,,,,,,,,,,,,,,,,,,,,,,,,,,,,,,,,,,,,,,,,,,,,,,,,,,,,,,,,,,,,,,,,,,,,,,,,,,,,,
,,62c396eed1893e06fdad4574,2022-09-08_14h19.12.377,CGTgamblingSpanTasks,2022.2.1,MacIntel,60.0024001,,,,,,,,2.0462,,,,,,,,,,,,,,2,n,1.9538,0,1,3.5462,1.5,,,,,,25.65316415,0,0.079652925,,,,,,,,,,,,,0,32,32,109,1,0.90568168,0,,,,,,,,,,,,,,,,,,,,,,,,,,,,,,,,,,,,,,,,,,,,,,,,,,,,,,,,,,,,,,,,,,,,,,,,,,,,,,,,
,,62c396eed1893e06fdad4574,2022-09-08_14h19.12.377,CGTgamblingSpanTasks,2022.2.1,MacIntel,60.0024001,,,,,,,,1.9947,,,,,,,,,,,,,,1,v,2.0053,24.66627941,1,3.4947,1.5,,,,,,24.66627941,0,2.765426402,,,,,,,,,,,,,0,33,33,24,1,0.467360588,1,,,,,,,,,,,,,,,,,,,,,,,,,,,,,,,,,,,,,,,,,,,,,,,,,,,,,,,,,,,,,,,,,,,,,,,,,,,,,,,,
,,62c396eed1893e06fdad4574,2022-09-08_14h19.12.377,CGTgamblingSpanTasks,2022.2.1,MacIntel,60.0024001,,,,,,,,2.0227,,,,,,,,,,,,,,2,n,1.9773,0,1,3.0227,1,,,,,,11.08143071,0,1.207538756,,,,,,,,,,,,,0,34,34,84,1,0.475047453,1,,,,,,,,,,,,,,,,,,,,,,,,,,,,,,,,,,,,,,,,,,,,,,,,,,,,,,,,,,,,,,,,,,,,,,,,,,,,,,,,
,,62c396eed1893e06fdad4574,2022-09-08_14h19.12.377,CGTgamblingSpanTasks,2022.2.1,MacIntel,60.0024001,,,,,,,,2.1145,,,,,,,,,,,,,,1,v,1.8855,21.2188881,1,3.1145,1,,,,,,21.2188881,0,2.067660742,,,,,,,,,,,,,0,35,35,107,1,0.50470775,1,,,,,,,,,,,,,,,,,,,,,,,,,,,,,,,,,,,,,,,,,,,,,,,,,,,,,,,,,,,,,,,,,,,,,,,,,,,,,,,,
,,62c396eed1893e06fdad4574,2022-09-08_14h19.12.377,CGTgamblingSpanTasks,2022.2.1,MacIntel,60.0024001,,,,,,,,2.3261,,,,,,,,,,,,,,1,v,1.6739,21.7711579,1,3.8261,1.5,,,,,,21.7711579,0,2.502728921,,,,,,,,,,,,,0,36,36,101,1,0.460552621,1,,,,,,,,,,,,,,,,,,,,,,,,,,,,,,,,,,,,,,,,,,,,,,,,,,,,,,,,,,,,,,,,,,,,,,,,,,,,,,,,
,,62c396eed1893e06fdad4574,2022-09-08_14h19.12.377,CGTgamblingSpanTasks,2022.2.1,MacIntel,60.0024001,,,,,,,,2.1786,,,,,,,,,,,,,,1,n,1.8214,11.6744431,0,3.6786,1.5,,,,,,10.43004651,0,11.6744431,,,,,,,,,,,,,0,37,37,15,1,0.026176489,0,,,,,,,,,,,,,,,,,,,,,,,,,,,,,,,,,,,,,,,,,,,,,,,,,,,,,,,,,,,,,,,,,,,,,,,,,,,,,,,,
,,62c396eed1893e06fdad4574,2022-09-08_14h19.12.377,CGTgamblingSpanTasks,2022.2.1,MacIntel,60.0024001,,,,,,,,2.0435,,,,,,,,,,,,,,2,n,1.9565,0,1,3.0435,1,,,,,,7.534278541,0,0.747140182,,,,,,,,,,,,,0,38,38,37,1,0.50012466,1,,,,,,,,,,,,,,,,,,,,,,,,,,,,,,,,,,,,,,,,,,,,,,,,,,,,,,,,,,,,,,,,,,,,,,,,,,,,,,,,
,,62c396eed1893e06fdad4574,2022-09-08_14h19.12.377,CGTgamblingSpanTasks,2022.2.1,MacIntel,60.0024001,,,,,,,,2.2276,,,,,,,,,,,,,,2,n,1.7724,0,1,3.7276,1.5,,,,,,19.36415485,0,1.966229494,,,,,,,,,,,,,0,39,39,96,1,0.493893111,1,,,,,,,,,,,,,,,,,,,,,,,,,,,,,,,,,,,,,,,,,,,,,,,,,,,,,,,,,,,,,,,,,,,,,,,,,,,,,,,,
,,62c396eed1893e06fdad4574,2022-09-08_14h19.12.377,CGTgamblingSpanTasks,2022.2.1,MacIntel,60.0024001,,,,,,,,2.2199,,,,,,,,,,,,,,1,v,1.7801,0,1,3.2199,1,,,,,,28.9323758,0,2.893007023,,,,,,,,,,,,,0,40,40,11,1,0.497943321,1,,,,,,,,,,,,,,,,,,,,,,,,,,,,,,,,,,,,,,,,,,,,,,,,,,,,,,,,,,,,,,,,,,,,,,,,,,,,,,,,
,,62c396eed1893e06fdad4574,2022-09-08_14h19.12.377,CGTgamblingSpanTasks,2022.2.1,MacIntel,60.0024001,,,,,,,,2.554,,,,,,,,,,,,,,2,n,1.446,26.4985979,1,3.554,1,,,,,,26.4985979,0,0.051324376,,,,,,,,,,,,,0,41,41,106,1,0.918747215,0,,,,,,,,,,,,,,,,,,,,,,,,,,,,,,,,,,,,,,,,,,,,,,,,,,,,,,,,,,,,,,,,,,,,,,,,,,,,,,,,
,,62c396eed1893e06fdad4574,2022-09-08_14h19.12.377,CGTgamblingSpanTasks,2022.2.1,MacIntel,60.0024001,,,,,,,,1.9573,,,,,,,,,,,,,,2,v,2.0427,5.526483034,0,2.9573,1,,,,,,9.725876653,0,5.526483034,,,,,,,,,,,,,0,42,42,44,1,0.082550696,0,,,,,,,,,,,,,,,,,,,,,,,,,,,,,,,,,,,,,,,,,,,,,,,,,,,,,,,,,,,,,,,,,,,,,,,,,,,,,,,,
,,62c396eed1893e06fdad4574,2022-09-08_14h19.12.377,CGTgamblingSpanTasks,2022.2.1,MacIntel,60.0024001,,,,,,,,2.3589,,,,,,,,,,,,,,2,v,1.6411,11.61882862,0,3.8589,1.5,,,,,,4.022743614,0,11.61882862,,,,,,,,,,,,,0,43,43,38,1,0.011499376,0,,,,,,,,,,,,,,,,,,,,,,,,,,,,,,,,,,,,,,,,,,,,,,,,,,,,,,,,,,,,,,,,,,,,,,,,,,,,,,,,
,,62c396eed1893e06fdad4574,2022-09-08_14h19.12.377,CGTgamblingSpanTasks,2022.2.1,MacIntel,60.0024001,,,,,,,,2.4453,,,,,,,,,,,,,,2,n,1.5547,17.92584289,1,3.4453,1,,,,,,17.92584289,0,1.878232496,,,,,,,,,,,,,0,44,44,5,1,0.485559263,1,,,,,,,,,,,,,,,,,,,,,,,,,,,,,,,,,,,,,,,,,,,,,,,,,,,,,,,,,,,,,,,,,,,,,,,,,,,,,,,,
,,62c396eed1893e06fdad4574,2022-09-08_14h19.12.377,CGTgamblingSpanTasks,2022.2.1,MacIntel,60.0024001,,,,,,,,1.0801,,,,,,,,,,,,,,2,n,2.9199,22.62475578,1,2.5801,1.5,,,,,,22.62475578,0,2.397643354,,,,,,,,,,,,,0,45,45,93,1,0.482527609,1,,,,,,,,,,,,,,,,,,,,,,,,,,,,,,,,,,,,,,,,,,,,,,,,,,,,,,,,,,,,,,,,,,,,,,,,,,,,,,,,
,,62c396eed1893e06fdad4574,2022-09-08_14h19.12.377,CGTgamblingSpanTasks,2022.2.1,MacIntel,60.0024001,,,,,,,,2.3293,,,,,,,,,,,,,,2,n,1.6707,0,1,3.8293,1.5,,,,,,28.18900855,0,0.05384276,,,,,,,,,,,,,0,46,46,55,1,0.919081308,0,,,,,,,,,,,,,,,,,,,,,,,,,,,,,,,,,,,,,,,,,,,,,,,,,,,,,,,,,,,,,,,,,,,,,,,,,,,,,,,,
,,62c396eed1893e06fdad4574,2022-09-08_14h19.12.377,CGTgamblingSpanTasks,2022.2.1,MacIntel,60.0024001,,,,,,,,2.1953,,,,,,,,,,,,,,2,n,1.8047,0,1,3.6953,1.5,,,,,,28.14876717,0,3.117906378,,,,,,,,,,,,,0,47,47,76,1,0.470636736,1,,,,,,,,,,,,,,,,,,,,,,,,,,,,,,,,,,,,,,,,,,,,,,,,,,,,,,,,,,,,,,,,,,,,,,,,,,,,,,,,
,,62c396eed1893e06fdad4574,2022-09-08_14h19.12.377,CGTgamblingSpanTasks,2022.2.1,MacIntel,60.0024001,,,,,,,,2.4804,,,,,,,,,,,,,,2,n,1.5196,0,1,3.4804,1,,,,,,27.7711693,0,2.320849632,,,,,,,,,,,,,0,48,48,94,1,0.543786368,1,,,,,,,,,,,,,,,,,,,,,,,,,,,,,,,,,,,,,,,,,,,,,,,,,,,,,,,,,,,,,,,,,,,,,,,,,,,,,,,,
,,62c396eed1893e06fdad4574,2022-09-08_14h19.12.377,CGTgamblingSpanTasks,2022.2.1,MacIntel,60.0024001,,,,,,,,2.4854,,,,,,,,,,,,,,2,n,1.5146,24.8002852,1,3.4854,1,,,,,,24.8002852,0,0.071848086,,,,,,,,,,,,,0,49,49,16,1,0.90783559,0,,,,,,,,,,,,,,,,,,,,,,,,,,,,,,,,,,,,,,,,,,,,,,,,,,,,,,,,,,,,,,,,,,,,,,,,,,,,,,,,
,,62c396eed1893e06fdad4574,2022-09-08_14h19.12.377,CGTgamblingSpanTasks,2022.2.1,MacIntel,60.0024001,,,,,,,,1.9358,,,,,,,,,,,,,,1,n,2.0642,10.68505773,0,3.4358,1.5,,,,,,17.64114152,0,10.68505773,,,,,,,,,,,,,0,50,50,98,1,0.074299362,0,,,,,,,,,,,,,,,,,,,,,,,,,,,,,,,,,,,,,,,,,,,,,,,,,,,,,,,,,,,,,,,,,,,,,,,,,,,,,,,,
,,62c396eed1893e06fdad4574,2022-09-08_14h19.12.377,CGTgamblingSpanTasks,2022.2.1,MacIntel,60.0024001,,,,,,,,2.8108,,,,,,,,,,,,,,2,n,1.1892,13.4287264,1,3.8108,1,,,,,,13.4287264,0,1.317368801,,,,,,,,,,,,,0,51,51,100,1,0.502953125,1,,,,,,,,,,,,,,,,,,,,,,,,,,,,,,,,,,,,,,,,,,,,,,,,,,,,,,,,,,,,,,,,,,,,,,,,,,,,,,,,
,,62c396eed1893e06fdad4574,2022-09-08_14h19.12.377,CGTgamblingSpanTasks,2022.2.1,MacIntel,60.0024001,,,,,,,,2.4622,,,,,,,,,,,,,,1,v,1.5378,13.96521039,1,3.9622,1.5,,,,,,13.96521039,0,1.591282699,,,,,,,,,,,,,0,52,52,49,1,0.462956344,1,,,,,,,,,,,,,,,,,,,,,,,,,,,,,,,,,,,,,,,,,,,,,,,,,,,,,,,,,,,,,,,,,,,,,,,,,,,,,,,,
,,62c396eed1893e06fdad4574,2022-09-08_14h19.12.377,CGTgamblingSpanTasks,2022.2.1,MacIntel,60.0024001,,,,,,,,2.3799,,,,,,,,,,,,,,1,v,1.6201,0,1,3.8799,1.5,,,,,,24.35708027,0,2.738695417,,,,,,,,,,,,,0,53,53,114,1,0.466573634,1,,,,,,,,,,,,,,,,,,,,,,,,,,,,,,,,,,,,,,,,,,,,,,,,,,,,,,,,,,,,,,,,,,,,,,,,,,,,,,,,
,,62c396eed1893e06fdad4574,2022-09-08_14h19.12.377,CGTgamblingSpanTasks,2022.2.1,MacIntel,60.0024001,,,,,,,,2.6784,,,,,,,,,,,,,,1,v,1.3216,28.68598705,1,4.1784,1.5,,,,,,28.68598705,0,0.050674956,,,,,,,,,,,,,0,54,54,62,1,0.920905497,0,,,,,,,,,,,,,,,,,,,,,,,,,,,,,,,,,,,,,,,,,,,,,,,,,,,,,,,,,,,,,,,,,,,,,,,,,,,,,,,,
,,62c396eed1893e06fdad4574,2022-09-08_14h19.12.377,CGTgamblingSpanTasks,2022.2.1,MacIntel,60.0024001,,,,,,,,1.7132,,,,,,,,,,,,,,2,n,2.2868,0,1,3.2132,1.5,,,,,,27.39221343,0,2.743407746,,,,,,,,,,,,,0,55,55,47,1,0.49752044,1,,,,,,,,,,,,,,,,,,,,,,,,,,,,,,,,,,,,,,,,,,,,,,,,,,,,,,,,,,,,,,,,,,,,,,,,,,,,,,,,
,,62c396eed1893e06fdad4574,2022-09-08_14h19.12.377,CGTgamblingSpanTasks,2022.2.1,MacIntel,60.0024001,,,,,,,,2.1754,,,,,,,,,,,,,,2,v,1.8246,8.653432553,0,3.1754,1,,,,,,15.13999312,0,8.653432553,,,,,,,,,,,,,0,56,56,54,1,0.081767484,0,,,,,,,,,,,,,,,,,,,,,,,,,,,,,,,,,,,,,,,,,,,,,,,,,,,,,,,,,,,,,,,,,,,,,,,,,,,,,,,,
,,62c396eed1893e06fdad4574,2022-09-08_14h19.12.377,CGTgamblingSpanTasks,2022.2.1,MacIntel,60.0024001,,,,,,,,1.7749,,,,,,,,,,,,,,1,v,2.2251,0,1,2.7749,1,,,,,,27.93093084,0,0.050207531,,,,,,,,,,,,,0,57,57,83,1,0.920505936,0,,,,,,,,,,,,,,,,,,,,,,,,,,,,,,,,,,,,,,,,,,,,,,,,,,,,,,,,,,,,,,,,,,,,,,,,,,,,,,,,
,,62c396eed1893e06fdad4574,2022-09-08_14h19.12.377,CGTgamblingSpanTasks,2022.2.1,MacIntel,60.0024001,,,,,,,,2.1748,,,,,,,,,,,,,,2,v,1.8252,10.41201161,0,3.1748,1,,,,,,6.307062696,0,10.41201161,,,,,,,,,,,,,0,58,58,23,1,0.018187109,0,,,,,,,,,,,,,,,,,,,,,,,,,,,,,,,,,,,,,,,,,,,,,,,,,,,,,,,,,,,,,,,,,,,,,,,,,,,,,,,,
,,62c396eed1893e06fdad4574,2022-09-08_14h19.12.377,CGTgamblingSpanTasks,2022.2.1,MacIntel,60.0024001,,,,,,,,2.357,,,,,,,,,,,,,,2,n,1.643,21.48443242,1,3.857,1.5,,,,,,21.48443242,0,2.229247341,,,,,,,,,,,,,0,59,59,63,1,0.488155912,1,,,,,,,,,,,,,,,,,,,,,,,,,,,,,,,,,,,,,,,,,,,,,,,,,,,,,,,,,,,,,,,,,,,,,,,,,,,,,,,,
,,62c396eed1893e06fdad4574,2022-09-08_14h19.12.377,CGTgamblingSpanTasks,2022.2.1,MacIntel,60.0024001,,,,,,,,2.2972,,,,,,,,,,,,,,1,v,1.7028,20.5726842,1,3.7972,1.5,,,,,,20.5726842,0,0.073558523,,,,,,,,,,,,,0,60,60,26,1,0.901008565,0,,,,,,,,,,,,,,,,,,,,,,,,,,,,,,,,,,,,,,,,,,,,,,,,,,,,,,,,,,,,,,,,,,,,,,,,,,,,,,,,
,,62c396eed1893e06fdad4574,2022-09-08_14h19.12.377,CGTgamblingSpanTasks,2022.2.1,MacIntel,60.0024001,,,,,,,,2.6134,,,,,,,,,,,,,,1,v,1.3866,17.23907308,1,3.6134,1,,,,,,17.23907308,0,2.055848574,,,,,,,,,,,,,0,61,61,66,1,0.450504458,1,,,,,,,,,,,,,,,,,,,,,,,,,,,,,,,,,,,,,,,,,,,,,,,,,,,,,,,,,,,,,,,,,,,,,,,,,,,,,,,,
,,62c396eed1893e06fdad4574,2022-09-08_14h19.12.377,CGTgamblingSpanTasks,2022.2.1,MacIntel,60.0024001,,,,,,,,2.3757,,,,,,,,,,,,,,1,v,1.6243,0,1,3.8757,1.5,,,,,,28.94627214,0,2.701896413,,,,,,,,,,,,,0,62,62,111,1,0.515860759,1,,,,,,,,,,,,,,,,,,,,,,,,,,,,,,,,,,,,,,,,,,,,,,,,,,,,,,,,,,,,,,,,,,,,,,,,,,,,,,,,
,,62c396eed1893e06fdad4574,2022-09-08_14h19.12.377,CGTgamblingSpanTasks,2022.2.1,MacIntel,60.0024001,,,,,,,,1.9573,,,,,,,,,,,,,,2,v,2.0427,7.850775577,0,3.4573,1.5,,,,,,4.622707531,0,7.850775577,,,,,,,,,,,,,0,63,63,6,1,0.017737407,0,,,,,,,,,,,,,,,,,,,,,,,,,,,,,,,,,,,,,,,,,,,,,,,,,,,,,,,,,,,,,,,,,,,,,,,,,,,,,,,,
,,62c396eed1893e06fdad4574,2022-09-08_14h19.12.377,CGTgamblingSpanTasks,2022.2.1,MacIntel,60.0024001,,,,,,,,1.9245,,,,,,,,,,,,,,2,v,2.0755,10.3417501,0,2.9245,1,,,,,,15.21435748,0,10.3417501,,,,,,,,,,,,,0,64,64,72,1,0.060969226,0,,,,,,,,,,,,,,,,,,,,,,,,,,,,,,,,,,,,,,,,,,,,,,,,,,,,,,,,,,,,,,,,,,,,,,,,,,,,,,,,
,,62c396eed1893e06fdad4574,2022-09-08_14h19.12.377,CGTgamblingSpanTasks,2022.2.1,MacIntel,60.0024001,,,,,,,,1.4421,,,,,,,,,,,,,,2,v,2.5579,4.462262453,0,2.9421,1.5,,,,,,0.192759042,0,4.462262453,,,,,,,,,,,,,0,65,65,52,1,0.003553223,0,,,,,,,,,,,,,,,,,,,,,,,,,,,,,,,,,,,,,,,,,,,,,,,,,,,,,,,,,,,,,,,,,,,,,,,,,,,,,,,,
,,62c396eed1893e06fdad4574,2022-09-08_14h19.12.377,CGTgamblingSpanTasks,2022.2.1,MacIntel,60.0024001,,,,,,,,2.4135,,,,,,,,,,,,,,1,v,1.5865,0,1,3.9135,1.5,,,,,,14.3363647,0,1.396635362,,,,,,,,,,,,,0,66,66,78,1,0.504775474,1,,,,,,,,,,,,,,,,,,,,,,,,,,,,,,,,,,,,,,,,,,,,,,,,,,,,,,,,,,,,,,,,,,,,,,,,,,,,,,,,
,,62c396eed1893e06fdad4574,2022-09-08_14h19.12.377,CGTgamblingSpanTasks,2022.2.1,MacIntel,60.0024001,,,,,,,,2.3938,,,,,,,,,,,,,,1,v,1.6062,23.24777057,1,3.3938,1,,,,,,23.24777057,0,2.003482335,,,,,,,,,,,,,0,67,67,59,1,0.536135174,1,,,,,,,,,,,,,,,,,,,,,,,,,,,,,,,,,,,,,,,,,,,,,,,,,,,,,,,,,,,,,,,,,,,,,,,,,,,,,,,,
,,62c396eed1893e06fdad4574,2022-09-08_14h19.12.377,CGTgamblingSpanTasks,2022.2.1,MacIntel,60.0024001,,,,,,,,2.136,,,,,,,,,,,,,,2,v,1.864,4.904872644,0,3.136,1,,,,,,4.698775357,0,4.904872644,,,,,,,,,,,,,0,68,68,75,1,0.028064484,0,,,,,,,,,,,,,,,,,,,,,,,,,,,,,,,,,,,,,,,,,,,,,,,,,,,,,,,,,,,,,,,,,,,,,,,,,,,,,,,,
,,62c396eed1893e06fdad4574,2022-09-08_14h19.12.377,CGTgamblingSpanTasks,2022.2.1,MacIntel,60.0024001,,,,,,,,2.2108,,,,,,,,,,,,,,2,n,1.7892,0,1,3.2108,1,,,,,,17.4320197,0,1.448620949,,,,,,,,,,,,,0,69,69,30,1,0.545178213,1,,,,,,,,,,,,,,,,,,,,,,,,,,,,,,,,,,,,,,,,,,,,,,,,,,,,,,,,,,,,,,,,,,,,,,,,,,,,,,,,
,,62c396eed1893e06fdad4574,2022-09-08_14h19.12.377,CGTgamblingSpanTasks,2022.2.1,MacIntel,60.0024001,,,,,,,,2.1105,,,,,,,,,,,,,,2,n,1.8895,0,1,3.6105,1.5,,,,,,13.84410806,0,1.535873964,,,,,,,,,,,,,0,70,70,88,1,0.470209002,1,,,,,,,,,,,,,,,,,,,,,,,,,,,,,,,,,,,,,,,,,,,,,,,,,,,,,,,,,,,,,,,,,,,,,,,,,,,,,,,,
,,62c396eed1893e06fdad4574,2022-09-08_14h19.12.377,CGTgamblingSpanTasks,2022.2.1,MacIntel,60.0024001,,,,,,,,2.287,,,,,,,,,,,,,,2,v,1.713,6.833409611,0,3.287,1,,,,,,6.325091157,0,6.833409611,,,,,,,,,,,,,0,71,71,58,1,0.027113638,0,,,,,,,,,,,,,,,,,,,,,,,,,,,,,,,,,,,,,,,,,,,,,,,,,,,,,,,,,,,,,,,,,,,,,,,,,,,,,,,,
,,62c396eed1893e06fdad4574,2022-09-08_14h19.12.377,CGTgamblingSpanTasks,2022.2.1,MacIntel,60.0024001,,,,,,,,2.3299,,,,,,,,,,,,,,1,v,1.6701,29.30724159,1,3.3299,1,,,,,,29.30724159,0,3.247012935,,,,,,,,,,,,,0,72,72,71,1,0.470571125,1,,,,,,,,,,,,,,,,,,,,,,,,,,,,,,,,,,,,,,,,,,,,,,,,,,,,,,,,,,,,,,,,,,,,,,,,,,,,,,,,
,,62c396eed1893e06fdad4574,2022-09-08_14h19.12.377,CGTgamblingSpanTasks,2022.2.1,MacIntel,60.0024001,,,,,,,,2.5463,,,,,,,,,,,,,,1,v,1.4537,17.85020524,1,4.0463,1.5,,,,,,17.85020524,0,2.058701084,,,,,,,,,,,,,0,73,73,25,1,0.459662216,1,,,,,,,,,,,,,,,,,,,,,,,,,,,,,,,,,,,,,,,,,,,,,,,,,,,,,,,,,,,,,,,,,,,,,,,,,,,,,,,,
,,62c396eed1893e06fdad4574,2022-09-08_14h19.12.377,CGTgamblingSpanTasks,2022.2.1,MacIntel,60.0024001,,,,,,,,2.3285,,,,,,,,,,,,,,2,n,1.6715,0,1,3.8285,1.5,,,,,,29.77342428,0,2.838865588,,,,,,,,,,,,,0,74,74,57,1,0.510363415,1,,,,,,,,,,,,,,,,,,,,,,,,,,,,,,,,,,,,,,,,,,,,,,,,,,,,,,,,,,,,,,,,,,,,,,,,,,,,,,,,
,,62c396eed1893e06fdad4574,2022-09-08_14h19.12.377,CGTgamblingSpanTasks,2022.2.1,MacIntel,60.0024001,,,,,,,,2.03,,,,,,,,,,,,,,1,v,1.97,23.0613391,1,3.53,1.5,,,,,,23.0613391,0,2.387726776,,,,,,,,,,,,,0,75,75,69,1,0.488727763,1,,,,,,,,,,,,,,,,,,,,,,,,,,,,,,,,,,,,,,,,,,,,,,,,,,,,,,,,,,,,,,,,,,,,,,,,,,,,,,,,
,,62c396eed1893e06fdad4574,2022-09-08_14h19.12.377,CGTgamblingSpanTasks,2022.2.1,MacIntel,60.0024001,,,,,,,,2.2635,,,,,,,,,,,,,,2,n,1.7365,0,1,3.2635,1,,,,,,22.25959835,0,0.065383587,,,,,,,,,,,,,0,76,76,97,1,0.907413875,0,,,,,,,,,,,,,,,,,,,,,,,,,,,,,,,,,,,,,,,,,,,,,,,,,,,,,,,,,,,,,,,,,,,,,,,,,,,,,,,,
,,62c396eed1893e06fdad4574,2022-09-08_14h19.12.377,CGTgamblingSpanTasks,2022.2.1,MacIntel,60.0024001,,,,,,,,2.579,,,,,,,,,,,,,,2,n,1.421,15.43649625,1,4.079,1.5,,,,,,15.43649625,0,1.65459324,,,,,,,,,,,,,0,77,77,33,1,0.479480163,1,,,,,,,,,,,,,,,,,,,,,,,,,,,,,,,,,,,,,,,,,,,,,,,,,,,,,,,,,,,,,,,,,,,,,,,,,,,,,,,,
,,62c396eed1893e06fdad4574,2022-09-08_14h19.12.377,CGTgamblingSpanTasks,2022.2.1,MacIntel,60.0024001,,,,,,,,2.2123,,,,,,,,,,,,,,1,v,1.7877,0,1,3.7123,1.5,,,,,,17.30137174,0,1.716380842,,,,,,,,,,,,,0,78,78,20,1,0.500020285,1,,,,,,,,,,,,,,,,,,,,,,,,,,,,,,,,,,,,,,,,,,,,,,,,,,,,,,,,,,,,,,,,,,,,,,,,,,,,,,,,
,,62c396eed1893e06fdad4574,2022-09-08_14h19.12.377,CGTgamblingSpanTasks,2022.2.1,MacIntel,60.0024001,,,,,,,,1.8583,,,,,,,,,,,,,,1,v,2.1417,0,1,2.8583,1,,,,,,19.3050342,0,2.030232342,,,,,,,,,,,,,0,79,79,73,1,0.484573227,1,,,,,,,,,,,,,,,,,,,,,,,,,,,,,,,,,,,,,,,,,,,,,,,,,,,,,,,,,,,,,,,,,,,,,,,,,,,,,,,,
,,62c396eed1893e06fdad4574,2022-09-08_14h19.12.377,CGTgamblingSpanTasks,2022.2.1,MacIntel,60.0024001,,,,,,,,1.8973,,,,,,,,,,,,,,2,n,2.1027,7.066129113,1,3.3973,1.5,,,,,,7.066129113,0,0.585581699,,,,,,,,,,,,,0,80,80,19,1,0.545860632,1,,,,,,,,,,,,,,,,,,,,,,,,,,,,,,,,,,,,,,,,,,,,,,,,,,,,,,,,,,,,,,,,,,,,,,,,,,,,,,,,
,,62c396eed1893e06fdad4574,2022-09-08_14h19.12.377,CGTgamblingSpanTasks,2022.2.1,MacIntel,60.0024001,,,,,,,,2.2022,,,,,,,,,,,,,,2,n,1.7978,0,1,3.7022,1.5,,,,,,21.46599803,0,0.059789256,,,,,,,,,,,,,0,81,81,8,1,0.909019081,0,,,,,,,,,,,,,,,,,,,,,,,,,,,,,,,,,,,,,,,,,,,,,,,,,,,,,,,,,,,,,,,,,,,,,,,,,,,,,,,,
,,62c396eed1893e06fdad4574,2022-09-08_14h19.12.377,CGTgamblingSpanTasks,2022.2.1,MacIntel,60.0024001,,,,,,,,1.8446,,,,,,,,,,,,,,1,n,2.1554,6.781500919,0,2.8446,1,,,,,,8.363821911,0,6.781500919,,,,,,,,,,,,,0,82,82,61,1,0.044227959,0,,,,,,,,,,,,,,,,,,,,,,,,,,,,,,,,,,,,,,,,,,,,,,,,,,,,,,,,,,,,,,,,,,,,,,,,,,,,,,,,
,,62c396eed1893e06fdad4574,2022-09-08_14h19.12.377,CGTgamblingSpanTasks,2022.2.1,MacIntel,60.0024001,,,,,,,,1.0598,,,,,,,,,,,,,,2,n,2.9402,0,1,2.5598,1.5,,,,,,27.60724521,0,0.088432325,,,,,,,,,,,,,0,83,83,17,1,0.904684186,0,,,,,,,,,,,,,,,,,,,,,,,,,,,,,,,,,,,,,,,,,,,,,,,,,,,,,,,,,,,,,,,,,,,,,,,,,,,,,,,,
,,62c396eed1893e06fdad4574,2022-09-08_14h19.12.377,CGTgamblingSpanTasks,2022.2.1,MacIntel,60.0024001,,,,,,,,1.8424,,,,,,,,,,,,,,2,n,2.1576,0,1,3.3424,1.5,,,,,,9.012590634,0,1.002188111,,,,,,,,,,,,,0,84,84,12,1,0.46958041,1,,,,,,,,,,,,,,,,,,,,,,,,,,,,,,,,,,,,,,,,,,,,,,,,,,,,,,,,,,,,,,,,,,,,,,,,,,,,,,,,
,,62c396eed1893e06fdad4574,2022-09-08_14h19.12.377,CGTgamblingSpanTasks,2022.2.1,MacIntel,60.0024001,,,,,,,,1.9868,,,,,,,,,,,,,,2,n,2.0132,11.16819157,1,2.9868,1,,,,,,11.16819157,0,0.941456753,,,,,,,,,,,,,0,85,85,45,1,0.54163803,1,,,,,,,,,,,,,,,,,,,,,,,,,,,,,,,,,,,,,,,,,,,,,,,,,,,,,,,,,,,,,,,,,,,,,,,,,,,,,,,,
,,62c396eed1893e06fdad4574,2022-09-08_14h19.12.377,CGTgamblingSpanTasks,2022.2.1,MacIntel,60.0024001,,,,,,,,2.1671,,,,,,,,,,,,,,2,n,1.8329,0,1,3.6671,1.5,,,,,,23.59556381,0,2.464662219,,,,,,,,,,,,,0,86,86,22,1,0.486383205,1,,,,,,,,,,,,,,,,,,,,,,,,,,,,,,,,,,,,,,,,,,,,,,,,,,,,,,,,,,,,,,,,,,,,,,,,,,,,,,,,
,,62c396eed1893e06fdad4574,2022-09-08_14h19.12.377,CGTgamblingSpanTasks,2022.2.1,MacIntel,60.0024001,,,,,,,,0.4792,,,,,,,,,,,,,,2,v,3.5208,9.936178001,0,1.4792,1,,,,,,19.58698544,0,9.936178001,,,,,,,,,,,,,0,87,87,77,1,0.098812204,0,,,,,,,,,,,,,,,,,,,,,,,,,,,,,,,,,,,,,,,,,,,,,,,,,,,,,,,,,,,,,,,,,,,,,,,,,,,,,,,,
,,62c396eed1893e06fdad4574,2022-09-08_14h19.12.377,CGTgamblingSpanTasks,2022.2.1,MacIntel,60.0024001,,,,,,,,0.9869,,,,,,,,,,,,,,2,v,3.0131,10.31611309,0,1.9869,1,,,,,,19.30622782,0,10.31611309,,,,,,,,,,,,,0,88,88,1,1,0.091105656,0,,,,,,,,,,,,,,,,,,,,,,,,,,,,,,,,,,,,,,,,,,,,,,,,,,,,,,,,,,,,,,,,,,,,,,,,,,,,,,,,
,,62c396eed1893e06fdad4574,2022-09-08_14h19.12.377,CGTgamblingSpanTasks,2022.2.1,MacIntel,60.0024001,,,,,,,,1.4779,,,,,,,,,,,,,,2,n,2.5221,0,1,2.9779,1.5,,,,,,27.76752685,0,0.083968035,,,,,,,,,,,,,0,89,89,13,1,0.906513967,0,,,,,,,,,,,,,,,,,,,,,,,,,,,,,,,,,,,,,,,,,,,,,,,,,,,,,,,,,,,,,,,,,,,,,,,,,,,,,,,,
,,62c396eed1893e06fdad4574,2022-09-08_14h19.12.377,CGTgamblingSpanTasks,2022.2.1,MacIntel,60.0024001,,,,,,,,2.6398,,,,,,,,,,,,,,2,n,1.3602,0,1,4.1398,1.5,,,,,,27.77179191,0,0.074524436,,,,,,,,,,,,,0,90,90,99,1,0.910114387,0,,,,,,,,,,,,,,,,,,,,,,,,,,,,,,,,,,,,,,,,,,,,,,,,,,,,,,,,,,,,,,,,,,,,,,,,,,,,,,,,
,,62c396eed1893e06fdad4574,2022-09-08_14h19.12.377,CGTgamblingSpanTasks,2022.2.1,MacIntel,60.0024001,,,,,,,,2.3226,,,,,,,,,,,,,,2,n,1.6774,8.217594828,1,3.3226,1,,,,,,8.217594828,0,0.951019374,,,,,,,,,,,,,0,91,91,87,1,0.458722936,1,,,,,,,,,,,,,,,,,,,,,,,,,,,,,,,,,,,,,,,,,,,,,,,,,,,,,,,,,,,,,,,,,,,,,,,,,,,,,,,,
,,62c396eed1893e06fdad4574,2022-09-08_14h19.12.377,CGTgamblingSpanTasks,2022.2.1,MacIntel,60.0024001,,,,,,,,1.6126,,,,,,,,,,,,,,2,n,2.3874,25.76582409,1,3.1126,1.5,,,,,,25.76582409,0,2.393193076,,,,,,,,,,,,,0,92,92,46,1,0.517129855,1,,,,,,,,,,,,,,,,,,,,,,,,,,,,,,,,,,,,,,,,,,,,,,,,,,,,,,,,,,,,,,,,,,,,,,,,,,,,,,,,
,,62c396eed1893e06fdad4574,2022-09-08_14h19.12.377,CGTgamblingSpanTasks,2022.2.1,MacIntel,60.0024001,,,,,,,,2.0125,,,,,,,,,,,,,,2,n,1.9875,25.54604005,1,3.5125,1.5,,,,,,25.54604005,0,0.088845411,,,,,,,,,,,,,0,93,93,79,1,0.901957831,0,,,,,,,,,,,,,,,,,,,,,,,,,,,,,,,,,,,,,,,,,,,,,,,,,,,,,,,,,,,,,,,,,,,,,,,,,,,,,,,,
,,62c396eed1893e06fdad4574,2022-09-08_14h19.12.377,CGTgamblingSpanTasks,2022.2.1,MacIntel,60.0024001,,,,,,,,1.8555,,,,,,,,,,,,,,1,v,2.1445,29.76099779,1,2.8555,1,,,,,,29.76099779,0,0.095763086,,,,,,,,,,,,,0,94,94,35,1,0.904537896,0,,,,,,,,,,,,,,,,,,,,,,,,,,,,,,,,,,,,,,,,,,,,,,,,,,,,,,,,,,,,,,,,,,,,,,,,,,,,,,,,
,,62c396eed1893e06fdad4574,2022-09-08_14h19.12.377,CGTgamblingSpanTasks,2022.2.1,MacIntel,60.0024001,,,,,,,,2.3203,,,,,,,,,,,,,,2,n,1.6797,0,1,3.8203,1.5,,,,,,22.87092517,0,0.059276504,,,,,,,,,,,,,0,95,95,27,1,0.911114935,0,,,,,,,,,,,,,,,,,,,,,,,,,,,,,,,,,,,,,,,,,,,,,,,,,,,,,,,,,,,,,,,,,,,,,,,,,,,,,,,,
,,62c396eed1893e06fdad4574,2022-09-08_14h19.12.377,CGTgamblingSpanTasks,2022.2.1,MacIntel,60.0024001,,,,,,,,2.4769,,,,,,,,,,,,,,1,n,1.5231,11.93550497,0,3.9769,1.5,,,,,,14.20587264,0,11.93550497,,,,,,,,,,,,,0,96,96,21,1,0.041340301,0,,,,,,,,,,,,,,,,,,,,,,,,,,,,,,,,,,,,,,,,,,,,,,,,,,,,,,,,,,,,,,,,,,,,,,,,,,,,,,,,
,,62c396eed1893e06fdad4574,2022-09-08_14h19.12.377,CGTgamblingSpanTasks,2022.2.1,MacIntel,60.0024001,,,,,,,,2.4622,,,,,,,,,,,,,,1,v,1.5378,0,1,3.9622,1.5,,,,,,27.4965044,0,2.461467004,,,,,,,,,,,,,0,97,97,36,1,0.526550878,1,,,,,,,,,,,,,,,,,,,,,,,,,,,,,,,,,,,,,,,,,,,,,,,,,,,,,,,,,,,,,,,,,,,,,,,,,,,,,,,,
,,62c396eed1893e06fdad4574,2022-09-08_14h19.12.377,CGTgamblingSpanTasks,2022.2.1,MacIntel,60.0024001,,,,,,,,2.3621,,,,,,,,,,,,,,1,v,1.6379,0,1,3.3621,1,,,,,,21.03408097,0,2.208275162,,,,,,,,,,,,,0,98,98,0,1,0.485031246,1,,,,,,,,,,,,,,,,,,,,,,,,,,,,,,,,,,,,,,,,,,,,,,,,,,,,,,,,,,,,,,,,,,,,,,,,,,,,,,,,
,,62c396eed1893e06fdad4574,2022-09-08_14h19.12.377,CGTgamblingSpanTasks,2022.2.1,MacIntel,60.0024001,,,,,,,,0,,,,,,,,,,,,,,1,,,,,1.5,1.5,,,,,,24.57684014,0,0.061756244,,,,,,,,,,,,,0,99,99,68,1,0.911988903,0,,,,,,,,,,,,,,,,,,,,,,,,,,,,,,,,,,,,,,,,,,,,,,,,,,,,,,,,,,,,,,,,,,,,,,,,,,,,,,,,
,,62c396eed1893e06fdad4574,2022-09-08_14h19.12.377,CGTgamblingSpanTasks,2022.2.1,MacIntel,60.0024001,,,,,,,,2.7783,,,,,,,,,,,,,,2,n,1.2217,8.670591867,1,3.7783,1,,,,,,8.670591867,0,1.025847652,,,,,,,,,,,,,0,100,100,18,1,0.452680459,1,,,,,,,,,,,,,,,,,,,,,,,,,,,,,,,,,,,,,,,,,,,,,,,,,,,,,,,,,,,,,,,,,,,,,,,,,,,,,,,,
,,62c396eed1893e06fdad4574,2022-09-08_14h19.12.377,CGTgamblingSpanTasks,2022.2.1,MacIntel,60.0024001,,,,,,,,2.8766,,,,,,,,,,,,,,1,v,1.1234,26.36733703,1,3.8766,1,,,,,,26.36733703,0,2.201057101,,,,,,,,,,,,,0,101,101,90,1,0.544064207,1,,,,,,,,,,,,,,,,,,,,,,,,,,,,,,,,,,,,,,,,,,,,,,,,,,,,,,,,,,,,,,,,,,,,,,,,,,,,,,,,
,,62c396eed1893e06fdad4574,2022-09-08_14h19.12.377,CGTgamblingSpanTasks,2022.2.1,MacIntel,60.0024001,,,,,,,,2.8785,,,,,,,,,,,,,,1,v,1.1215,27.38828234,1,4.3785,1.5,,,,,,27.38828234,0,0.0639233,,,,,,,,,,,,,0,102,102,43,1,0.914010176,0,,,,,,,,,,,,,,,,,,,,,,,,,,,,,,,,,,,,,,,,,,,,,,,,,,,,,,,,,,,,,,,,,,,,,,,,,,,,,,,,
,,62c396eed1893e06fdad4574,2022-09-08_14h19.12.377,CGTgamblingSpanTasks,2022.2.1,MacIntel,60.0024001,,,,,,,,2.5445,,,,,,,,,,,,,,2,v,1.4555,7.50753835,0,3.5445,1,,,,,,2.231316635,0,7.50753835,,,,,,,,,,,,,0,103,103,29,1,0.010273427,0,,,,,,,,,,,,,,,,,,,,,,,,,,,,,,,,,,,,,,,,,,,,,,,,,,,,,,,,,,,,,,,,,,,,,,,,,,,,,,,,
,,62c396eed1893e06fdad4574,2022-09-08_14h19.12.377,CGTgamblingSpanTasks,2022.2.1,MacIntel,60.0024001,,,,,,,,3.043,,,,,,,,,,,,,,2,n,0.957,21.16780451,1,4.543,1.5,,,,,,21.16780451,0,2.469465385,,,,,,,,,,,,,0,104,104,32,1,0.456531699,1,,,,,,,,,,,,,,,,,,,,,,,,,,,,,,,,,,,,,,,,,,,,,,,,,,,,,,,,,,,,,,,,,,,,,,,,,,,,,,,,
,,62c396eed1893e06fdad4574,2022-09-08_14h19.12.377,CGTgamblingSpanTasks,2022.2.1,MacIntel,60.0024001,,,,,,,,3.0733,,,,,,,,,,,,,,2,n,0.9267,0,1,4.5733,1.5,,,,,,26.11188619,0,0.081942421,,,,,,,,,,,,,0,105,105,105,1,0.905343856,0,,,,,,,,,,,,,,,,,,,,,,,,,,,,,,,,,,,,,,,,,,,,,,,,,,,,,,,,,,,,,,,,,,,,,,,,,,,,,,,,
,,62c396eed1893e06fdad4574,2022-09-08_14h19.12.377,CGTgamblingSpanTasks,2022.2.1,MacIntel,60.0024001,,,,,,,,2.8618,,,,,,,,,,,,,,1,v,1.1382,18.50662664,1,4.3618,1.5,,,,,,18.50662664,0,0.052546026,,,,,,,,,,,,,0,106,106,112,1,0.908444837,0,,,,,,,,,,,,,,,,,,,,,,,,,,,,,,,,,,,,,,,,,,,,,,,,,,,,,,,,,,,,,,,,,,,,,,,,,,,,,,,,
,,62c396eed1893e06fdad4574,2022-09-08_14h19.12.377,CGTgamblingSpanTasks,2022.2.1,MacIntel,60.0024001,,,,,,,,2.3313,,,,,,,,,,,,,,2,n,1.6687,0,1,3.3313,1,,,,,,18.16238569,0,1.540604093,,,,,,,,,,,,,0,107,107,34,1,0.540092491,1,,,,,,,,,,,,,,,,,,,,,,,,,,,,,,,,,,,,,,,,,,,,,,,,,,,,,,,,,,,,,,,,,,,,,,,,,,,,,,,,
,,62c396eed1893e06fdad4574,2022-09-08_14h19.12.377,CGTgamblingSpanTasks,2022.2.1,MacIntel,60.0024001,,,,,,,,2.7274,,,,,,,,,,,,,,2,n,1.2726,21.00799273,1,4.2274,1.5,,,,,,21.00799273,0,0.067969053,,,,,,,,,,,,,0,108,108,92,1,0.904360262,0,,,,,,,,,,,,,,,,,,,,,,,,,,,,,,,,,,,,,,,,,,,,,,,,,,,,,,,,,,,,,,,,,,,,,,,,,,,,,,,,
,,62c396eed1893e06fdad4574,2022-09-08_14h19.12.377,CGTgamblingSpanTasks,2022.2.1,MacIntel,60.0024001,,,,,,,,2.4295,,,,,,,,,,,,,,1,v,1.5705,0,1,3.4295,1,,,,,,18.20422443,0,1.635040165,,,,,,,,,,,,,0,109,109,82,1,0.525708991,1,,,,,,,,,,,,,,,,,,,,,,,,,,,,,,,,,,,,,,,,,,,,,,,,,,,,,,,,,,,,,,,,,,,,,,,,,,,,,,,,
,,62c396eed1893e06fdad4574,2022-09-08_14h19.12.377,CGTgamblingSpanTasks,2022.2.1,MacIntel,60.0024001,,,,,,,,2.8703,,,,,,,,,,,,,,1,v,1.1297,0,1,4.3703,1.5,,,,,,27.2532142,0,0.08089327,,,,,,,,,,,,,0,110,110,119,1,0.907091845,0,,,,,,,,,,,,,,,,,,,,,,,,,,,,,,,,,,,,,,,,,,,,,,,,,,,,,,,,,,,,,,,,,,,,,,,,,,,,,,,,
,,62c396eed1893e06fdad4574,2022-09-08_14h19.12.377,CGTgamblingSpanTasks,2022.2.1,MacIntel,60.0024001,,,,,,,,2.9253,,,,,,,,,,,,,,1,v,1.0747,25.0707644,1,3.9253,1,,,,,,25.0707644,0,0.067651625,,,,,,,,,,,,,0,111,111,70,1,0.909952349,0,,,,,,,,,,,,,,,,,,,,,,,,,,,,,,,,,,,,,,,,,,,,,,,,,,,,,,,,,,,,,,,,,,,,,,,,,,,,,,,,
,,62c396eed1893e06fdad4574,2022-09-08_14h19.12.377,CGTgamblingSpanTasks,2022.2.1,MacIntel,60.0024001,,,,,,,,3.06,,,,,,,,,,,,,,2,n,0.94,0,1,4.06,1,,,,,,27.53810185,0,0.097022401,,,,,,,,,,,,,0,112,112,50,1,0.901515865,0,,,,,,,,,,,,,,,,,,,,,,,,,,,,,,,,,,,,,,,,,,,,,,,,,,,,,,,,,,,,,,,,,,,,,,,,,,,,,,,,
,,62c396eed1893e06fdad4574,2022-09-08_14h19.12.377,CGTgamblingSpanTasks,2022.2.1,MacIntel,60.0024001,,,,,,,,2.5693,,,,,,,,,,,,,,2,v,1.4307,6.091504705,0,4.0693,1.5,,,,,,6.662965216,0,6.091504705,,,,,,,,,,,,,0,113,113,102,1,0.035087099,0,,,,,,,,,,,,,,,,,,,,,,,,,,,,,,,,,,,,,,,,,,,,,,,,,,,,,,,,,,,,,,,,,,,,,,,,,,,,,,,,
,,62c396eed1893e06fdad4574,2022-09-08_14h19.12.377,CGTgamblingSpanTasks,2022.2.1,MacIntel,60.0024001,,,,,,,,2.0897,,,,,,,,,,,,,,1,v,1.9103,28.9381277,1,3.0897,1,,,,,,28.9381277,0,2.663622024,,,,,,,,,,,,,0,114,114,103,1,0.519453367,1,,,,,,,,,,,,,,,,,,,,,,,,,,,,,,,,,,,,,,,,,,,,,,,,,,,,,,,,,,,,,,,,,,,,,,,,,,,,,,,,
,,62c396eed1893e06fdad4574,2022-09-08_14h19.12.377,CGTgamblingSpanTasks,2022.2.1,MacIntel,60.0024001,,,,,,,,2.8686,,,,,,,,,,,,,,2,n,1.1314,0,1,3.8686,1,,,,,,24.479109,0,0.089582697,,,,,,,,,,,,,0,115,115,89,1,0.900200232,0,,,,,,,,,,,,,,,,,,,,,,,,,,,,,,,,,,,,,,,,,,,,,,,,,,,,,,,,,,,,,,,,,,,,,,,,,,,,,,,,
,,62c396eed1893e06fdad4574,2022-09-08_14h19.12.377,CGTgamblingSpanTasks,2022.2.1,MacIntel,60.0024001,,,,,,,,2.3037,,,,,,,,,,,,,,1,n,1.6963,8.42547829,0,3.3037,1,,,,,,15.87668502,0,8.42547829,,,,,,,,,,,,,0,116,116,56,1,0.092099462,0,,,,,,,,,,,,,,,,,,,,,,,,,,,,,,,,,,,,,,,,,,,,,,,,,,,,,,,,,,,,,,,,,,,,,,,,,,,,,,,,
,,62c396eed1893e06fdad4574,2022-09-08_14h19.12.377,CGTgamblingSpanTasks,2022.2.1,MacIntel,60.0024001,,,,,,,,3.1223,,,,,,,,,,,,,,2,n,0.8777,21.39646914,1,4.1223,1,,,,,,21.39646914,0,0.072474078,,,,,,,,,,,,,0,117,117,3,1,0.902848133,0,,,,,,,,,,,,,,,,,,,,,,,,,,,,,,,,,,,,,,,,,,,,,,,,,,,,,,,,,,,,,,,,,,,,,,,,,,,,,,,,
,,62c396eed1893e06fdad4574,2022-09-08_14h19.12.377,CGTgamblingSpanTasks,2022.2.1,MacIntel,60.0024001,,,,,,,,2.6176,,,,,,,,,,,,,,2,v,1.3824,8.830252162,0,3.6176,1,,,,,,15.73000491,0,8.830252162,,,,,,,,,,,,,0,118,118,95,1,0.084193143,0,,,,,,,,,,,,,,,,,,,,,,,,,,,,,,,,,,,,,,,,,,,,,,,,,,,,,,,,,,,,,,,,,,,,,,,,,,,,,,,,
,,62c396eed1893e06fdad4574,2022-09-08_14h19.12.377,CGTgamblingSpanTasks,2022.2.1,MacIntel,60.0024001,,,,,,,,2.3759,,,,,,,,,,,,,,1,v,1.6241,0,1,3.8759,1.5,,,,,,18.51345298,0,1.932334278,,,,,,,,,,,,,0,119,119,31,1,0.48658696,1,,,,,,,,,,,,,,,,,,,,,,,,,,,,,,,,,,,,,,,,,,,,,,,,,,,,,,,,,,,,,,,,,,,,,,,,,,,,,,,,
,,62c396eed1893e06fdad4574,2022-09-08_14h19.12.377,CGTgamblingSpanTasks,2022.2.1,MacIntel,60.0024001,,,,,,,,,,,,,,,,,,,,,,,,,,,,,,,,,,,,,,,,,,,,,,,,,,,,,,,,return,94.177,,,,,,,,,,,,,,,,,,,,,,,,,,,,,,,,,,,,,,,,,,,,,,,,,,,,,,,,,,,,,,,,,,,,,,,,,,,,,,
,,62c396eed1893e06fdad4574,2022-09-08_14h19.12.377,CGTgamblingSpanTasks,2022.2.1,MacIntel,60.0024001,,,,,,,,,,,,,,,,,,,,,,,,,,,,,,,,,,,,,,,,,,,,,,,,,,,,,,,,,,return,19.5435,,,,,,,,,,,,,,,,,,,,,,,,,,,,,,,,,,,,,,,,,,,,,,,,,,,,,,,,,,,,,,,,,,,,,,,,,,,,
,,62c396eed1893e06fdad4574,2022-09-08_14h19.12.377,CGTgamblingSpanTasks,2022.2.1,MacIntel,60.0024001,,,,,,,,,,,,,,,,,,,,,,,,,,,,,,,,,,,,,,,,,,,,,,,,,,,,,,,,,,,,return,12.0601,,,,,,,,,,,,,,,,,,,,,,,,,,,,,,,,,,,,,,,,,,,,,,,,,,,,,,,,,,,,,,,,,,,,,,,,,,
,,62c396eed1893e06fdad4574,2022-09-08_14h19.12.377,CGTgamblingSpanTasks,2022.2.1,MacIntel,60.0024001,,,,,,,,,,,,,,,,,,,,,,,,,,,,,,,,,,,,,,,,,,,,,,,,,,,,,,,,,,,,,,342,1,-0.065135472,-0.39210752,1,0,0,cont_buttonPractice,0,0,0,0,1,3,342,24,2,42,,,,,,,,,,,,,,,,,,,,,,,,,,,,,,,,,,,,,,,,,,,,,,,,,,,,,,,,
,,62c396eed1893e06fdad4574,2022-09-08_14h19.12.377,CGTgamblingSpanTasks,2022.2.1,MacIntel,60.0024001,,,,,,,,,,,,,,,,,,,,,,,,,,,,,,,,,,,,,,,,,,,,,,,,,,,,,,,,,,,,,,937,1,-0.055874086,-0.388516601,1,0,0,cont_buttonPractice,0,1,1,1,1,3,937,73,2,37,,,,,,,,,,,,,,,,,,,,,,,,,,,,,,,,,,,,,,,,,,,,,,,,,,,,,,,,
,,62c396eed1893e06fdad4574,2022-09-08_14h19.12.377,CGTgamblingSpanTasks,2022.2.1,MacIntel,60.0024001,,,,,,,,,,,,,,,,,,,,,,,,,,,,,,,,,,,,,,,,,,,,,,,,,,,,,,,,,,,,,,,,,,,,,,,,,,,,,,,,return,3.5124,,,,,,,,,,,,,,,,,,,,,,,,,,,,,,,,,,,,,,,,,,,,,,,,,,,,,,
,,62c396eed1893e06fdad4574,2022-09-08_14h19.12.377,CGTgamblingSpanTasks,2022.2.1,MacIntel,60.0024001,,,,,,,,,,,,,,,,,,,,,,,,,,,,,,,,,,,,,,,,,,,,,,,,,,,,,,,,,,,,,,,,,,,,,,,,,,,,,,,,,,"[8,5,2]",0,0,0,0,1,,,,,,,,,,,,,,,,,,,,,,,,,,,,,,,,,,,,,,,,,,,,,,,,
,,62c396eed1893e06fdad4574,2022-09-08_14h19.12.377,CGTgamblingSpanTasks,2022.2.1,MacIntel,60.0024001,,,,,,,,,,,,,,,,,,,,,,,,,,,,,,,,,,,,,,,,,,,,,,,,,,,,,,,,,,,,,,,,,,,,,,,,,,,,,,,,,,"[8,5,2]",1,0,1,0,1,,,,,,,,,,,,,,,,,,,,,,,,,,,,,,,,,,,,,,,,,,,,,,,,
,,62c396eed1893e06fdad4574,2022-09-08_14h19.12.377,CGTgamblingSpanTasks,2022.2.1,MacIntel,60.0024001,,,,,,,,,,,,,,,,,,,,,,,,,,,,,,,,,,,,,,,,,,,,,,,,,,,,,,,,,,,,,,,,,,,,,,,,,,,,,,,,,,"[8,5,2]",2,0,2,0,1,,,,,,,,,,,,,,,,,,,,,,,,,,,,,,,,,,,,,,,,,,,,,,,,
,,62c396eed1893e06fdad4574,2022-09-08_14h19.12.377,CGTgamblingSpanTasks,2022.2.1,MacIntel,60.0024001,,,,,,,,,,,,,,,,,,,,,,,,,,,,,,,,,,,,,,,,,,,,,,,,,,,,,,,,,,,,,,,1,,,,,,,,,,,,,,,,,,,,,,,,,852,-0.055874086,-0.388516601,1,0,0,cont_button,0,0,0,0,1,1,,,,,,,,,,,,,,,,,,,,,,,,,,,,,,,,,,,
,,62c396eed1893e06fdad4574,2022-09-08_14h19.12.377,CGTgamblingSpanTasks,2022.2.1,MacIntel,60.0024001,,,,,,,,,,,,,,,,,,,,,,,,,,,,,,,,,,,,,,,,,,,,,,,,,,,,,,,,,,,,,,,,,,,,,,,,,,,,,,,,,,"[5,8,3,7]",0,0,0,0,1,,,,,,,,,,,,,,,,,,,,,,,,,,,,,,,,,,,,,,,,,,,,,,,,
,,62c396eed1893e06fdad4574,2022-09-08_14h19.12.377,CGTgamblingSpanTasks,2022.2.1,MacIntel,60.0024001,,,,,,,,,,,,,,,,,,,,,,,,,,,,,,,,,,,,,,,,,,,,,,,,,,,,,,,,,,,,,,,,,,,,,,,,,,,,,,,,,,"[5,8,3,7]",1,0,1,0,1,,,,,,,,,,,,,,,,,,,,,,,,,,,,,,,,,,,,,,,,,,,,,,,,
,,62c396eed1893e06fdad4574,2022-09-08_14h19.12.377,CGTgamblingSpanTasks,2022.2.1,MacIntel,60.0024001,,,,,,,,,,,,,,,,,,,,,,,,,,,,,,,,,,,,,,,,,,,,,,,,,,,,,,,,,,,,,,,,,,,,,,,,,,,,,,,,,,"[5,8,3,7]",2,0,2,0,1,,,,,,,,,,,,,,,,,,,,,,,,,,,,,,,,,,,,,,,,,,,,,,,,
,,62c396eed1893e06fdad4574,2022-09-08_14h19.12.377,CGTgamblingSpanTasks,2022.2.1,MacIntel,60.0024001,,,,,,,,,,,,,,,,,,,,,,,,,,,,,,,,,,,,,,,,,,,,,,,,,,,,,,,,,,,,,,,,,,,,,,,,,,,,,,,,,,"[5,8,3,7]",3,0,3,0,1,,,,,,,,,,,,,,,,,,,,,,,,,,,,,,,,,,,,,,,,,,,,,,,,
,,62c396eed1893e06fdad4574,2022-09-08_14h19.12.377,CGTgamblingSpanTasks,2022.2.1,MacIntel,60.0024001,,,,,,,,,,,,,,,,,,,,,,,,,,,,,,,,,,,,,,,,,,,,,,,,,,,,,,,,,,,,,,,1,,,,,,,,,,,,,,,,,,,,,,,,,5837,-0.054125826,-0.388516601,1,0,0,cont_button,0,1,1,1,1,2,,,,,,,,,,,,,,,,,,,,,,,,,,,,,,,,,,,
,,62c396eed1893e06fdad4574,2022-09-08_14h19.12.377,CGTgamblingSpanTasks,2022.2.1,MacIntel,60.0024001,,,,,,,,,,,,,,,,,,,,,,,,,,,,,,,,,,,,,,,,,,,,,,,,,,,,,,,,,,,,,,,,,,,,,,,,,,,,,,,,,,"[1,4,9,2,7]",0,0,0,0,1,,,,,,,,,,,,,,,,,,,,,,,,,,,,,,,,,,,,,,,,,,,,,,,,
,,62c396eed1893e06fdad4574,2022-09-08_14h19.12.377,CGTgamblingSpanTasks,2022.2.1,MacIntel,60.0024001,,,,,,,,,,,,,,,,,,,,,,,,,,,,,,,,,,,,,,,,,,,,,,,,,,,,,,,,,,,,,,,,,,,,,,,,,,,,,,,,,,"[1,4,9,2,7]",1,0,1,0,1,,,,,,,,,,,,,,,,,,,,,,,,,,,,,,,,,,,,,,,,,,,,,,,,
,,62c396eed1893e06fdad4574,2022-09-08_14h19.12.377,CGTgamblingSpanTasks,2022.2.1,MacIntel,60.0024001,,,,,,,,,,,,,,,,,,,,,,,,,,,,,,,,,,,,,,,,,,,,,,,,,,,,,,,,,,,,,,,,,,,,,,,,,,,,,,,,,,"[1,4,9,2,7]",2,0,2,0,1,,,,,,,,,,,,,,,,,,,,,,,,,,,,,,,,,,,,,,,,,,,,,,,,
,,62c396eed1893e06fdad4574,2022-09-08_14h19.12.377,CGTgamblingSpanTasks,2022.2.1,MacIntel,60.0024001,,,,,,,,,,,,,,,,,,,,,,,,,,,,,,,,,,,,,,,,,,,,,,,,,,,,,,,,,,,,,,,,,,,,,,,,,,,,,,,,,,"[1,4,9,2,7]",3,0,3,0,1,,,,,,,,,,,,,,,,,,,,,,,,,,,,,,,,,,,,,,,,,,,,,,,,
,,62c396eed1893e06fdad4574,2022-09-08_14h19.12.377,CGTgamblingSpanTasks,2022.2.1,MacIntel,60.0024001,,,,,,,,,,,,,,,,,,,,,,,,,,,,,,,,,,,,,,,,,,,,,,,,,,,,,,,,,,,,,,,,,,,,,,,,,,,,,,,,,,"[1,4,9,2,7]",4,0,4,0,1,,,,,,,,,,,,,,,,,,,,,,,,,,,,,,,,,,,,,,,,,,,,,,,,
,,62c396eed1893e06fdad4574,2022-09-08_14h19.12.377,CGTgamblingSpanTasks,2022.2.1,MacIntel,60.0024001,,,,,,,,,,,,,,,,,,,,,,,,,,,,,,,,,,,,,,,,,,,,,,,,,,,,,,,,,,,,,,,1,,,,,,,,,,,,,,,,,,,,,,,,,14927,-0.054125826,-0.388516601,1,0,0,cont_button,0,2,2,2,1,3,,,,,,,,,,,,,,,,,,,,,,,,,,,,,,,,,,,
,,62c396eed1893e06fdad4574,2022-09-08_14h19.12.377,CGTgamblingSpanTasks,2022.2.1,MacIntel,60.0024001,,,,,,,,,,,,,,,,,,,,,,,,,,,,,,,,,,,,,,,,,,,,,,,,,,,,,,,,,,,,,,,,,,,,,,,,,,,,,,,,,,"[3,4,7,9,1,6]",0,0,0,0,1,,,,,,,,,,,,,,,,,,,,,,,,,,,,,,,,,,,,,,,,,,,,,,,,
,,62c396eed1893e06fdad4574,2022-09-08_14h19.12.377,CGTgamblingSpanTasks,2022.2.1,MacIntel,60.0024001,,,,,,,,,,,,,,,,,,,,,,,,,,,,,,,,,,,,,,,,,,,,,,,,,,,,,,,,,,,,,,,,,,,,,,,,,,,,,,,,,,"[3,4,7,9,1,6]",1,0,1,0,1,,,,,,,,,,,,,,,,,,,,,,,,,,,,,,,,,,,,,,,,,,,,,,,,
,,62c396eed1893e06fdad4574,2022-09-08_14h19.12.377,CGTgamblingSpanTasks,2022.2.1,MacIntel,60.0024001,,,,,,,,,,,,,,,,,,,,,,,,,,,,,,,,,,,,,,,,,,,,,,,,,,,,,,,,,,,,,,,,,,,,,,,,,,,,,,,,,,"[3,4,7,9,1,6]",2,0,2,0,1,,,,,,,,,,,,,,,,,,,,,,,,,,,,,,,,,,,,,,,,,,,,,,,,
,,62c396eed1893e06fdad4574,2022-09-08_14h19.12.377,CGTgamblingSpanTasks,2022.2.1,MacIntel,60.0024001,,,,,,,,,,,,,,,,,,,,,,,,,,,,,,,,,,,,,,,,,,,,,,,,,,,,,,,,,,,,,,,,,,,,,,,,,,,,,,,,,,"[3,4,7,9,1,6]",3,0,3,0,1,,,,,,,,,,,,,,,,,,,,,,,,,,,,,,,,,,,,,,,,,,,,,,,,
,,62c396eed1893e06fdad4574,2022-09-08_14h19.12.377,CGTgamblingSpanTasks,2022.2.1,MacIntel,60.0024001,,,,,,,,,,,,,,,,,,,,,,,,,,,,,,,,,,,,,,,,,,,,,,,,,,,,,,,,,,,,,,,,,,,,,,,,,,,,,,,,,,"[3,4,7,9,1,6]",4,0,4,0,1,,,,,,,,,,,,,,,,,,,,,,,,,,,,,,,,,,,,,,,,,,,,,,,,
,,62c396eed1893e06fdad4574,2022-09-08_14h19.12.377,CGTgamblingSpanTasks,2022.2.1,MacIntel,60.0024001,,,,,,,,,,,,,,,,,,,,,,,,,,,,,,,,,,,,,,,,,,,,,,,,,,,,,,,,,,,,,,,,,,,,,,,,,,,,,,,,,,"[3,4,7,9,1,6]",5,0,5,0,1,,,,,,,,,,,,,,,,,,,,,,,,,,,,,,,,,,,,,,,,,,,,,,,,
,,62c396eed1893e06fdad4574,2022-09-08_14h19.12.377,CGTgamblingSpanTasks,2022.2.1,MacIntel,60.0024001,,,,,,,,,,,,,,,,,,,,,,,,,,,,,,,,,,,,,,,,,,,,,,,,,,,,,,,,,,,,,,,1,,,,,,,,,,,,,,,,,,,,,,,,,347916,-0.054125826,-0.388516601,1,0,0,cont_button,0,3,3,3,1,4,,,,,,,,,,,,,,,,,,,,,,,,,,,,,,,,,,,
,,62c396eed1893e06fdad4574,2022-09-08_14h19.12.377,CGTgamblingSpanTasks,2022.2.1,MacIntel,60.0024001,,,,,,,,,,,,,,,,,,,,,,,,,,,,,,,,,,,,,,,,,,,,,,,,,,,,,,,,,,,,,,,,,,,,,,,,,,,,,,,,,,"[2,7,8,5,6,4,1]",0,0,0,0,1,,,,,,,,,,,,,,,,,,,,,,,,,,,,,,,,,,,,,,,,,,,,,,,,
,,62c396eed1893e06fdad4574,2022-09-08_14h19.12.377,CGTgamblingSpanTasks,2022.2.1,MacIntel,60.0024001,,,,,,,,,,,,,,,,,,,,,,,,,,,,,,,,,,,,,,,,,,,,,,,,,,,,,,,,,,,,,,,,,,,,,,,,,,,,,,,,,,"[2,7,8,5,6,4,1]",1,0,1,0,1,,,,,,,,,,,,,,,,,,,,,,,,,,,,,,,,,,,,,,,,,,,,,,,,
,,62c396eed1893e06fdad4574,2022-09-08_14h19.12.377,CGTgamblingSpanTasks,2022.2.1,MacIntel,60.0024001,,,,,,,,,,,,,,,,,,,,,,,,,,,,,,,,,,,,,,,,,,,,,,,,,,,,,,,,,,,,,,,,,,,,,,,,,,,,,,,,,,"[2,7,8,5,6,4,1]",2,0,2,0,1,,,,,,,,,,,,,,,,,,,,,,,,,,,,,,,,,,,,,,,,,,,,,,,,
,,62c396eed1893e06fdad4574,2022-09-08_14h19.12.377,CGTgamblingSpanTasks,2022.2.1,MacIntel,60.0024001,,,,,,,,,,,,,,,,,,,,,,,,,,,,,,,,,,,,,,,,,,,,,,,,,,,,,,,,,,,,,,,,,,,,,,,,,,,,,,,,,,"[2,7,8,5,6,4,1]",3,0,3,0,1,,,,,,,,,,,,,,,,,,,,,,,,,,,,,,,,,,,,,,,,,,,,,,,,
,,62c396eed1893e06fdad4574,2022-09-08_14h19.12.377,CGTgamblingSpanTasks,2022.2.1,MacIntel,60.0024001,,,,,,,,,,,,,,,,,,,,,,,,,,,,,,,,,,,,,,,,,,,,,,,,,,,,,,,,,,,,,,,,,,,,,,,,,,,,,,,,,,"[2,7,8,5,6,4,1]",4,0,4,0,1,,,,,,,,,,,,,,,,,,,,,,,,,,,,,,,,,,,,,,,,,,,,,,,,
,,62c396eed1893e06fdad4574,2022-09-08_14h19.12.377,CGTgamblingSpanTasks,2022.2.1,MacIntel,60.0024001,,,,,,,,,,,,,,,,,,,,,,,,,,,,,,,,,,,,,,,,,,,,,,,,,,,,,,,,,,,,,,,,,,,,,,,,,,,,,,,,,,"[2,7,8,5,6,4,1]",5,0,5,0,1,,,,,,,,,,,,,,,,,,,,,,,,,,,,,,,,,,,,,,,,,,,,,,,,
,,62c396eed1893e06fdad4574,2022-09-08_14h19.12.377,CGTgamblingSpanTasks,2022.2.1,MacIntel,60.0024001,,,,,,,,,,,,,,,,,,,,,,,,,,,,,,,,,,,,,,,,,,,,,,,,,,,,,,,,,,,,,,,,,,,,,,,,,,,,,,,,,,"[2,7,8,5,6,4,1]",6,0,6,0,1,,,,,,,,,,,,,,,,,,,,,,,,,,,,,,,,,,,,,,,,,,,,,,,,
,,62c396eed1893e06fdad4574,2022-09-08_14h19.12.377,CGTgamblingSpanTasks,2022.2.1,MacIntel,60.0024001,,,,,,,,,,,,,,,,,,,,,,,,,,,,,,,,,,,,,,,,,,,,,,,,,,,,,,,,,,,,,,,0,,,,,,,,,,,,,,,,,,,,,,,,,,-0.054125826,-0.388516601,1,0,0,cont_button,0,4,4,4,1,5,,,,,,,,,,,,,,,,,,,,,,,,,,,,,,,,,,,
,,62c396eed1893e06fdad4574,2022-09-08_14h19.12.377,CGTgamblingSpanTasks,2022.2.1,MacIntel,60.0024001,,,,,,,,,,,,,,,,,,,,,,,,,,,,,,,,,,,,,,,,,,,,,,,,,,,,,,,,,,,,,,,,,,,,,,,,,,,,,,,,,,"[5,6,9,2,3,8,7]",0,0,0,0,1,,,,,,,,,,,,,,,,,,,,,,,,,,,,,,,,,,,,,,,,,,,,,,,,
,,62c396eed1893e06fdad4574,2022-09-08_14h19.12.377,CGTgamblingSpanTasks,2022.2.1,MacIntel,60.0024001,,,,,,,,,,,,,,,,,,,,,,,,,,,,,,,,,,,,,,,,,,,,,,,,,,,,,,,,,,,,,,,,,,,,,,,,,,,,,,,,,,"[5,6,9,2,3,8,7]",1,0,1,0,1,,,,,,,,,,,,,,,,,,,,,,,,,,,,,,,,,,,,,,,,,,,,,,,,
,,62c396eed1893e06fdad4574,2022-09-08_14h19.12.377,CGTgamblingSpanTasks,2022.2.1,MacIntel,60.0024001,,,,,,,,,,,,,,,,,,,,,,,,,,,,,,,,,,,,,,,,,,,,,,,,,,,,,,,,,,,,,,,,,,,,,,,,,,,,,,,,,,"[5,6,9,2,3,8,7]",2,0,2,0,1,,,,,,,,,,,,,,,,,,,,,,,,,,,,,,,,,,,,,,,,,,,,,,,,
,,62c396eed1893e06fdad4574,2022-09-08_14h19.12.377,CGTgamblingSpanTasks,2022.2.1,MacIntel,60.0024001,,,,,,,,,,,,,,,,,,,,,,,,,,,,,,,,,,,,,,,,,,,,,,,,,,,,,,,,,,,,,,,,,,,,,,,,,,,,,,,,,,"[5,6,9,2,3,8,7]",3,0,3,0,1,,,,,,,,,,,,,,,,,,,,,,,,,,,,,,,,,,,,,,,,,,,,,,,,
,,62c396eed1893e06fdad4574,2022-09-08_14h19.12.377,CGTgamblingSpanTasks,2022.2.1,MacIntel,60.0024001,,,,,,,,,,,,,,,,,,,,,,,,,,,,,,,,,,,,,,,,,,,,,,,,,,,,,,,,,,,,,,,,,,,,,,,,,,,,,,,,,,"[5,6,9,2,3,8,7]",4,0,4,0,1,,,,,,,,,,,,,,,,,,,,,,,,,,,,,,,,,,,,,,,,,,,,,,,,
,,62c396eed1893e06fdad4574,2022-09-08_14h19.12.377,CGTgamblingSpanTasks,2022.2.1,MacIntel,60.0024001,,,,,,,,,,,,,,,,,,,,,,,,,,,,,,,,,,,,,,,,,,,,,,,,,,,,,,,,,,,,,,,,,,,,,,,,,,,,,,,,,,"[5,6,9,2,3,8,7]",5,0,5,0,1,,,,,,,,,,,,,,,,,,,,,,,,,,,,,,,,,,,,,,,,,,,,,,,,
,,62c396eed1893e06fdad4574,2022-09-08_14h19.12.377,CGTgamblingSpanTasks,2022.2.1,MacIntel,60.0024001,,,,,,,,,,,,,,,,,,,,,,,,,,,,,,,,,,,,,,,,,,,,,,,,,,,,,,,,,,,,,,,,,,,,,,,,,,,,,,,,,,"[5,6,9,2,3,8,7]",6,0,6,0,1,,,,,,,,,,,,,,,,,,,,,,,,,,,,,,,,,,,,,,,,,,,,,,,,
,,62c396eed1893e06fdad4574,2022-09-08_14h19.12.377,CGTgamblingSpanTasks,2022.2.1,MacIntel,60.0024001,,,,,,,,,,,,,,,,,,,,,,,,,,,,,,,,,,,,,,,,,,,,,,,,,,,,,,,,,,,,,,,1,,,,,,,,,,,,,,,,,,,,,,,,,5692387,-0.054125826,-0.388516601,1,0,0,cont_button,0,5,5,5,1,6,,,,,,,,,,,,,,,,,,,,,,,,,,,,,,,,,,,
,,62c396eed1893e06fdad4574,2022-09-08_14h19.12.377,CGTgamblingSpanTasks,2022.2.1,MacIntel,60.0024001,,,,,,,,,,,,,,,,,,,,,,,,,,,,,,,,,,,,,,,,,,,,,,,,,,,,,,,,,,,,,,,,,,,,,,,,,,,,,,,,,,"[8,3,4,2,1,6,7,9]",0,0,0,0,1,,,,,,,,,,,,,,,,,,,,,,,,,,,,,,,,,,,,,,,,,,,,,,,,
,,62c396eed1893e06fdad4574,2022-09-08_14h19.12.377,CGTgamblingSpanTasks,2022.2.1,MacIntel,60.0024001,,,,,,,,,,,,,,,,,,,,,,,,,,,,,,,,,,,,,,,,,,,,,,,,,,,,,,,,,,,,,,,,,,,,,,,,,,,,,,,,,,"[8,3,4,2,1,6,7,9]",1,0,1,0,1,,,,,,,,,,,,,,,,,,,,,,,,,,,,,,,,,,,,,,,,,,,,,,,,
,,62c396eed1893e06fdad4574,2022-09-08_14h19.12.377,CGTgamblingSpanTasks,2022.2.1,MacIntel,60.0024001,,,,,,,,,,,,,,,,,,,,,,,,,,,,,,,,,,,,,,,,,,,,,,,,,,,,,,,,,,,,,,,,,,,,,,,,,,,,,,,,,,"[8,3,4,2,1,6,7,9]",2,0,2,0,1,,,,,,,,,,,,,,,,,,,,,,,,,,,,,,,,,,,,,,,,,,,,,,,,
,,62c396eed1893e06fdad4574,2022-09-08_14h19.12.377,CGTgamblingSpanTasks,2022.2.1,MacIntel,60.0024001,,,,,,,,,,,,,,,,,,,,,,,,,,,,,,,,,,,,,,,,,,,,,,,,,,,,,,,,,,,,,,,,,,,,,,,,,,,,,,,,,,"[8,3,4,2,1,6,7,9]",3,0,3,0,1,,,,,,,,,,,,,,,,,,,,,,,,,,,,,,,,,,,,,,,,,,,,,,,,
,,62c396eed1893e06fdad4574,2022-09-08_14h19.12.377,CGTgamblingSpanTasks,2022.2.1,MacIntel,60.0024001,,,,,,,,,,,,,,,,,,,,,,,,,,,,,,,,,,,,,,,,,,,,,,,,,,,,,,,,,,,,,,,,,,,,,,,,,,,,,,,,,,"[8,3,4,2,1,6,7,9]",4,0,4,0,1,,,,,,,,,,,,,,,,,,,,,,,,,,,,,,,,,,,,,,,,,,,,,,,,
,,62c396eed1893e06fdad4574,2022-09-08_14h19.12.377,CGTgamblingSpanTasks,2022.2.1,MacIntel,60.0024001,,,,,,,,,,,,,,,,,,,,,,,,,,,,,,,,,,,,,,,,,,,,,,,,,,,,,,,,,,,,,,,,,,,,,,,,,,,,,,,,,,"[8,3,4,2,1,6,7,9]",5,0,5,0,1,,,,,,,,,,,,,,,,,,,,,,,,,,,,,,,,,,,,,,,,,,,,,,,,
,,62c396eed1893e06fdad4574,2022-09-08_14h19.12.377,CGTgamblingSpanTasks,2022.2.1,MacIntel,60.0024001,,,,,,,,,,,,,,,,,,,,,,,,,,,,,,,,,,,,,,,,,,,,,,,,,,,,,,,,,,,,,,,,,,,,,,,,,,,,,,,,,,"[8,3,4,2,1,6,7,9]",6,0,6,0,1,,,,,,,,,,,,,,,,,,,,,,,,,,,,,,,,,,,,,,,,,,,,,,,,
,,62c396eed1893e06fdad4574,2022-09-08_14h19.12.377,CGTgamblingSpanTasks,2022.2.1,MacIntel,60.0024001,,,,,,,,,,,,,,,,,,,,,,,,,,,,,,,,,,,,,,,,,,,,,,,,,,,,,,,,,,,,,,,,,,,,,,,,,,,,,,,,,,"[8,3,4,2,1,6,7,9]",7,0,7,0,1,,,,,,,,,,,,,,,,,,,,,,,,,,,,,,,,,,,,,,,,,,,,,,,,
,,62c396eed1893e06fdad4574,2022-09-08_14h19.12.377,CGTgamblingSpanTasks,2022.2.1,MacIntel,60.0024001,,,,,,,,,,,,,,,,,,,,,,,,,,,,,,,,,,,,,,,,,,,,,,,,,,,,,,,,,,,,,,,1,,,,,,,,,,,,,,,,,,,,,,,,,83421679,-0.054125826,-0.388516601,1,0,0,cont_button,0,6,6,6,1,7,,,,,,,,,,,,,,,,,,,,,,,,,,,,,,,,,,,
,,62c396eed1893e06fdad4574,2022-09-08_14h19.12.377,CGTgamblingSpanTasks,2022.2.1,MacIntel,60.0024001,,,,,,,,,,,,,,,,,,,,,,,,,,,,,,,,,,,,,,,,,,,,,,,,,,,,,,,,,,,,,,,,,,,,,,,,,,,,,,,,,,"[2,6,3,1,4,7,9,8,5]",0,0,0,0,1,,,,,,,,,,,,,,,,,,,,,,,,,,,,,,,,,,,,,,,,,,,,,,,,
,,62c396eed1893e06fdad4574,2022-09-08_14h19.12.377,CGTgamblingSpanTasks,2022.2.1,MacIntel,60.0024001,,,,,,,,,,,,,,,,,,,,,,,,,,,,,,,,,,,,,,,,,,,,,,,,,,,,,,,,,,,,,,,,,,,,,,,,,,,,,,,,,,"[2,6,3,1,4,7,9,8,5]",1,0,1,0,1,,,,,,,,,,,,,,,,,,,,,,,,,,,,,,,,,,,,,,,,,,,,,,,,
,,62c396eed1893e06fdad4574,2022-09-08_14h19.12.377,CGTgamblingSpanTasks,2022.2.1,MacIntel,60.0024001,,,,,,,,,,,,,,,,,,,,,,,,,,,,,,,,,,,,,,,,,,,,,,,,,,,,,,,,,,,,,,,,,,,,,,,,,,,,,,,,,,"[2,6,3,1,4,7,9,8,5]",2,0,2,0,1,,,,,,,,,,,,,,,,,,,,,,,,,,,,,,,,,,,,,,,,,,,,,,,,
,,62c396eed1893e06fdad4574,2022-09-08_14h19.12.377,CGTgamblingSpanTasks,2022.2.1,MacIntel,60.0024001,,,,,,,,,,,,,,,,,,,,,,,,,,,,,,,,,,,,,,,,,,,,,,,,,,,,,,,,,,,,,,,,,,,,,,,,,,,,,,,,,,"[2,6,3,1,4,7,9,8,5]",3,0,3,0,1,,,,,,,,,,,,,,,,,,,,,,,,,,,,,,,,,,,,,,,,,,,,,,,,
,,62c396eed1893e06fdad4574,2022-09-08_14h19.12.377,CGTgamblingSpanTasks,2022.2.1,MacIntel,60.0024001,,,,,,,,,,,,,,,,,,,,,,,,,,,,,,,,,,,,,,,,,,,,,,,,,,,,,,,,,,,,,,,,,,,,,,,,,,,,,,,,,,"[2,6,3,1,4,7,9,8,5]",4,0,4,0,1,,,,,,,,,,,,,,,,,,,,,,,,,,,,,,,,,,,,,,,,,,,,,,,,
,,62c396eed1893e06fdad4574,2022-09-08_14h19.12.377,CGTgamblingSpanTasks,2022.2.1,MacIntel,60.0024001,,,,,,,,,,,,,,,,,,,,,,,,,,,,,,,,,,,,,,,,,,,,,,,,,,,,,,,,,,,,,,,,,,,,,,,,,,,,,,,,,,"[2,6,3,1,4,7,9,8,5]",5,0,5,0,1,,,,,,,,,,,,,,,,,,,,,,,,,,,,,,,,,,,,,,,,,,,,,,,,
,,62c396eed1893e06fdad4574,2022-09-08_14h19.12.377,CGTgamblingSpanTasks,2022.2.1,MacIntel,60.0024001,,,,,,,,,,,,,,,,,,,,,,,,,,,,,,,,,,,,,,,,,,,,,,,,,,,,,,,,,,,,,,,,,,,,,,,,,,,,,,,,,,"[2,6,3,1,4,7,9,8,5]",6,0,6,0,1,,,,,,,,,,,,,,,,,,,,,,,,,,,,,,,,,,,,,,,,,,,,,,,,
,,62c396eed1893e06fdad4574,2022-09-08_14h19.12.377,CGTgamblingSpanTasks,2022.2.1,MacIntel,60.0024001,,,,,,,,,,,,,,,,,,,,,,,,,,,,,,,,,,,,,,,,,,,,,,,,,,,,,,,,,,,,,,,,,,,,,,,,,,,,,,,,,,"[2,6,3,1,4,7,9,8,5]",7,0,7,0,1,,,,,,,,,,,,,,,,,,,,,,,,,,,,,,,,,,,,,,,,,,,,,,,,
,,62c396eed1893e06fdad4574,2022-09-08_14h19.12.377,CGTgamblingSpanTasks,2022.2.1,MacIntel,60.0024001,,,,,,,,,,,,,,,,,,,,,,,,,,,,,,,,,,,,,,,,,,,,,,,,,,,,,,,,,,,,,,,,,,,,,,,,,,,,,,,,,,"[2,6,3,1,4,7,9,8,5]",8,0,8,0,1,,,,,,,,,,,,,,,,,,,,,,,,,,,,,,,,,,,,,,,,,,,,,,,,
,,62c396eed1893e06fdad4574,2022-09-08_14h19.12.377,CGTgamblingSpanTasks,2022.2.1,MacIntel,60.0024001,,,,,,,,,,,,,,,,,,,,,,,,,,,,,,,,,,,,,,,,,,,,,,,,,,,,,,,,,,,,,,,0,,,,,,,,,,,,,,,,,,,,,,,,,263241798,-0.054125826,-0.388516601,1,0,0,cont_button,0,7,7,7,1,8,,,,,,,,,,,,,,,,,,,,,,,,,,,,,,,,,,,
,,62c396eed1893e06fdad4574,2022-09-08_14h19.12.377,CGTgamblingSpanTasks,2022.2.1,MacIntel,60.0024001,,,,,,,,,,,,,,,,,,,,,,,,,,,,,,,,,,,,,,,,,,,,,,,,,,,,,,,,,,,,,,,,,,,,,,,,,,,,,,,,,,"[7,5,6,1,3,2,8,4,9]",0,0,0,0,1,,,,,,,,,,,,,,,,,,,,,,,,,,,,,,,,,,,,,,,,,,,,,,,,
,,62c396eed1893e06fdad4574,2022-09-08_14h19.12.377,CGTgamblingSpanTasks,2022.2.1,MacIntel,60.0024001,,,,,,,,,,,,,,,,,,,,,,,,,,,,,,,,,,,,,,,,,,,,,,,,,,,,,,,,,,,,,,,,,,,,,,,,,,,,,,,,,,"[7,5,6,1,3,2,8,4,9]",1,0,1,0,1,,,,,,,,,,,,,,,,,,,,,,,,,,,,,,,,,,,,,,,,,,,,,,,,
,,62c396eed1893e06fdad4574,2022-09-08_14h19.12.377,CGTgamblingSpanTasks,2022.2.1,MacIntel,60.0024001,,,,,,,,,,,,,,,,,,,,,,,,,,,,,,,,,,,,,,,,,,,,,,,,,,,,,,,,,,,,,,,,,,,,,,,,,,,,,,,,,,"[7,5,6,1,3,2,8,4,9]",2,0,2,0,1,,,,,,,,,,,,,,,,,,,,,,,,,,,,,,,,,,,,,,,,,,,,,,,,
,,62c396eed1893e06fdad4574,2022-09-08_14h19.12.377,CGTgamblingSpanTasks,2022.2.1,MacIntel,60.0024001,,,,,,,,,,,,,,,,,,,,,,,,,,,,,,,,,,,,,,,,,,,,,,,,,,,,,,,,,,,,,,,,,,,,,,,,,,,,,,,,,,"[7,5,6,1,3,2,8,4,9]",3,0,3,0,1,,,,,,,,,,,,,,,,,,,,,,,,,,,,,,,,,,,,,,,,,,,,,,,,
,,62c396eed1893e06fdad4574,2022-09-08_14h19.12.377,CGTgamblingSpanTasks,2022.2.1,MacIntel,60.0024001,,,,,,,,,,,,,,,,,,,,,,,,,,,,,,,,,,,,,,,,,,,,,,,,,,,,,,,,,,,,,,,,,,,,,,,,,,,,,,,,,,"[7,5,6,1,3,2,8,4,9]",4,0,4,0,1,,,,,,,,,,,,,,,,,,,,,,,,,,,,,,,,,,,,,,,,,,,,,,,,
,,62c396eed1893e06fdad4574,2022-09-08_14h19.12.377,CGTgamblingSpanTasks,2022.2.1,MacIntel,60.0024001,,,,,,,,,,,,,,,,,,,,,,,,,,,,,,,,,,,,,,,,,,,,,,,,,,,,,,,,,,,,,,,,,,,,,,,,,,,,,,,,,,"[7,5,6,1,3,2,8,4,9]",5,0,5,0,1,,,,,,,,,,,,,,,,,,,,,,,,,,,,,,,,,,,,,,,,,,,,,,,,
,,62c396eed1893e06fdad4574,2022-09-08_14h19.12.377,CGTgamblingSpanTasks,2022.2.1,MacIntel,60.0024001,,,,,,,,,,,,,,,,,,,,,,,,,,,,,,,,,,,,,,,,,,,,,,,,,,,,,,,,,,,,,,,,,,,,,,,,,,,,,,,,,,"[7,5,6,1,3,2,8,4,9]",6,0,6,0,1,,,,,,,,,,,,,,,,,,,,,,,,,,,,,,,,,,,,,,,,,,,,,,,,
,,62c396eed1893e06fdad4574,2022-09-08_14h19.12.377,CGTgamblingSpanTasks,2022.2.1,MacIntel,60.0024001,,,,,,,,,,,,,,,,,,,,,,,,,,,,,,,,,,,,,,,,,,,,,,,,,,,,,,,,,,,,,,,,,,,,,,,,,,,,,,,,,,"[7,5,6,1,3,2,8,4,9]",7,0,7,0,1,,,,,,,,,,,,,,,,,,,,,,,,,,,,,,,,,,,,,,,,,,,,,,,,
,,62c396eed1893e06fdad4574,2022-09-08_14h19.12.377,CGTgamblingSpanTasks,2022.2.1,MacIntel,60.0024001,,,,,,,,,,,,,,,,,,,,,,,,,,,,,,,,,,,,,,,,,,,,,,,,,,,,,,,,,,,,,,,,,,,,,,,,,,,,,,,,,,"[7,5,6,1,3,2,8,4,9]",8,0,8,0,1,,,,,,,,,,,,,,,,,,,,,,,,,,,,,,,,,,,,,,,,,,,,,,,,
,,62c396eed1893e06fdad4574,2022-09-08_14h19.12.377,CGTgamblingSpanTasks,2022.2.1,MacIntel,60.0024001,,,,,,,,,,,,,,,,,,,,,,,,,,,,,,,,,,,,,,,,,,,,,,,,,,,,,,,,,,,,,,,0,,,,,,,,,,,,,,,,,,,,,,,,,65321748,-0.054125826,-0.388516601,1,0,0,cont_button,0,8,8,8,1,9,,,,,,,,,,,,,,,,,,,,,,,,,,,,,,,,,,,
,,62c396eed1893e06fdad4574,2022-09-08_14h19.12.377,CGTgamblingSpanTasks,2022.2.1,MacIntel,60.0024001,,,,,,,,,,,,,,,,,,,,,,,,,,,,,,,,,,,,,,,,,,,,,,,,,,,,,,,,,,,,,,,,,,,,,,,,,,,,,,,,,,"[4,3,5,7,6,1,8,9]",0,0,0,0,1,,,,,,,,,,,,,,,,,,,,,,,,,,,,,,,,,,,,,,,,,,,,,,,,
,,62c396eed1893e06fdad4574,2022-09-08_14h19.12.377,CGTgamblingSpanTasks,2022.2.1,MacIntel,60.0024001,,,,,,,,,,,,,,,,,,,,,,,,,,,,,,,,,,,,,,,,,,,,,,,,,,,,,,,,,,,,,,,,,,,,,,,,,,,,,,,,,,"[4,3,5,7,6,1,8,9]",1,0,1,0,1,,,,,,,,,,,,,,,,,,,,,,,,,,,,,,,,,,,,,,,,,,,,,,,,
,,62c396eed1893e06fdad4574,2022-09-08_14h19.12.377,CGTgamblingSpanTasks,2022.2.1,MacIntel,60.0024001,,,,,,,,,,,,,,,,,,,,,,,,,,,,,,,,,,,,,,,,,,,,,,,,,,,,,,,,,,,,,,,,,,,,,,,,,,,,,,,,,,"[4,3,5,7,6,1,8,9]",2,0,2,0,1,,,,,,,,,,,,,,,,,,,,,,,,,,,,,,,,,,,,,,,,,,,,,,,,
,,62c396eed1893e06fdad4574,2022-09-08_14h19.12.377,CGTgamblingSpanTasks,2022.2.1,MacIntel,60.0024001,,,,,,,,,,,,,,,,,,,,,,,,,,,,,,,,,,,,,,,,,,,,,,,,,,,,,,,,,,,,,,,,,,,,,,,,,,,,,,,,,,"[4,3,5,7,6,1,8,9]",3,0,3,0,1,,,,,,,,,,,,,,,,,,,,,,,,,,,,,,,,,,,,,,,,,,,,,,,,
,,62c396eed1893e06fdad4574,2022-09-08_14h19.12.377,CGTgamblingSpanTasks,2022.2.1,MacIntel,60.0024001,,,,,,,,,,,,,,,,,,,,,,,,,,,,,,,,,,,,,,,,,,,,,,,,,,,,,,,,,,,,,,,,,,,,,,,,,,,,,,,,,,"[4,3,5,7,6,1,8,9]",4,0,4,0,1,,,,,,,,,,,,,,,,,,,,,,,,,,,,,,,,,,,,,,,,,,,,,,,,
,,62c396eed1893e06fdad4574,2022-09-08_14h19.12.377,CGTgamblingSpanTasks,2022.2.1,MacIntel,60.0024001,,,,,,,,,,,,,,,,,,,,,,,,,,,,,,,,,,,,,,,,,,,,,,,,,,,,,,,,,,,,,,,,,,,,,,,,,,,,,,,,,,"[4,3,5,7,6,1,8,9]",5,0,5,0,1,,,,,,,,,,,,,,,,,,,,,,,,,,,,,,,,,,,,,,,,,,,,,,,,
,,62c396eed1893e06fdad4574,2022-09-08_14h19.12.377,CGTgamblingSpanTasks,2022.2.1,MacIntel,60.0024001,,,,,,,,,,,,,,,,,,,,,,,,,,,,,,,,,,,,,,,,,,,,,,,,,,,,,,,,,,,,,,,,,,,,,,,,,,,,,,,,,,"[4,3,5,7,6,1,8,9]",6,0,6,0,1,,,,,,,,,,,,,,,,,,,,,,,,,,,,,,,,,,,,,,,,,,,,,,,,
,,62c396eed1893e06fdad4574,2022-09-08_14h19.12.377,CGTgamblingSpanTasks,2022.2.1,MacIntel,60.0024001,,,,,,,,,,,,,,,,,,,,,,,,,,,,,,,,,,,,,,,,,,,,,,,,,,,,,,,,,,,,,,,,,,,,,,,,,,,,,,,,,,"[4,3,5,7,6,1,8,9]",7,0,7,0,1,,,,,,,,,,,,,,,,,,,,,,,,,,,,,,,,,,,,,,,,,,,,,,,,
,,62c396eed1893e06fdad4574,2022-09-08_14h19.12.377,CGTgamblingSpanTasks,2022.2.1,MacIntel,60.0024001,,,,,,,,,,,,,,,,,,,,,,,,,,,,,,,,,,,,,,,,,,,,,,,,,,,,,,,,,,,,,,,0,,,,,,,,,,,,,,,,,,,,,,,,,47531689,-0.054125826,-0.388516601,1,0,0,cont_button,0,9,9,9,1,10,,,,,,,,,,,,,,,,,,,,,,,,,,,,,,,,,,,
,,62c396eed1893e06fdad4574,2022-09-08_14h19.12.377,CGTgamblingSpanTasks,2022.2.1,MacIntel,60.0024001,,,,,,,,,,,,,,,,,,,,,,,,,,,,,,,,,,,,,,,,,,,,,,,,,,,,,,,,,,,,,,,,,,,,,,,,,,,,,,,,,,"[8,6,2,7,3,9,5,1]",0,0,0,0,1,,,,,,,,,,,,,,,,,,,,,,,,,,,,,,,,,,,,,,,,,,,,,,,,
,,62c396eed1893e06fdad4574,2022-09-08_14h19.12.377,CGTgamblingSpanTasks,2022.2.1,MacIntel,60.0024001,,,,,,,,,,,,,,,,,,,,,,,,,,,,,,,,,,,,,,,,,,,,,,,,,,,,,,,,,,,,,,,,,,,,,,,,,,,,,,,,,,"[8,6,2,7,3,9,5,1]",1,0,1,0,1,,,,,,,,,,,,,,,,,,,,,,,,,,,,,,,,,,,,,,,,,,,,,,,,
,,62c396eed1893e06fdad4574,2022-09-08_14h19.12.377,CGTgamblingSpanTasks,2022.2.1,MacIntel,60.0024001,,,,,,,,,,,,,,,,,,,,,,,,,,,,,,,,,,,,,,,,,,,,,,,,,,,,,,,,,,,,,,,,,,,,,,,,,,,,,,,,,,"[8,6,2,7,3,9,5,1]",2,0,2,0,1,,,,,,,,,,,,,,,,,,,,,,,,,,,,,,,,,,,,,,,,,,,,,,,,
,,62c396eed1893e06fdad4574,2022-09-08_14h19.12.377,CGTgamblingSpanTasks,2022.2.1,MacIntel,60.0024001,,,,,,,,,,,,,,,,,,,,,,,,,,,,,,,,,,,,,,,,,,,,,,,,,,,,,,,,,,,,,,,,,,,,,,,,,,,,,,,,,,"[8,6,2,7,3,9,5,1]",3,0,3,0,1,,,,,,,,,,,,,,,,,,,,,,,,,,,,,,,,,,,,,,,,,,,,,,,,
,,62c396eed1893e06fdad4574,2022-09-08_14h19.12.377,CGTgamblingSpanTasks,2022.2.1,MacIntel,60.0024001,,,,,,,,,,,,,,,,,,,,,,,,,,,,,,,,,,,,,,,,,,,,,,,,,,,,,,,,,,,,,,,,,,,,,,,,,,,,,,,,,,"[8,6,2,7,3,9,5,1]",4,0,4,0,1,,,,,,,,,,,,,,,,,,,,,,,,,,,,,,,,,,,,,,,,,,,,,,,,
,,62c396eed1893e06fdad4574,2022-09-08_14h19.12.377,CGTgamblingSpanTasks,2022.2.1,MacIntel,60.0024001,,,,,,,,,,,,,,,,,,,,,,,,,,,,,,,,,,,,,,,,,,,,,,,,,,,,,,,,,,,,,,,,,,,,,,,,,,,,,,,,,,"[8,6,2,7,3,9,5,1]",5,0,5,0,1,,,,,,,,,,,,,,,,,,,,,,,,,,,,,,,,,,,,,,,,,,,,,,,,
,,62c396eed1893e06fdad4574,2022-09-08_14h19.12.377,CGTgamblingSpanTasks,2022.2.1,MacIntel,60.0024001,,,,,,,,,,,,,,,,,,,,,,,,,,,,,,,,,,,,,,,,,,,,,,,,,,,,,,,,,,,,,,,,,,,,,,,,,,,,,,,,,,"[8,6,2,7,3,9,5,1]",6,0,6,0,1,,,,,,,,,,,,,,,,,,,,,,,,,,,,,,,,,,,,,,,,,,,,,,,,
,,62c396eed1893e06fdad4574,2022-09-08_14h19.12.377,CGTgamblingSpanTasks,2022.2.1,MacIntel,60.0024001,,,,,,,,,,,,,,,,,,,,,,,,,,,,,,,,,,,,,,,,,,,,,,,,,,,,,,,,,,,,,,,,,,,,,,,,,,,,,,,,,,"[8,6,2,7,3,9,5,1]",7,0,7,0,1,,,,,,,,,,,,,,,,,,,,,,,,,,,,,,,,,,,,,,,,,,,,,,,,
,,62c396eed1893e06fdad4574,2022-09-08_14h19.12.377,CGTgamblingSpanTasks,2022.2.1,MacIntel,60.0024001,,,,,,,,,,,,,,,,,,,,,,,,,,,,,,,,,,,,,,,,,,,,,,,,,,,,,,,,,,,,,,,0,,,,,,,,,,,,,,,,,,,,,,,,,867239518,-0.054317636,-0.388516601,1,0,0,cont_button,0,10,10,10,1,11,,,,,,,,,,,,,,,,,,,,,,,,,,,,,,,,,,,
,,62c396eed1893e06fdad4574,2022-09-08_14h19.12.377,CGTgamblingSpanTasks,2022.2.1,MacIntel,60.0024001,,,,,,,,,,,,,,,,,,,,,,,,,,,,,,,,,,,,,,,,,,,,,,,,,,,,,,,,,,,,,,,,,,,,,,,,,,,,,,,,,,"[6,8,5,7,9,2,4]",0,0,0,0,1,,,,,,,,,,,,,,,,,,,,,,,,,,,,,,,,,,,,,,,,,,,,,,,,
,,62c396eed1893e06fdad4574,2022-09-08_14h19.12.377,CGTgamblingSpanTasks,2022.2.1,MacIntel,60.0024001,,,,,,,,,,,,,,,,,,,,,,,,,,,,,,,,,,,,,,,,,,,,,,,,,,,,,,,,,,,,,,,,,,,,,,,,,,,,,,,,,,"[6,8,5,7,9,2,4]",1,0,1,0,1,,,,,,,,,,,,,,,,,,,,,,,,,,,,,,,,,,,,,,,,,,,,,,,,
,,62c396eed1893e06fdad4574,2022-09-08_14h19.12.377,CGTgamblingSpanTasks,2022.2.1,MacIntel,60.0024001,,,,,,,,,,,,,,,,,,,,,,,,,,,,,,,,,,,,,,,,,,,,,,,,,,,,,,,,,,,,,,,,,,,,,,,,,,,,,,,,,,"[6,8,5,7,9,2,4]",2,0,2,0,1,,,,,,,,,,,,,,,,,,,,,,,,,,,,,,,,,,,,,,,,,,,,,,,,
,,62c396eed1893e06fdad4574,2022-09-08_14h19.12.377,CGTgamblingSpanTasks,2022.2.1,MacIntel,60.0024001,,,,,,,,,,,,,,,,,,,,,,,,,,,,,,,,,,,,,,,,,,,,,,,,,,,,,,,,,,,,,,,,,,,,,,,,,,,,,,,,,,"[6,8,5,7,9,2,4]",3,0,3,0,1,,,,,,,,,,,,,,,,,,,,,,,,,,,,,,,,,,,,,,,,,,,,,,,,
,,62c396eed1893e06fdad4574,2022-09-08_14h19.12.377,CGTgamblingSpanTasks,2022.2.1,MacIntel,60.0024001,,,,,,,,,,,,,,,,,,,,,,,,,,,,,,,,,,,,,,,,,,,,,,,,,,,,,,,,,,,,,,,,,,,,,,,,,,,,,,,,,,"[6,8,5,7,9,2,4]",4,0,4,0,1,,,,,,,,,,,,,,,,,,,,,,,,,,,,,,,,,,,,,,,,,,,,,,,,
,,62c396eed1893e06fdad4574,2022-09-08_14h19.12.377,CGTgamblingSpanTasks,2022.2.1,MacIntel,60.0024001,,,,,,,,,,,,,,,,,,,,,,,,,,,,,,,,,,,,,,,,,,,,,,,,,,,,,,,,,,,,,,,,,,,,,,,,,,,,,,,,,,"[6,8,5,7,9,2,4]",5,0,5,0,1,,,,,,,,,,,,,,,,,,,,,,,,,,,,,,,,,,,,,,,,,,,,,,,,
,,62c396eed1893e06fdad4574,2022-09-08_14h19.12.377,CGTgamblingSpanTasks,2022.2.1,MacIntel,60.0024001,,,,,,,,,,,,,,,,,,,,,,,,,,,,,,,,,,,,,,,,,,,,,,,,,,,,,,,,,,,,,,,,,,,,,,,,,,,,,,,,,,"[6,8,5,7,9,2,4]",6,0,6,0,1,,,,,,,,,,,,,,,,,,,,,,,,,,,,,,,,,,,,,,,,,,,,,,,,
,,62c396eed1893e06fdad4574,2022-09-08_14h19.12.377,CGTgamblingSpanTasks,2022.2.1,MacIntel,60.0024001,,,,,,,,,,,,,,,,,,,,,,,,,,,,,,,,,,,,,,,,,,,,,,,,,,,,,,,,,,,,,,,1,,,,,,,,,,,,,,,,,,,,,,,,,6857924,-0.055872205,-0.388516601,1,0,0,cont_button,0,11,11,11,1,12,,,,,,,,,,,,,,,,,,,,,,,,,,,,,,,,,,,
,,62c396eed1893e06fdad4574,2022-09-08_14h19.12.377,CGTgamblingSpanTasks,2022.2.1,MacIntel,60.0024001,,,,,,,,,,,,,,,,,,,,,,,,,,,,,,,,,,,,,,,,,,,,,,,,,,,,,,,,,,,,,,,,,,,,,,,,,,,,,,,,,,"[2,5,7,8,4,9,3,1]",0,0,0,0,1,,,,,,,,,,,,,,,,,,,,,,,,,,,,,,,,,,,,,,,,,,,,,,,,
,,62c396eed1893e06fdad4574,2022-09-08_14h19.12.377,CGTgamblingSpanTasks,2022.2.1,MacIntel,60.0024001,,,,,,,,,,,,,,,,,,,,,,,,,,,,,,,,,,,,,,,,,,,,,,,,,,,,,,,,,,,,,,,,,,,,,,,,,,,,,,,,,,"[2,5,7,8,4,9,3,1]",1,0,1,0,1,,,,,,,,,,,,,,,,,,,,,,,,,,,,,,,,,,,,,,,,,,,,,,,,
,,62c396eed1893e06fdad4574,2022-09-08_14h19.12.377,CGTgamblingSpanTasks,2022.2.1,MacIntel,60.0024001,,,,,,,,,,,,,,,,,,,,,,,,,,,,,,,,,,,,,,,,,,,,,,,,,,,,,,,,,,,,,,,,,,,,,,,,,,,,,,,,,,"[2,5,7,8,4,9,3,1]",2,0,2,0,1,,,,,,,,,,,,,,,,,,,,,,,,,,,,,,,,,,,,,,,,,,,,,,,,
,,62c396eed1893e06fdad4574,2022-09-08_14h19.12.377,CGTgamblingSpanTasks,2022.2.1,MacIntel,60.0024001,,,,,,,,,,,,,,,,,,,,,,,,,,,,,,,,,,,,,,,,,,,,,,,,,,,,,,,,,,,,,,,,,,,,,,,,,,,,,,,,,,"[2,5,7,8,4,9,3,1]",3,0,3,0,1,,,,,,,,,,,,,,,,,,,,,,,,,,,,,,,,,,,,,,,,,,,,,,,,
,,62c396eed1893e06fdad4574,2022-09-08_14h19.12.377,CGTgamblingSpanTasks,2022.2.1,MacIntel,60.0024001,,,,,,,,,,,,,,,,,,,,,,,,,,,,,,,,,,,,,,,,,,,,,,,,,,,,,,,,,,,,,,,,,,,,,,,,,,,,,,,,,,"[2,5,7,8,4,9,3,1]",4,0,4,0,1,,,,,,,,,,,,,,,,,,,,,,,,,,,,,,,,,,,,,,,,,,,,,,,,
,,62c396eed1893e06fdad4574,2022-09-08_14h19.12.377,CGTgamblingSpanTasks,2022.2.1,MacIntel,60.0024001,,,,,,,,,,,,,,,,,,,,,,,,,,,,,,,,,,,,,,,,,,,,,,,,,,,,,,,,,,,,,,,,,,,,,,,,,,,,,,,,,,"[2,5,7,8,4,9,3,1]",5,0,5,0,1,,,,,,,,,,,,,,,,,,,,,,,,,,,,,,,,,,,,,,,,,,,,,,,,
,,62c396eed1893e06fdad4574,2022-09-08_14h19.12.377,CGTgamblingSpanTasks,2022.2.1,MacIntel,60.0024001,,,,,,,,,,,,,,,,,,,,,,,,,,,,,,,,,,,,,,,,,,,,,,,,,,,,,,,,,,,,,,,,,,,,,,,,,,,,,,,,,,"[2,5,7,8,4,9,3,1]",6,0,6,0,1,,,,,,,,,,,,,,,,,,,,,,,,,,,,,,,,,,,,,,,,,,,,,,,,
,,62c396eed1893e06fdad4574,2022-09-08_14h19.12.377,CGTgamblingSpanTasks,2022.2.1,MacIntel,60.0024001,,,,,,,,,,,,,,,,,,,,,,,,,,,,,,,,,,,,,,,,,,,,,,,,,,,,,,,,,,,,,,,,,,,,,,,,,,,,,,,,,,"[2,5,7,8,4,9,3,1]",7,0,7,0,1,,,,,,,,,,,,,,,,,,,,,,,,,,,,,,,,,,,,,,,,,,,,,,,,
,,62c396eed1893e06fdad4574,2022-09-08_14h19.12.377,CGTgamblingSpanTasks,2022.2.1,MacIntel,60.0024001,,,,,,,,,,,,,,,,,,,,,,,,,,,,,,,,,,,,,,,,,,,,,,,,,,,,,,,,,,,,,,,0,,,,,,,,,,,,,,,,,,,,,,,,,28794531,-0.01624239,-0.402941959,1,0,0,cont_button,0,12,12,12,1,13,,,,,,,,,,,,,,,,,,,,,,,,,,,,,,,,,,,
,,62c396eed1893e06fdad4574,2022-09-08_14h19.12.377,CGTgamblingSpanTasks,2022.2.1,MacIntel,60.0024001,,,,,,,,,,,,,,,,,,,,,,,,,,,,,,,,,,,,,,,,,,,,,,,,,,,,,,,,,,,,,,,,,,,,,,,,,,,,,,,,,,"[4,7,8,1,3,5,6,9]",0,0,0,0,1,,,,,,,,,,,,,,,,,,,,,,,,,,,,,,,,,,,,,,,,,,,,,,,,
,,62c396eed1893e06fdad4574,2022-09-08_14h19.12.377,CGTgamblingSpanTasks,2022.2.1,MacIntel,60.0024001,,,,,,,,,,,,,,,,,,,,,,,,,,,,,,,,,,,,,,,,,,,,,,,,,,,,,,,,,,,,,,,,,,,,,,,,,,,,,,,,,,"[4,7,8,1,3,5,6,9]",1,0,1,0,1,,,,,,,,,,,,,,,,,,,,,,,,,,,,,,,,,,,,,,,,,,,,,,,,
,,62c396eed1893e06fdad4574,2022-09-08_14h19.12.377,CGTgamblingSpanTasks,2022.2.1,MacIntel,60.0024001,,,,,,,,,,,,,,,,,,,,,,,,,,,,,,,,,,,,,,,,,,,,,,,,,,,,,,,,,,,,,,,,,,,,,,,,,,,,,,,,,,"[4,7,8,1,3,5,6,9]",2,0,2,0,1,,,,,,,,,,,,,,,,,,,,,,,,,,,,,,,,,,,,,,,,,,,,,,,,
,,62c396eed1893e06fdad4574,2022-09-08_14h19.12.377,CGTgamblingSpanTasks,2022.2.1,MacIntel,60.0024001,,,,,,,,,,,,,,,,,,,,,,,,,,,,,,,,,,,,,,,,,,,,,,,,,,,,,,,,,,,,,,,,,,,,,,,,,,,,,,,,,,"[4,7,8,1,3,5,6,9]",3,0,3,0,1,,,,,,,,,,,,,,,,,,,,,,,,,,,,,,,,,,,,,,,,,,,,,,,,
,,62c396eed1893e06fdad4574,2022-09-08_14h19.12.377,CGTgamblingSpanTasks,2022.2.1,MacIntel,60.0024001,,,,,,,,,,,,,,,,,,,,,,,,,,,,,,,,,,,,,,,,,,,,,,,,,,,,,,,,,,,,,,,,,,,,,,,,,,,,,,,,,,"[4,7,8,1,3,5,6,9]",4,0,4,0,1,,,,,,,,,,,,,,,,,,,,,,,,,,,,,,,,,,,,,,,,,,,,,,,,
,,62c396eed1893e06fdad4574,2022-09-08_14h19.12.377,CGTgamblingSpanTasks,2022.2.1,MacIntel,60.0024001,,,,,,,,,,,,,,,,,,,,,,,,,,,,,,,,,,,,,,,,,,,,,,,,,,,,,,,,,,,,,,,,,,,,,,,,,,,,,,,,,,"[4,7,8,1,3,5,6,9]",5,0,5,0,1,,,,,,,,,,,,,,,,,,,,,,,,,,,,,,,,,,,,,,,,,,,,,,,,
,,62c396eed1893e06fdad4574,2022-09-08_14h19.12.377,CGTgamblingSpanTasks,2022.2.1,MacIntel,60.0024001,,,,,,,,,,,,,,,,,,,,,,,,,,,,,,,,,,,,,,,,,,,,,,,,,,,,,,,,,,,,,,,,,,,,,,,,,,,,,,,,,,"[4,7,8,1,3,5,6,9]",6,0,6,0,1,,,,,,,,,,,,,,,,,,,,,,,,,,,,,,,,,,,,,,,,,,,,,,,,
,,62c396eed1893e06fdad4574,2022-09-08_14h19.12.377,CGTgamblingSpanTasks,2022.2.1,MacIntel,60.0024001,,,,,,,,,,,,,,,,,,,,,,,,,,,,,,,,,,,,,,,,,,,,,,,,,,,,,,,,,,,,,,,,,,,,,,,,,,,,,,,,,,"[4,7,8,1,3,5,6,9]",7,0,7,0,1,,,,,,,,,,,,,,,,,,,,,,,,,,,,,,,,,,,,,,,,,,,,,,,,
,,62c396eed1893e06fdad4574,2022-09-08_14h19.12.377,CGTgamblingSpanTasks,2022.2.1,MacIntel,60.0024001,,,,,,,,,,,,,,,,,,,,,,,,,,,,,,,,,,,,,,,,,,,,,,,,,,,,,,,,,,,,,,,0,,,,,,,,,,,,,,,,,,,,,,,,,48713568,-0.007449244,-0.390982991,1,0,0,cont_button,0,13,13,13,1,14,,,,,,,,,,,,,,,,,,,,,,,,,,,,,,,,,,,
,,62c396eed1893e06fdad4574,2022-09-08_14h19.12.377,CGTgamblingSpanTasks,2022.2.1,MacIntel,60.0024001,,,,,,,,,,,,,,,,,,,,,,,,,,,,,,,,,,,,,,,,,,,,,,,,,,,,,,,,,,,,,,,,,,,,,,,,,,,,,,,,,,,,,,,,,,,,,,,,,,,,,return,3.3813,,,,,,,,,,,,,,,,,,,,,,,,,,,,,,,,,
,,62c396eed1893e06fdad4574,2022-09-08_14h19.12.377,CGTgamblingSpanTasks,2022.2.1,MacIntel,60.0024001,,,,,,,,,,,,,,,,,,,,,,,,,,,,,,,,,,,,,,,,,,,,,,,,,,,,,,,,,,,,,,,,,,,,,,,,,,,,,,,,,,,,,,,,,,,,,,,,,,,,,,,return,78.2129,,,,,,,,,,,,,,,,,,,,,,,,,,,,,,,
,,62c396eed1893e06fdad4574,2022-09-08_14h19.12.377,CGTgamblingSpanTasks,2022.2.1,MacIntel,60.0024001,,,,,,,,,,,,,,,,,,,,,,,,,,,,,,,,,,,,,,,,,,,,,,,,,,,,,,,,,,,,,,,1,,,,,,,,,,,,3,342,24,2,42,,,,,,,,,,,,,,,,,,,,,,,,,,42,0.07717095,-0.409598659,1,0,0,cont_buttonPractice_2,0,0,0,0,1,,,,,,,,,,,,,,,,,,,
,,62c396eed1893e06fdad4574,2022-09-08_14h19.12.377,CGTgamblingSpanTasks,2022.2.1,MacIntel,60.0024001,,,,,,,,,,,,,,,,,,,,,,,,,,,,,,,,,,,,,,,,,,,,,,,,,,,,,,,,,,,,,,,1,,,,,,,,,,,,3,937,73,2,37,,,,,,,,,,,,,,,,,,,,,,,,,,37,0.07717095,-0.409598659,1,0,0,cont_buttonPractice_2,0,1,1,1,1,,,,,,,,,,,,,,,,,,,
,,62c396eed1893e06fdad4574,2022-09-08_14h19.12.377,CGTgamblingSpanTasks,2022.2.1,MacIntel,60.0024001,,,,,,,,,,,,,,,,,,,,,,,,,,,,,,,,,,,,,,,,,,,,,,,,,,,,,,,,,,,,,,,,,,,,,,,,,,,,,,,,,,,,,,,,,,,,,,,,,,,,,,,,,,,,,,,,,,,,,return,7.0135,,,,,,,,,,,,,,,,,
,,62c396eed1893e06fdad4574,2022-09-08_14h19.12.377,CGTgamblingSpanTasks,2022.2.1,MacIntel,60.0024001,,,,,,,,,,,,,,,,,,,,,,,,,,,,,,,,,,,,,,,,,,,,,,,,,,,,,,,,,,,,,,,,,,,,,,,,,,,,,,,,,,"[4,1]",,,,,,,,,,,,,,,,,,,,,,,,,,,,,,,,,,,,,0,0,0,0,1,,,,,,,,,,,,
,,62c396eed1893e06fdad4574,2022-09-08_14h19.12.377,CGTgamblingSpanTasks,2022.2.1,MacIntel,60.0024001,,,,,,,,,,,,,,,,,,,,,,,,,,,,,,,,,,,,,,,,,,,,,,,,,,,,,,,,,,,,,,,,,,,,,,,,,,,,,,,,,,"[4,1]",,,,,,,,,,,,,,,,,,,,,,,,,,,,,,,,,,,,,1,0,1,0,1,,,,,,,,,,,,
,,62c396eed1893e06fdad4574,2022-09-08_14h19.12.377,CGTgamblingSpanTasks,2022.2.1,MacIntel,60.0024001,,,,,,,,,,,,,,,,,,,,,,,,,,,,,,,,,,,,,,,,,,,,,,,,,,,,,,,,,,,,,,,1,,,,,,,,,,,,,,,,,,,,,,,,,,,,,,,,,,,,,1,,,,,,,,,,,,,,,,,,,,,,,,14,0.07717095,-0.409598659,1,0,0,cont_buttonBS,0,0,0,0,1
,,62c396eed1893e06fdad4574,2022-09-08_14h19.12.377,CGTgamblingSpanTasks,2022.2.1,MacIntel,60.0024001,,,,,,,,,,,,,,,,,,,,,,,,,,,,,,,,,,,,,,,,,,,,,,,,,,,,,,,,,,,,,,,,,,,,,,,,,,,,,,,,,,"[1,4,3]",,,,,,,,,,,,,,,,,,,,,,,,,,,,,,,,,,,,,0,0,0,0,1,,,,,,,,,,,,
,,62c396eed1893e06fdad4574,2022-09-08_14h19.12.377,CGTgamblingSpanTasks,2022.2.1,MacIntel,60.0024001,,,,,,,,,,,,,,,,,,,,,,,,,,,,,,,,,,,,,,,,,,,,,,,,,,,,,,,,,,,,,,,,,,,,,,,,,,,,,,,,,,"[1,4,3]",,,,,,,,,,,,,,,,,,,,,,,,,,,,,,,,,,,,,1,0,1,0,1,,,,,,,,,,,,
,,62c396eed1893e06fdad4574,2022-09-08_14h19.12.377,CGTgamblingSpanTasks,2022.2.1,MacIntel,60.0024001,,,,,,,,,,,,,,,,,,,,,,,,,,,,,,,,,,,,,,,,,,,,,,,,,,,,,,,,,,,,,,,,,,,,,,,,,,,,,,,,,,"[1,4,3]",,,,,,,,,,,,,,,,,,,,,,,,,,,,,,,,,,,,,2,0,2,0,1,,,,,,,,,,,,
,,62c396eed1893e06fdad4574,2022-09-08_14h19.12.377,CGTgamblingSpanTasks,2022.2.1,MacIntel,60.0024001,,,,,,,,,,,,,,,,,,,,,,,,,,,,,,,,,,,,,,,,,,,,,,,,,,,,,,,,,,,,,,,1,,,,,,,,,,,,,,,,,,,,,,,,,,,,,,,,,,,,,2,,,,,,,,,,,,,,,,,,,,,,,,341,0.074515759,-0.409598659,1,0,0,cont_buttonBS,0,1,1,1,1
,,62c396eed1893e06fdad4574,2022-09-08_14h19.12.377,CGTgamblingSpanTasks,2022.2.1,MacIntel,60.0024001,,,,,,,,,,,,,,,,,,,,,,,,,,,,,,,,,,,,,,,,,,,,,,,,,,,,,,,,,,,,,,,,,,,,,,,,,,,,,,,,,,"[3,7,9,1]",,,,,,,,,,,,,,,,,,,,,,,,,,,,,,,,,,,,,0,0,0,0,1,,,,,,,,,,,,
,,62c396eed1893e06fdad4574,2022-09-08_14h19.12.377,CGTgamblingSpanTasks,2022.2.1,MacIntel,60.0024001,,,,,,,,,,,,,,,,,,,,,,,,,,,,,,,,,,,,,,,,,,,,,,,,,,,,,,,,,,,,,,,,,,,,,,,,,,,,,,,,,,"[3,7,9,1]",,,,,,,,,,,,,,,,,,,,,,,,,,,,,,,,,,,,,1,0,1,0,1,,,,,,,,,,,,
,,62c396eed1893e06fdad4574,2022-09-08_14h19.12.377,CGTgamblingSpanTasks,2022.2.1,MacIntel,60.0024001,,,,,,,,,,,,,,,,,,,,,,,,,,,,,,,,,,,,,,,,,,,,,,,,,,,,,,,,,,,,,,,,,,,,,,,,,,,,,,,,,,"[3,7,9,1]",,,,,,,,,,,,,,,,,,,,,,,,,,,,,,,,,,,,,2,0,2,0,1,,,,,,,,,,,,
,,62c396eed1893e06fdad4574,2022-09-08_14h19.12.377,CGTgamblingSpanTasks,2022.2.1,MacIntel,60.0024001,,,,,,,,,,,,,,,,,,,,,,,,,,,,,,,,,,,,,,,,,,,,,,,,,,,,,,,,,,,,,,,,,,,,,,,,,,,,,,,,,,"[3,7,9,1]",,,,,,,,,,,,,,,,,,,,,,,,,,,,,,,,,,,,,3,0,3,0,1,,,,,,,,,,,,
,,62c396eed1893e06fdad4574,2022-09-08_14h19.12.377,CGTgamblingSpanTasks,2022.2.1,MacIntel,60.0024001,,,,,,,,,,,,,,,,,,,,,,,,,,,,,,,,,,,,,,,,,,,,,,,,,,,,,,,,,,,,,,,0,,,,,,,,,,,,,,,,,,,,,,,,,,,,,,,,,,,,,3,,,,,,,,,,,,,,,,,,,,,,,,193,0.064250086,-0.402720169,1,0,0,cont_buttonBS,0,2,2,2,1
,,62c396eed1893e06fdad4574,2022-09-08_14h19.12.377,CGTgamblingSpanTasks,2022.2.1,MacIntel,60.0024001,,,,,,,,,,,,,,,,,,,,,,,,,,,,,,,,,,,,,,,,,,,,,,,,,,,,,,,,,,,,,,,,,,,,,,,,,,,,,,,,,,"[8,9,5,6]",,,,,,,,,,,,,,,,,,,,,,,,,,,,,,,,,,,,,0,0,0,0,1,,,,,,,,,,,,
,,62c396eed1893e06fdad4574,2022-09-08_14h19.12.377,CGTgamblingSpanTasks,2022.2.1,MacIntel,60.0024001,,,,,,,,,,,,,,,,,,,,,,,,,,,,,,,,,,,,,,,,,,,,,,,,,,,,,,,,,,,,,,,,,,,,,,,,,,,,,,,,,,"[8,9,5,6]",,,,,,,,,,,,,,,,,,,,,,,,,,,,,,,,,,,,,1,0,1,0,1,,,,,,,,,,,,
,,62c396eed1893e06fdad4574,2022-09-08_14h19.12.377,CGTgamblingSpanTasks,2022.2.1,MacIntel,60.0024001,,,,,,,,,,,,,,,,,,,,,,,,,,,,,,,,,,,,,,,,,,,,,,,,,,,,,,,,,,,,,,,,,,,,,,,,,,,,,,,,,,"[8,9,5,6]",,,,,,,,,,,,,,,,,,,,,,,,,,,,,,,,,,,,,2,0,2,0,1,,,,,,,,,,,,
,,62c396eed1893e06fdad4574,2022-09-08_14h19.12.377,CGTgamblingSpanTasks,2022.2.1,MacIntel,60.0024001,,,,,,,,,,,,,,,,,,,,,,,,,,,,,,,,,,,,,,,,,,,,,,,,,,,,,,,,,,,,,,,,,,,,,,,,,,,,,,,,,,"[8,9,5,6]",,,,,,,,,,,,,,,,,,,,,,,,,,,,,,,,,,,,,3,0,3,0,1,,,,,,,,,,,,
,,62c396eed1893e06fdad4574,2022-09-08_14h19.12.377,CGTgamblingSpanTasks,2022.2.1,MacIntel,60.0024001,,,,,,,,,,,,,,,,,,,,,,,,,,,,,,,,,,,,,,,,,,,,,,,,,,,,,,,,,,,,,,,1,,,,,,,,,,,,,,,,,,,,,,,,,,,,,,,,,,,,,4,,,,,,,,,,,,,,,,,,,,,,,,6598,0.064250086,-0.402720169,1,0,0,cont_buttonBS,0,3,3,3,1
,,62c396eed1893e06fdad4574,2022-09-08_14h19.12.377,CGTgamblingSpanTasks,2022.2.1,MacIntel,60.0024001,,,,,,,,,,,,,,,,,,,,,,,,,,,,,,,,,,,,,,,,,,,,,,,,,,,,,,,,,,,,,,,,,,,,,,,,,,,,,,,,,,"[5,1,8,3,9]",,,,,,,,,,,,,,,,,,,,,,,,,,,,,,,,,,,,,0,0,0,0,1,,,,,,,,,,,,
,,62c396eed1893e06fdad4574,2022-09-08_14h19.12.377,CGTgamblingSpanTasks,2022.2.1,MacIntel,60.0024001,,,,,,,,,,,,,,,,,,,,,,,,,,,,,,,,,,,,,,,,,,,,,,,,,,,,,,,,,,,,,,,,,,,,,,,,,,,,,,,,,,"[5,1,8,3,9]",,,,,,,,,,,,,,,,,,,,,,,,,,,,,,,,,,,,,1,0,1,0,1,,,,,,,,,,,,
,,62c396eed1893e06fdad4574,2022-09-08_14h19.12.377,CGTgamblingSpanTasks,2022.2.1,MacIntel,60.0024001,,,,,,,,,,,,,,,,,,,,,,,,,,,,,,,,,,,,,,,,,,,,,,,,,,,,,,,,,,,,,,,,,,,,,,,,,,,,,,,,,,"[5,1,8,3,9]",,,,,,,,,,,,,,,,,,,,,,,,,,,,,,,,,,,,,2,0,2,0,1,,,,,,,,,,,,
,,62c396eed1893e06fdad4574,2022-09-08_14h19.12.377,CGTgamblingSpanTasks,2022.2.1,MacIntel,60.0024001,,,,,,,,,,,,,,,,,,,,,,,,,,,,,,,,,,,,,,,,,,,,,,,,,,,,,,,,,,,,,,,,,,,,,,,,,,,,,,,,,,"[5,1,8,3,9]",,,,,,,,,,,,,,,,,,,,,,,,,,,,,,,,,,,,,3,0,3,0,1,,,,,,,,,,,,
,,62c396eed1893e06fdad4574,2022-09-08_14h19.12.377,CGTgamblingSpanTasks,2022.2.1,MacIntel,60.0024001,,,,,,,,,,,,,,,,,,,,,,,,,,,,,,,,,,,,,,,,,,,,,,,,,,,,,,,,,,,,,,,,,,,,,,,,,,,,,,,,,,"[5,1,8,3,9]",,,,,,,,,,,,,,,,,,,,,,,,,,,,,,,,,,,,,4,0,4,0,1,,,,,,,,,,,,
,,62c396eed1893e06fdad4574,2022-09-08_14h19.12.377,CGTgamblingSpanTasks,2022.2.1,MacIntel,60.0024001,,,,,,,,,,,,,,,,,,,,,,,,,,,,,,,,,,,,,,,,,,,,,,,,,,,,,,,,,,,,,,,1,,,,,,,,,,,,,,,,,,,,,,,,,,,,,,,,,,,,,5,,,,,,,,,,,,,,,,,,,,,,,,93815,0.06390945,-0.402720169,1,0,0,cont_buttonBS,0,4,4,4,1
,,62c396eed1893e06fdad4574,2022-09-08_14h19.12.377,CGTgamblingSpanTasks,2022.2.1,MacIntel,60.0024001,,,,,,,,,,,,,,,,,,,,,,,,,,,,,,,,,,,,,,,,,,,,,,,,,,,,,,,,,,,,,,,,,,,,,,,,,,,,,,,,,,"[7,9,1,4,3,8]",,,,,,,,,,,,,,,,,,,,,,,,,,,,,,,,,,,,,0,0,0,0,1,,,,,,,,,,,,
,,62c396eed1893e06fdad4574,2022-09-08_14h19.12.377,CGTgamblingSpanTasks,2022.2.1,MacIntel,60.0024001,,,,,,,,,,,,,,,,,,,,,,,,,,,,,,,,,,,,,,,,,,,,,,,,,,,,,,,,,,,,,,,,,,,,,,,,,,,,,,,,,,"[7,9,1,4,3,8]",,,,,,,,,,,,,,,,,,,,,,,,,,,,,,,,,,,,,1,0,1,0,1,,,,,,,,,,,,
,,62c396eed1893e06fdad4574,2022-09-08_14h19.12.377,CGTgamblingSpanTasks,2022.2.1,MacIntel,60.0024001,,,,,,,,,,,,,,,,,,,,,,,,,,,,,,,,,,,,,,,,,,,,,,,,,,,,,,,,,,,,,,,,,,,,,,,,,,,,,,,,,,"[7,9,1,4,3,8]",,,,,,,,,,,,,,,,,,,,,,,,,,,,,,,,,,,,,2,0,2,0,1,,,,,,,,,,,,
,,62c396eed1893e06fdad4574,2022-09-08_14h19.12.377,CGTgamblingSpanTasks,2022.2.1,MacIntel,60.0024001,,,,,,,,,,,,,,,,,,,,,,,,,,,,,,,,,,,,,,,,,,,,,,,,,,,,,,,,,,,,,,,,,,,,,,,,,,,,,,,,,,"[7,9,1,4,3,8]",,,,,,,,,,,,,,,,,,,,,,,,,,,,,,,,,,,,,3,0,3,0,1,,,,,,,,,,,,
,,62c396eed1893e06fdad4574,2022-09-08_14h19.12.377,CGTgamblingSpanTasks,2022.2.1,MacIntel,60.0024001,,,,,,,,,,,,,,,,,,,,,,,,,,,,,,,,,,,,,,,,,,,,,,,,,,,,,,,,,,,,,,,,,,,,,,,,,,,,,,,,,,"[7,9,1,4,3,8]",,,,,,,,,,,,,,,,,,,,,,,,,,,,,,,,,,,,,4,0,4,0,1,,,,,,,,,,,,
,,62c396eed1893e06fdad4574,2022-09-08_14h19.12.377,CGTgamblingSpanTasks,2022.2.1,MacIntel,60.0024001,,,,,,,,,,,,,,,,,,,,,,,,,,,,,,,,,,,,,,,,,,,,,,,,,,,,,,,,,,,,,,,,,,,,,,,,,,,,,,,,,,"[7,9,1,4,3,8]",,,,,,,,,,,,,,,,,,,,,,,,,,,,,,,,,,,,,5,0,5,0,1,,,,,,,,,,,,
,,62c396eed1893e06fdad4574,2022-09-08_14h19.12.377,CGTgamblingSpanTasks,2022.2.1,MacIntel,60.0024001,,,,,,,,,,,,,,,,,,,,,,,,,,,,,,,,,,,,,,,,,,,,,,,,,,,,,,,,,,,,,,,0,,,,,,,,,,,,,,,,,,,,,,,,,,,,,,,,,,,,,6,,,,,,,,,,,,,,,,,,,,,,,,431978,0.062258761,-0.402720169,1,0,0,cont_buttonBS,0,5,5,5,1
,,62c396eed1893e06fdad4574,2022-09-08_14h19.12.377,CGTgamblingSpanTasks,2022.2.1,MacIntel,60.0024001,,,,,,,,,,,,,,,,,,,,,,,,,,,,,,,,,,,,,,,,,,,,,,,,,,,,,,,,,,,,,,,,,,,,,,,,,,,,,,,,,,"[8,5,2,7,1,9]",,,,,,,,,,,,,,,,,,,,,,,,,,,,,,,,,,,,,0,0,0,0,1,,,,,,,,,,,,
,,62c396eed1893e06fdad4574,2022-09-08_14h19.12.377,CGTgamblingSpanTasks,2022.2.1,MacIntel,60.0024001,,,,,,,,,,,,,,,,,,,,,,,,,,,,,,,,,,,,,,,,,,,,,,,,,,,,,,,,,,,,,,,,,,,,,,,,,,,,,,,,,,"[8,5,2,7,1,9]",,,,,,,,,,,,,,,,,,,,,,,,,,,,,,,,,,,,,1,0,1,0,1,,,,,,,,,,,,
,,62c396eed1893e06fdad4574,2022-09-08_14h19.12.377,CGTgamblingSpanTasks,2022.2.1,MacIntel,60.0024001,,,,,,,,,,,,,,,,,,,,,,,,,,,,,,,,,,,,,,,,,,,,,,,,,,,,,,,,,,,,,,,,,,,,,,,,,,,,,,,,,,"[8,5,2,7,1,9]",,,,,,,,,,,,,,,,,,,,,,,,,,,,,,,,,,,,,2,0,2,0,1,,,,,,,,,,,,
,,62c396eed1893e06fdad4574,2022-09-08_14h19.12.377,CGTgamblingSpanTasks,2022.2.1,MacIntel,60.0024001,,,,,,,,,,,,,,,,,,,,,,,,,,,,,,,,,,,,,,,,,,,,,,,,,,,,,,,,,,,,,,,,,,,,,,,,,,,,,,,,,,"[8,5,2,7,1,9]",,,,,,,,,,,,,,,,,,,,,,,,,,,,,,,,,,,,,3,0,3,0,1,,,,,,,,,,,,
,,62c396eed1893e06fdad4574,2022-09-08_14h19.12.377,CGTgamblingSpanTasks,2022.2.1,MacIntel,60.0024001,,,,,,,,,,,,,,,,,,,,,,,,,,,,,,,,,,,,,,,,,,,,,,,,,,,,,,,,,,,,,,,,,,,,,,,,,,,,,,,,,,"[8,5,2,7,1,9]",,,,,,,,,,,,,,,,,,,,,,,,,,,,,,,,,,,,,4,0,4,0,1,,,,,,,,,,,,
,,62c396eed1893e06fdad4574,2022-09-08_14h19.12.377,CGTgamblingSpanTasks,2022.2.1,MacIntel,60.0024001,,,,,,,,,,,,,,,,,,,,,,,,,,,,,,,,,,,,,,,,,,,,,,,,,,,,,,,,,,,,,,,,,,,,,,,,,,,,,,,,,,"[8,5,2,7,1,9]",,,,,,,,,,,,,,,,,,,,,,,,,,,,,,,,,,,,,5,0,5,0,1,,,,,,,,,,,,
,,62c396eed1893e06fdad4574,2022-09-08_14h19.12.377,CGTgamblingSpanTasks,2022.2.1,MacIntel,60.0024001,,,,,,,,,,,,,,,,,,,,,,,,,,,,,,,,,,,,,,,,,,,,,,,,,,,,,,,,,,,,,,,0,,,,,,,,,,,,,,,,,,,,,,,,,,,,,,,,,,,,,7,,,,,,,,,,,,,,,,,,,,,,,,927158,0.062258761,-0.402720169,1,0,0,cont_buttonBS,0,6,6,6,1
,,62c396eed1893e06fdad4574,2022-09-08_14h19.12.377,CGTgamblingSpanTasks,2022.2.1,MacIntel,60.0024001,,,,,,,,,,,,,,,,,,,,,,,,,,,,,,,,,,,,,,,,,,,,,,,,,,,,,,,,,,,,,,,,,,,,,,,,,,,,,,,,,,"[8,1,4,5,7]",,,,,,,,,,,,,,,,,,,,,,,,,,,,,,,,,,,,,0,0,0,0,1,,,,,,,,,,,,
,,62c396eed1893e06fdad4574,2022-09-08_14h19.12.377,CGTgamblingSpanTasks,2022.2.1,MacIntel,60.0024001,,,,,,,,,,,,,,,,,,,,,,,,,,,,,,,,,,,,,,,,,,,,,,,,,,,,,,,,,,,,,,,,,,,,,,,,,,,,,,,,,,"[8,1,4,5,7]",,,,,,,,,,,,,,,,,,,,,,,,,,,,,,,,,,,,,1,0,1,0,1,,,,,,,,,,,,
,,62c396eed1893e06fdad4574,2022-09-08_14h19.12.377,CGTgamblingSpanTasks,2022.2.1,MacIntel,60.0024001,,,,,,,,,,,,,,,,,,,,,,,,,,,,,,,,,,,,,,,,,,,,,,,,,,,,,,,,,,,,,,,,,,,,,,,,,,,,,,,,,,"[8,1,4,5,7]",,,,,,,,,,,,,,,,,,,,,,,,,,,,,,,,,,,,,2,0,2,0,1,,,,,,,,,,,,
