initITIstatic,initITIdynamic,participant,date,expName,psychopyVersion,OS,frameRate,inst1.keys,inst1.rt,startPracResp.keys,startPracResp.rt,choice1.keys,choice1.rt,outcome,extraITI,trials.thisRepN,trials.thisTrialN,trials.thisN,trials.thisIndex,trials.ran,riskyGain,riskyLoss,alternative,isi,iti,loc,postPractResp.keys,postPractResp.rt,realloc,realChoice.keys,realChoice.rt,outcomes,choices,actualITI,init ITI,staticRDM.thisRepN,staticRDM.thisTrialN,staticRDM.thisN,staticRDM.thisIndex,staticRDM.ran,riskyoption1,riskyoption2,safeoption,ischecktrial,dynamicChoiceSetName,dynamicChoiceSetPath,bestRho,bestMu,trials_2.thisRepN,trials_2.thisTrialN,trials_2.thisN,trials_2.thisIndex,trials_2.ran,key_resp.keys,key_resp.rt,dynamicRDM.thisRepN,dynamicRDM.thisTrialN,dynamicRDM.thisN,dynamicRDM.thisIndex,dynamicRDM.ran,choiceP,easy0difficult1,stopBreak.keys,stopBreak.rt,movealong.keys,movealong.rt,startPractice.keys,startPractice.rt,textboxPractice.text,correct,mousePractice.x,mousePractice.y,mousePractice.leftButton,mousePractice.midButton,mousePractice.rightButton,mousePractice.clicked_name,trialFSPractice.thisRepN,trialFSPractice.thisTrialN,trialFSPractice.thisN,trialFSPractice.thisIndex,trialFSPractice.ran,digitSpanForward,digits,digitsReverse,digitSpanReverse,digitsReverseCorrAnswer,startFSreal.keys,startFSreal.rt,digitsForTrial,digitLoop.thisRepN,digitLoop.thisTrialN,digitLoop.thisN,digitLoop.thisIndex,digitLoop.ran,textbox.text,mouse_3.x,mouse_3.y,mouse_3.leftButton,mouse_3.midButton,mouse_3.rightButton,mouse_3.clicked_name,trialsFS.thisRepN,trialsFS.thisTrialN,trialsFS.thisN,trialsFS.thisIndex,trialsFS.ran,trialNumber,moveToBS.keys,moveToBS.rt,startBSprac.keys,startBSprac.rt,textboxPractice_2.text,mousePractice_2.x,mousePractice_2.y,mousePractice_2.leftButton,mousePractice_2.midButton,mousePractice_2.rightButton,mousePractice_2.clicked_name,trialsPracticeBS.thisRepN,trialsPracticeBS.thisTrialN,trialsPracticeBS.thisN,trialsPracticeBS.thisIndex,trialsPracticeBS.ran,startBSreal.keys,startBSreal.rt,digitLoopBS.thisRepN,digitLoopBS.thisTrialN,digitLoopBS.thisN,digitLoopBS.thisIndex,digitLoopBS.ran,textboxBS.text,mouseBS.x,mouseBS.y,mouseBS.leftButton,mouseBS.midButton,mouseBS.rightButton,mouseBS.clicked_name,trialsBS.thisRepN,trialsBS.thisTrialN,trialsBS.thisN,trialsBS.thisIndex,trialsBS.ran
"[1,1.5,1.5,1.5,1.5,1,1.5,1.5,1.5,1,1.5,1,1.5,1.5,1,1,1,1,1.5,1.5,1,1,1,1,1.5,1.5,1.5,1,1.5,1,1.5,1.5,1.5,1,1,1,1.5,1.5,1,1,1,1.5,1,1,1.5,1.5,1.5,1,1,1]","[1,1.5,1,1,1.5,1,1.5,1,1,1.5,1,1,1.5,1,1,1.5,1.5,1,1.5,1,1.5,1.5,1,1,1.5,1.5,1.5,1,1.5,1,1.5,1,1.5,1.5,1,1,1.5,1,1,1,1.5,1.5,1,1.5,1.5,1.5,1.5,1,1.5,1,1.5,1,1.5,1,1.5,1.5,1.5,1.5,1.5,1,1,1.5,1.5,1,1,1.5,1,1,1.5,1,1,1.5,1,1.5,1,1.5,1,1,1,1.5,1.5,1,1,1,1.5,1.5,1,1,1.5,1,1,1.5,1.5,1,1.5,1.5,1,1,1.5,1,1.5,1.5,1.5,1,1.5,1.5,1,1.5,1.5,1,1,1,1.5,1,1,1.5,1,1.5,1.5,1]",62b083f9ca87faa7a75c0235,2022-09-08_14h03.39.937,CGTgamblingSpanTasks,2022.2.1,Win32,59.89099838,,,,,,,,,,,,,,,,,,,,,,,,,,,,,,,,,,,,,,,,,,,,,,,,,,,,,,,,,,,,,,,,,,,,,,,,,,,,,,,,,,,,,,,,,,,,,,,,,,,,,,,,,,,,,,,,,,,,,,,,,,,,,,,,,,,,,,,
,,62b083f9ca87faa7a75c0235,2022-09-08_14h03.39.937,CGTgamblingSpanTasks,2022.2.1,Win32,59.89099838,return,3.7132,,,,,,,,,,,,,,,,,,,,,,,,,,,,,,,,,,,,,,,,,,,,,,,,,,,,,,,,,,,,,,,,,,,,,,,,,,,,,,,,,,,,,,,,,,,,,,,,,,,,,,,,,,,,,,,,,,,,,,,,,,,,,,,,,,,,,
,,62b083f9ca87faa7a75c0235,2022-09-08_14h03.39.937,CGTgamblingSpanTasks,2022.2.1,Win32,59.89099838,,,v,1.8802,,,,,,,,,,,,,,,,,,,,,,,,,,,,,,,,,,,,,,,,,,,,,,,,,,,,,,,,,,,,,,,,,,,,,,,,,,,,,,,,,,,,,,,,,,,,,,,,,,,,,,,,,,,,,,,,,,,,,,,,,,,,,,,,,,,
,,62b083f9ca87faa7a75c0235,2022-09-08_14h03.39.937,CGTgamblingSpanTasks,2022.2.1,Win32,59.89099838,,,,,n,2.6204,9.45,1.3796,0,0,0,0,1,18.23,0,9.45,2,1,1,,,,,,,,,,,,,,,,,,,,,,,,,,,,,,,,,,,,,,,,,,,,,,,,,,,,,,,,,,,,,,,,,,,,,,,,,,,,,,,,,,,,,,,,,,,,,,,,,,,,,,,,,,,,,,,,,,,,
,,62b083f9ca87faa7a75c0235,2022-09-08_14h03.39.937,CGTgamblingSpanTasks,2022.2.1,Win32,59.89099838,,,,,v,1.7947,0,2.2053,0,1,1,1,1,53.27,0,35.16,1,1.5,1,,,,,,,,,,,,,,,,,,,,,,,,,,,,,,,,,,,,,,,,,,,,,,,,,,,,,,,,,,,,,,,,,,,,,,,,,,,,,,,,,,,,,,,,,,,,,,,,,,,,,,,,,,,,,,,,,,,,
,,62b083f9ca87faa7a75c0235,2022-09-08_14h03.39.937,CGTgamblingSpanTasks,2022.2.1,Win32,59.89099838,,,,,n,2.1112,8.27,1.8888,0,2,2,2,1,8.27,0,1.15,1,1.5,2,,,,,,,,,,,,,,,,,,,,,,,,,,,,,,,,,,,,,,,,,,,,,,,,,,,,,,,,,,,,,,,,,,,,,,,,,,,,,,,,,,,,,,,,,,,,,,,,,,,,,,,,,,,,,,,,,,,,
,,62b083f9ca87faa7a75c0235,2022-09-08_14h03.39.937,CGTgamblingSpanTasks,2022.2.1,Win32,59.89099838,,,,,n,2.2643,40.41,1.7357,0,3,3,3,1,45.88,0,40.41,3,1,1,,,,,,,,,,,,,,,,,,,,,,,,,,,,,,,,,,,,,,,,,,,,,,,,,,,,,,,,,,,,,,,,,,,,,,,,,,,,,,,,,,,,,,,,,,,,,,,,,,,,,,,,,,,,,,,,,,,,
,,62b083f9ca87faa7a75c0235,2022-09-08_14h03.39.937,CGTgamblingSpanTasks,2022.2.1,Win32,59.89099838,,,,,n,2.9451,0,1.0549,0,4,4,4,1,21.56,0,11.96,1,1.5,2,,,,,,,,,,,,,,,,,,,,,,,,,,,,,,,,,,,,,,,,,,,,,,,,,,,,,,,,,,,,,,,,,,,,,,,,,,,,,,,,,,,,,,,,,,,,,,,,,,,,,,,,,,,,,,,,,,,,
,,62b083f9ca87faa7a75c0235,2022-09-08_14h03.39.937,CGTgamblingSpanTasks,2022.2.1,Win32,59.89099838,,,,,,,,,,,,,,,,,,,,n,3.2863,,,,,,,,,,,,,,,,,,,,,,,,,,,,,,,,,,,,,,,,,,,,,,,,,,,,,,,,,,,,,,,,,,,,,,,,,,,,,,,,,,,,,,,,,,,,,,,,,,,,,,,,,,,,,,,,,,
,,62b083f9ca87faa7a75c0235,2022-09-08_14h03.39.937,CGTgamblingSpanTasks,2022.2.1,Win32,59.89099838,,,,,,,,2.5982,,,,,,,,,,,,,,2,n,1.4018,22.97,1,3.5982,1,0,0,0,5,1,22.97,0,6.51,0,,,,,,,,,,,,,,,,,,,,,,,,,,,,,,,,,,,,,,,,,,,,,,,,,,,,,,,,,,,,,,,,,,,,,,,,,,,,,,,,,,,,,,,,,,,,,,,,,,
,,62b083f9ca87faa7a75c0235,2022-09-08_14h03.39.937,CGTgamblingSpanTasks,2022.2.1,Win32,59.89099838,,,,,,,,1.3281,,,,,,,,,,,,,,1,n,2.6719,3.89,0,2.8281,1.5,0,1,1,1,1,28.21,0,3.89,0,,,,,,,,,,,,,,,,,,,,,,,,,,,,,,,,,,,,,,,,,,,,,,,,,,,,,,,,,,,,,,,,,,,,,,,,,,,,,,,,,,,,,,,,,,,,,,,,,,
,,62b083f9ca87faa7a75c0235,2022-09-08_14h03.39.937,CGTgamblingSpanTasks,2022.2.1,Win32,59.89099838,,,,,,,,2.1237,,,,,,,,,,,,,,2,v,1.8763,10.15,0,3.6237,1.5,0,2,2,33,1,15.7,0,10.15,0,,,,,,,,,,,,,,,,,,,,,,,,,,,,,,,,,,,,,,,,,,,,,,,,,,,,,,,,,,,,,,,,,,,,,,,,,,,,,,,,,,,,,,,,,,,,,,,,,,
,,62b083f9ca87faa7a75c0235,2022-09-08_14h03.39.937,CGTgamblingSpanTasks,2022.2.1,Win32,59.89099838,,,,,,,,2.3516,,,,,,,,,,,,,,1,n,1.6484,10.37,0,3.8516,1.5,0,3,3,37,1,15.27,0,10.37,0,,,,,,,,,,,,,,,,,,,,,,,,,,,,,,,,,,,,,,,,,,,,,,,,,,,,,,,,,,,,,,,,,,,,,,,,,,,,,,,,,,,,,,,,,,,,,,,,,,
,,62b083f9ca87faa7a75c0235,2022-09-08_14h03.39.937,CGTgamblingSpanTasks,2022.2.1,Win32,59.89099838,,,,,,,,2.514,,,,,,,,,,,,,,1,v,1.486,0,1,4.014,1.5,0,4,4,20,1,11.84,0,6.08,0,,,,,,,,,,,,,,,,,,,,,,,,,,,,,,,,,,,,,,,,,,,,,,,,,,,,,,,,,,,,,,,,,,,,,,,,,,,,,,,,,,,,,,,,,,,,,,,,,,
,,62b083f9ca87faa7a75c0235,2022-09-08_14h03.39.937,CGTgamblingSpanTasks,2022.2.1,Win32,59.89099838,,,,,,,,2.4627,,,,,,,,,,,,,,2,n,1.5373,0,1,3.4627,1,0,5,5,4,1,16,0,4,0,,,,,,,,,,,,,,,,,,,,,,,,,,,,,,,,,,,,,,,,,,,,,,,,,,,,,,,,,,,,,,,,,,,,,,,,,,,,,,,,,,,,,,,,,,,,,,,,,,
,,62b083f9ca87faa7a75c0235,2022-09-08_14h03.39.937,CGTgamblingSpanTasks,2022.2.1,Win32,59.89099838,,,,,,,,2.5107,,,,,,,,,,,,,,2,n,1.4893,25.2,1,4.0107,1.5,0,6,6,3,1,25.2,0,5.4,0,,,,,,,,,,,,,,,,,,,,,,,,,,,,,,,,,,,,,,,,,,,,,,,,,,,,,,,,,,,,,,,,,,,,,,,,,,,,,,,,,,,,,,,,,,,,,,,,,,
,,62b083f9ca87faa7a75c0235,2022-09-08_14h03.39.937,CGTgamblingSpanTasks,2022.2.1,Win32,59.89099838,,,,,,,,2.613,,,,,,,,,,,,,,2,v,1.387,10.46,0,4.113,1.5,0,7,7,39,1,15.09,0,10.46,0,,,,,,,,,,,,,,,,,,,,,,,,,,,,,,,,,,,,,,,,,,,,,,,,,,,,,,,,,,,,,,,,,,,,,,,,,,,,,,,,,,,,,,,,,,,,,,,,,,
,,62b083f9ca87faa7a75c0235,2022-09-08_14h03.39.937,CGTgamblingSpanTasks,2022.2.1,Win32,59.89099838,,,,,,,,2.0123,,,,,,,,,,,,,,2,n,1.9877,0,1,3.5123,1.5,0,8,8,42,1,19.86,0,0,1,,,,,,,,,,,,,,,,,,,,,,,,,,,,,,,,,,,,,,,,,,,,,,,,,,,,,,,,,,,,,,,,,,,,,,,,,,,,,,,,,,,,,,,,,,,,,,,,,,
,,62b083f9ca87faa7a75c0235,2022-09-08_14h03.39.937,CGTgamblingSpanTasks,2022.2.1,Win32,59.89099838,,,,,,,,2.0713,,,,,,,,,,,,,,2,v,1.9287,7.55,0,3.0713,1,0,9,9,45,1,0,0,7.55,1,,,,,,,,,,,,,,,,,,,,,,,,,,,,,,,,,,,,,,,,,,,,,,,,,,,,,,,,,,,,,,,,,,,,,,,,,,,,,,,,,,,,,,,,,,,,,,,,,,
,,62b083f9ca87faa7a75c0235,2022-09-08_14h03.39.937,CGTgamblingSpanTasks,2022.2.1,Win32,59.89099838,,,,,,,,2.3279,,,,,,,,,,,,,,1,v,1.6721,10.55,1,3.8279,1.5,0,10,10,32,1,10.55,0,6.73,0,,,,,,,,,,,,,,,,,,,,,,,,,,,,,,,,,,,,,,,,,,,,,,,,,,,,,,,,,,,,,,,,,,,,,,,,,,,,,,,,,,,,,,,,,,,,,,,,,,
,,62b083f9ca87faa7a75c0235,2022-09-08_14h03.39.937,CGTgamblingSpanTasks,2022.2.1,Win32,59.89099838,,,,,,,,2.5731,,,,,,,,,,,,,,2,n,1.4269,20.03,1,3.5731,1,0,11,11,0,1,20.03,0,1.99,0,,,,,,,,,,,,,,,,,,,,,,,,,,,,,,,,,,,,,,,,,,,,,,,,,,,,,,,,,,,,,,,,,,,,,,,,,,,,,,,,,,,,,,,,,,,,,,,,,,
,,62b083f9ca87faa7a75c0235,2022-09-08_14h03.39.937,CGTgamblingSpanTasks,2022.2.1,Win32,59.89099838,,,,,,,,2.6451,,,,,,,,,,,,,,2,v,1.3549,9.87,0,4.1451,1.5,0,12,12,29,1,16.26,0,9.87,0,,,,,,,,,,,,,,,,,,,,,,,,,,,,,,,,,,,,,,,,,,,,,,,,,,,,,,,,,,,,,,,,,,,,,,,,,,,,,,,,,,,,,,,,,,,,,,,,,,
,,62b083f9ca87faa7a75c0235,2022-09-08_14h03.39.937,CGTgamblingSpanTasks,2022.2.1,Win32,59.89099838,,,,,,,,2.2709,,,,,,,,,,,,,,2,v,1.7291,6.29,0,3.7709,1.5,0,13,13,24,1,11.43,0,6.29,0,,,,,,,,,,,,,,,,,,,,,,,,,,,,,,,,,,,,,,,,,,,,,,,,,,,,,,,,,,,,,,,,,,,,,,,,,,,,,,,,,,,,,,,,,,,,,,,,,,
,,62b083f9ca87faa7a75c0235,2022-09-08_14h03.39.937,CGTgamblingSpanTasks,2022.2.1,Win32,59.89099838,,,,,,,,2.4007,,,,,,,,,,,,,,2,v,1.5993,3.13,0,3.4007,1,0,14,14,47,1,0,0,3.13,1,,,,,,,,,,,,,,,,,,,,,,,,,,,,,,,,,,,,,,,,,,,,,,,,,,,,,,,,,,,,,,,,,,,,,,,,,,,,,,,,,,,,,,,,,,,,,,,,,,
,,62b083f9ca87faa7a75c0235,2022-09-08_14h03.39.937,CGTgamblingSpanTasks,2022.2.1,Win32,59.89099838,,,,,,,,2.6017,,,,,,,,,,,,,,1,n,1.3983,9.92,0,3.6017,1,0,15,15,49,1,6.79,0,9.92,1,,,,,,,,,,,,,,,,,,,,,,,,,,,,,,,,,,,,,,,,,,,,,,,,,,,,,,,,,,,,,,,,,,,,,,,,,,,,,,,,,,,,,,,,,,,,,,,,,,
,,62b083f9ca87faa7a75c0235,2022-09-08_14h03.39.937,CGTgamblingSpanTasks,2022.2.1,Win32,59.89099838,,,,,,,,2.6566,,,,,,,,,,,,,,2,n,1.3434,15.96,1,3.6566,1,0,16,16,31,1,15.96,0,10.02,0,,,,,,,,,,,,,,,,,,,,,,,,,,,,,,,,,,,,,,,,,,,,,,,,,,,,,,,,,,,,,,,,,,,,,,,,,,,,,,,,,,,,,,,,,,,,,,,,,,
,,62b083f9ca87faa7a75c0235,2022-09-08_14h03.39.937,CGTgamblingSpanTasks,2022.2.1,Win32,59.89099838,,,,,,,,2.2645,,,,,,,,,,,,,,1,v,1.7355,0,1,3.2645,1,0,17,17,7,1,21.32,0,7.34,0,,,,,,,,,,,,,,,,,,,,,,,,,,,,,,,,,,,,,,,,,,,,,,,,,,,,,,,,,,,,,,,,,,,,,,,,,,,,,,,,,,,,,,,,,,,,,,,,,,
,,62b083f9ca87faa7a75c0235,2022-09-08_14h03.39.937,CGTgamblingSpanTasks,2022.2.1,Win32,59.89099838,,,,,,,,2.3358,,,,,,,,,,,,,,2,n,1.6642,0,1,3.8358,1.5,0,18,18,15,1,18.77,0,8.61,0,,,,,,,,,,,,,,,,,,,,,,,,,,,,,,,,,,,,,,,,,,,,,,,,,,,,,,,,,,,,,,,,,,,,,,,,,,,,,,,,,,,,,,,,,,,,,,,,,,
,,62b083f9ca87faa7a75c0235,2022-09-08_14h03.39.937,CGTgamblingSpanTasks,2022.2.1,Win32,59.89099838,,,,,,,,2.2799,,,,,,,,,,,,,,1,v,1.7201,0,1,3.7799,1.5,0,19,19,19,1,17.94,0,9.03,0,,,,,,,,,,,,,,,,,,,,,,,,,,,,,,,,,,,,,,,,,,,,,,,,,,,,,,,,,,,,,,,,,,,,,,,,,,,,,,,,,,,,,,,,,,,,,,,,,,
,,62b083f9ca87faa7a75c0235,2022-09-08_14h03.39.937,CGTgamblingSpanTasks,2022.2.1,Win32,59.89099838,,,,,,,,2.5539,,,,,,,,,,,,,,2,n,1.4461,16.6,1,3.5539,1,0,20,20,27,1,16.6,0,9.7,0,,,,,,,,,,,,,,,,,,,,,,,,,,,,,,,,,,,,,,,,,,,,,,,,,,,,,,,,,,,,,,,,,,,,,,,,,,,,,,,,,,,,,,,,,,,,,,,,,,
,,62b083f9ca87faa7a75c0235,2022-09-08_14h03.39.937,CGTgamblingSpanTasks,2022.2.1,Win32,59.89099838,,,,,,,,2.4214,,,,,,,,,,,,,,2,n,1.5786,0,1,3.4214,1,0,21,21,6,1,14.72,0,4.64,0,,,,,,,,,,,,,,,,,,,,,,,,,,,,,,,,,,,,,,,,,,,,,,,,,,,,,,,,,,,,,,,,,,,,,,,,,,,,,,,,,,,,,,,,,,,,,,,,,,
,,62b083f9ca87faa7a75c0235,2022-09-08_14h03.39.937,CGTgamblingSpanTasks,2022.2.1,Win32,59.89099838,,,,,,,,2.5177,,,,,,,,,,,,,,1,v,1.4823,19.86,1,3.5177,1,0,22,22,11,1,19.86,0,8.07,0,,,,,,,,,,,,,,,,,,,,,,,,,,,,,,,,,,,,,,,,,,,,,,,,,,,,,,,,,,,,,,,,,,,,,,,,,,,,,,,,,,,,,,,,,,,,,,,,,,
,,62b083f9ca87faa7a75c0235,2022-09-08_14h03.39.937,CGTgamblingSpanTasks,2022.2.1,Win32,59.89099838,,,,,,,,2.6299,,,,,,,,,,,,,,2,n,1.3701,10.73,1,3.6299,1,0,23,23,30,1,10.73,0,6.63,0,,,,,,,,,,,,,,,,,,,,,,,,,,,,,,,,,,,,,,,,,,,,,,,,,,,,,,,,,,,,,,,,,,,,,,,,,,,,,,,,,,,,,,,,,,,,,,,,,,
,,62b083f9ca87faa7a75c0235,2022-09-08_14h03.39.937,CGTgamblingSpanTasks,2022.2.1,Win32,59.89099838,,,,,,,,2.2874,,,,,,,,,,,,,,1,n,1.7126,10.27,0,3.7874,1.5,0,24,24,35,1,15.47,0,10.27,0,,,,,,,,,,,,,,,,,,,,,,,,,,,,,,,,,,,,,,,,,,,,,,,,,,,,,,,,,,,,,,,,,,,,,,,,,,,,,,,,,,,,,,,,,,,,,,,,,,
,,62b083f9ca87faa7a75c0235,2022-09-08_14h03.39.937,CGTgamblingSpanTasks,2022.2.1,Win32,59.89099838,,,,,,,,2.6061,,,,,,,,,,,,,,2,n,1.3939,0,1,4.1061,1.5,0,25,25,23,1,17.28,0,9.36,0,,,,,,,,,,,,,,,,,,,,,,,,,,,,,,,,,,,,,,,,,,,,,,,,,,,,,,,,,,,,,,,,,,,,,,,,,,,,,,,,,,,,,,,,,,,,,,,,,,
,,62b083f9ca87faa7a75c0235,2022-09-08_14h03.39.937,CGTgamblingSpanTasks,2022.2.1,Win32,59.89099838,,,,,,,,2.9976,,,,,,,,,,,,,,2,n,1.0024,0,1,4.4976,1.5,0,26,26,18,1,12.08,0,5.96,0,,,,,,,,,,,,,,,,,,,,,,,,,,,,,,,,,,,,,,,,,,,,,,,,,,,,,,,,,,,,,,,,,,,,,,,,,,,,,,,,,,,,,,,,,,,,,,,,,,
,,62b083f9ca87faa7a75c0235,2022-09-08_14h03.39.937,CGTgamblingSpanTasks,2022.2.1,Win32,59.89099838,,,,,,,,2.7432,,,,,,,,,,,,,,1,v,1.2568,18.33,1,3.7432,1,0,27,27,17,1,18.33,0,8.84,0,,,,,,,,,,,,,,,,,,,,,,,,,,,,,,,,,,,,,,,,,,,,,,,,,,,,,,,,,,,,,,,,,,,,,,,,,,,,,,,,,,,,,,,,,,,,,,,,,,
,,62b083f9ca87faa7a75c0235,2022-09-08_14h03.39.937,CGTgamblingSpanTasks,2022.2.1,Win32,59.89099838,,,,,,,,2.39,,,,,,,,,,,,,,2,n,1.61,12.68,1,3.89,1.5,0,28,28,14,1,12.68,0,5.66,0,,,,,,,,,,,,,,,,,,,,,,,,,,,,,,,,,,,,,,,,,,,,,,,,,,,,,,,,,,,,,,,,,,,,,,,,,,,,,,,,,,,,,,,,,,,,,,,,,,
,,62b083f9ca87faa7a75c0235,2022-09-08_14h03.39.937,CGTgamblingSpanTasks,2022.2.1,Win32,59.89099838,,,,,,,,2.4387,,,,,,,,,,,,,,2,n,1.5613,0,1,3.4387,1,0,29,29,13,1,19.28,0,8.36,0,,,,,,,,,,,,,,,,,,,,,,,,,,,,,,,,,,,,,,,,,,,,,,,,,,,,,,,,,,,,,,,,,,,,,,,,,,,,,,,,,,,,,,,,,,,,,,,,,,
,,62b083f9ca87faa7a75c0235,2022-09-08_14h03.39.937,CGTgamblingSpanTasks,2022.2.1,Win32,59.89099838,,,,,,,,2.5216,,,,,,,,,,,,,,1,v,1.4784,13.94,1,4.0216,1.5,0,30,30,8,1,13.94,0,5.03,0,,,,,,,,,,,,,,,,,,,,,,,,,,,,,,,,,,,,,,,,,,,,,,,,,,,,,,,,,,,,,,,,,,,,,,,,,,,,,,,,,,,,,,,,,,,,,,,,,,
,,62b083f9ca87faa7a75c0235,2022-09-08_14h03.39.937,CGTgamblingSpanTasks,2022.2.1,Win32,59.89099838,,,,,,,,2.7844,,,,,,,,,,,,,,1,v,1.2156,0,1,4.2844,1.5,0,31,31,12,1,13.04,0,5.48,0,,,,,,,,,,,,,,,,,,,,,,,,,,,,,,,,,,,,,,,,,,,,,,,,,,,,,,,,,,,,,,,,,,,,,,,,,,,,,,,,,,,,,,,,,,,,,,,,,,
,,62b083f9ca87faa7a75c0235,2022-09-08_14h03.39.937,CGTgamblingSpanTasks,2022.2.1,Win32,59.89099838,,,,,,,,2.6992,,,,,,,,,,,,,,1,v,1.3008,0,1,4.1992,1.5,0,32,32,34,1,10.39,0,6.81,0,,,,,,,,,,,,,,,,,,,,,,,,,,,,,,,,,,,,,,,,,,,,,,,,,,,,,,,,,,,,,,,,,,,,,,,,,,,,,,,,,,,,,,,,,,,,,,,,,,
,,62b083f9ca87faa7a75c0235,2022-09-08_14h03.39.937,CGTgamblingSpanTasks,2022.2.1,Win32,59.89099838,,,,,,,,1.7108,,,,,,,,,,,,,,1,n,2.2892,9.5,0,2.7108,1,0,33,33,25,1,17,0,9.5,0,,,,,,,,,,,,,,,,,,,,,,,,,,,,,,,,,,,,,,,,,,,,,,,,,,,,,,,,,,,,,,,,,,,,,,,,,,,,,,,,,,,,,,,,,,,,,,,,,,
,,62b083f9ca87faa7a75c0235,2022-09-08_14h03.39.937,CGTgamblingSpanTasks,2022.2.1,Win32,59.89099838,,,,,,,,2.5434,,,,,,,,,,,,,,1,v,1.4566,0,1,3.5434,1,0,34,34,28,1,10.95,0,6.53,0,,,,,,,,,,,,,,,,,,,,,,,,,,,,,,,,,,,,,,,,,,,,,,,,,,,,,,,,,,,,,,,,,,,,,,,,,,,,,,,,,,,,,,,,,,,,,,,,,,
,,62b083f9ca87faa7a75c0235,2022-09-08_14h03.39.937,CGTgamblingSpanTasks,2022.2.1,Win32,59.89099838,,,,,,,,2.8579,,,,,,,,,,,,,,2,n,1.1421,14.26,1,3.8579,1,0,35,35,41,1,14.26,0,0,1,,,,,,,,,,,,,,,,,,,,,,,,,,,,,,,,,,,,,,,,,,,,,,,,,,,,,,,,,,,,,,,,,,,,,,,,,,,,,,,,,,,,,,,,,,,,,,,,,,
,,62b083f9ca87faa7a75c0235,2022-09-08_14h03.39.937,CGTgamblingSpanTasks,2022.2.1,Win32,59.89099838,,,,,,,,2.1264,,,,,,,,,,,,,,1,v,1.8736,13.45,1,3.6264,1.5,0,36,36,10,1,13.45,0,5.27,0,,,,,,,,,,,,,,,,,,,,,,,,,,,,,,,,,,,,,,,,,,,,,,,,,,,,,,,,,,,,,,,,,,,,,,,,,,,,,,,,,,,,,,,,,,,,,,,,,,
,,62b083f9ca87faa7a75c0235,2022-09-08_14h03.39.937,CGTgamblingSpanTasks,2022.2.1,Win32,59.89099838,,,,,,,,2.6626,,,,,,,,,,,,,,1,v,1.3374,0,1,4.1626,1.5,0,37,37,2,1,17.73,0,3.13,0,,,,,,,,,,,,,,,,,,,,,,,,,,,,,,,,,,,,,,,,,,,,,,,,,,,,,,,,,,,,,,,,,,,,,,,,,,,,,,,,,,,,,,,,,,,,,,,,,,
,,62b083f9ca87faa7a75c0235,2022-09-08_14h03.39.937,CGTgamblingSpanTasks,2022.2.1,Win32,59.89099838,,,,,,,,2.7581,,,,,,,,,,,,,,2,n,1.2419,11.2,1,3.7581,1,0,38,38,26,1,11.2,0,6.4,0,,,,,,,,,,,,,,,,,,,,,,,,,,,,,,,,,,,,,,,,,,,,,,,,,,,,,,,,,,,,,,,,,,,,,,,,,,,,,,,,,,,,,,,,,,,,,,,,,,
,,62b083f9ca87faa7a75c0235,2022-09-08_14h03.39.937,CGTgamblingSpanTasks,2022.2.1,Win32,59.89099838,,,,,,,,1.9267,,,,,,,,,,,,,,2,v,2.0733,10.68,0,2.9267,1,0,39,39,48,1,10.68,0,10.68,1,,,,,,,,,,,,,,,,,,,,,,,,,,,,,,,,,,,,,,,,,,,,,,,,,,,,,,,,,,,,,,,,,,,,,,,,,,,,,,,,,,,,,,,,,,,,,,,,,,
,,62b083f9ca87faa7a75c0235,2022-09-08_14h03.39.937,CGTgamblingSpanTasks,2022.2.1,Win32,59.89099838,,,,,,,,2.5411,,,,,,,,,,,,,,2,n,1.4589,0,1,3.5411,1,0,40,40,22,1,11.62,0,6.19,0,,,,,,,,,,,,,,,,,,,,,,,,,,,,,,,,,,,,,,,,,,,,,,,,,,,,,,,,,,,,,,,,,,,,,,,,,,,,,,,,,,,,,,,,,,,,,,,,,,
,,62b083f9ca87faa7a75c0235,2022-09-08_14h03.39.937,CGTgamblingSpanTasks,2022.2.1,Win32,59.89099838,,,,,,,,2.5511,,,,,,,,,,,,,,1,v,1.4489,12.36,1,4.0511,1.5,0,41,41,16,1,12.36,0,5.82,0,,,,,,,,,,,,,,,,,,,,,,,,,,,,,,,,,,,,,,,,,,,,,,,,,,,,,,,,,,,,,,,,,,,,,,,,,,,,,,,,,,,,,,,,,,,,,,,,,,
,,62b083f9ca87faa7a75c0235,2022-09-08_14h03.39.937,CGTgamblingSpanTasks,2022.2.1,Win32,59.89099838,,,,,,,,2.6022,,,,,,,,,,,,,,1,v,1.3978,6.99,1,3.6022,1,0,42,42,43,1,16.11,6.99,6.99,1,,,,,,,,,,,,,,,,,,,,,,,,,,,,,,,,,,,,,,,,,,,,,,,,,,,,,,,,,,,,,,,,,,,,,,,,,,,,,,,,,,,,,,,,,,,,,,,,,,
,,62b083f9ca87faa7a75c0235,2022-09-08_14h03.39.937,CGTgamblingSpanTasks,2022.2.1,Win32,59.89099838,,,,,,,,2.4229,,,,,,,,,,,,,,1,v,1.5771,20.53,1,3.4229,1,0,43,43,9,1,20.53,0,7.73,0,,,,,,,,,,,,,,,,,,,,,,,,,,,,,,,,,,,,,,,,,,,,,,,,,,,,,,,,,,,,,,,,,,,,,,,,,,,,,,,,,,,,,,,,,,,,,,,,,,
,,62b083f9ca87faa7a75c0235,2022-09-08_14h03.39.937,CGTgamblingSpanTasks,2022.2.1,Win32,59.89099838,,,,,,,,2.463,,,,,,,,,,,,,,1,n,1.537,6.88,0,3.963,1.5,0,44,44,36,1,10.24,0,6.88,0,,,,,,,,,,,,,,,,,,,,,,,,,,,,,,,,,,,,,,,,,,,,,,,,,,,,,,,,,,,,,,,,,,,,,,,,,,,,,,,,,,,,,,,,,,,,,,,,,,
,,62b083f9ca87faa7a75c0235,2022-09-08_14h03.39.937,CGTgamblingSpanTasks,2022.2.1,Win32,59.89099838,,,,,,,,1.268,,,,,,,,,,,,,,2,n,2.732,0,1,2.768,1.5,0,45,45,38,1,10.12,0,6.94,0,,,,,,,,,,,,,,,,,,,,,,,,,,,,,,,,,,,,,,,,,,,,,,,,,,,,,,,,,,,,,,,,,,,,,,,,,,,,,,,,,,,,,,,,,,,,,,,,,,
,,62b083f9ca87faa7a75c0235,2022-09-08_14h03.39.937,CGTgamblingSpanTasks,2022.2.1,Win32,59.89099838,,,,,,,,2.7862,,,,,,,,,,,,,,1,v,1.2138,17.59,1,4.2862,1.5,0,46,46,21,1,17.59,0,9.2,0,,,,,,,,,,,,,,,,,,,,,,,,,,,,,,,,,,,,,,,,,,,,,,,,,,,,,,,,,,,,,,,,,,,,,,,,,,,,,,,,,,,,,,,,,,,,,,,,,,
,,62b083f9ca87faa7a75c0235,2022-09-08_14h03.39.937,CGTgamblingSpanTasks,2022.2.1,Win32,59.89099838,,,,,,,,2.6671,,,,,,,,,,,,,,2,v,1.3329,10.25,0,3.6671,1,0,47,47,46,1,0,0,10.25,1,,,,,,,,,,,,,,,,,,,,,,,,,,,,,,,,,,,,,,,,,,,,,,,,,,,,,,,,,,,,,,,,,,,,,,,,,,,,,,,,,,,,,,,,,,,,,,,,,,
,,62b083f9ca87faa7a75c0235,2022-09-08_14h03.39.937,CGTgamblingSpanTasks,2022.2.1,Win32,59.89099838,,,,,,,,2.0468,,,,,,,,,,,,,,1,v,1.9532,10.35,1,3.0468,1,0,48,48,40,1,10.35,0,0,1,,,,,,,,,,,,,,,,,,,,,,,,,,,,,,,,,,,,,,,,,,,,,,,,,,,,,,,,,,,,,,,,,,,,,,,,,,,,,,,,,,,,,,,,,,,,,,,,,,
,,62b083f9ca87faa7a75c0235,2022-09-08_14h03.39.937,CGTgamblingSpanTasks,2022.2.1,Win32,59.89099838,,,,,,,,2.2112,,,,,,,,,,,,,,1,n,1.7888,4.68,0,3.2112,1,0,49,49,44,1,13.1,7.73,4.68,1,,,,,,,,,,,,,,,,,,,,,,,,,,,,,,,,,,,,,,,,,,,,,,,,,,,,,,,,,,,,,,,,,,,,,,,,,,,,,,,,,,,,,,,,,,,,,,,,,,
,,62b083f9ca87faa7a75c0235,2022-09-08_14h03.39.937,CGTgamblingSpanTasks,2022.2.1,Win32,59.89099838,,,,,,,,,,,,,,,,,,,,,,,,,,,,,,,,,,,,,,bespoke_choiceset_rhoInd125_muInd015.csv,bespoke_choicesets/bespoke_choiceset_rhoInd125_muInd015.csv,125,15,0,0,0,0,1,,,,,,,,,,,,,,,,,,,,,,,,,,,,,,,,,,,,,,,,,,,,,,,,,,,,,,,,,,,,,,,,,,,,,,,,,,,,,,,,,,,,,,,,,
,,62b083f9ca87faa7a75c0235,2022-09-08_14h03.39.937,CGTgamblingSpanTasks,2022.2.1,Win32,59.89099838,,,,,,,,,,,,,,,,,,,,,,,,,,,,,,,,,,,,,,,,,,,,,,,,,,,,,,,,,,,,,,,,,,,,,,,,,,,,,,,,,,,,,,,,,,,,,,,,,,,,,,,,,,,,,,,,,,,,,,,,,,,,,,,,,,,,,,,
,,62b083f9ca87faa7a75c0235,2022-09-08_14h03.39.937,CGTgamblingSpanTasks,2022.2.1,Win32,59.89099838,,,,,,,,,,,,,,,,,,,,,,,,,,,,,,,,,,,,,,,,,,,,,,,v,367.1705,,,,,,,,,,,,,,,,,,,,,,,,,,,,,,,,,,,,,,,,,,,,,,,,,,,,,,,,,,,,,,,,,,,,,,,,,,,,,,,,,,,,,,,
,,62b083f9ca87faa7a75c0235,2022-09-08_14h03.39.937,CGTgamblingSpanTasks,2022.2.1,Win32,59.89099838,,,,,,,,3.9575,,,,,,,,,,,,,,2,n,0.0425,0,1,4.9575,1,,,,,,7.534278541,0,0.747140182,,,,,,,,,,,,,0,0,0,37,1,0.50012466,1,,,,,,,,,,,,,,,,,,,,,,,,,,,,,,,,,,,,,,,,,,,,,,,,,,,,,,,,,,,,,,,,,,,,,,,,,,,,,,,,
,,62b083f9ca87faa7a75c0235,2022-09-08_14h03.39.937,CGTgamblingSpanTasks,2022.2.1,Win32,59.89099838,,,,,,,,2.1154,,,,,,,,,,,,,,1,v,1.8846,23.0613391,1,3.6154,1.5,,,,,,23.0613391,0,2.387726776,,,,,,,,,,,,,0,1,1,69,1,0.488727763,1,,,,,,,,,,,,,,,,,,,,,,,,,,,,,,,,,,,,,,,,,,,,,,,,,,,,,,,,,,,,,,,,,,,,,,,,,,,,,,,,
,,62b083f9ca87faa7a75c0235,2022-09-08_14h03.39.937,CGTgamblingSpanTasks,2022.2.1,Win32,59.89099838,,,,,,,,1.7855,,,,,,,,,,,,,,2,v,2.2145,11.93550497,0,2.7855,1,,,,,,14.20587264,0,11.93550497,,,,,,,,,,,,,0,2,2,21,1,0.041340301,0,,,,,,,,,,,,,,,,,,,,,,,,,,,,,,,,,,,,,,,,,,,,,,,,,,,,,,,,,,,,,,,,,,,,,,,,,,,,,,,,
,,62b083f9ca87faa7a75c0235,2022-09-08_14h03.39.937,CGTgamblingSpanTasks,2022.2.1,Win32,59.89099838,,,,,,,,2.3837,,,,,,,,,,,,,,2,n,1.6163,28.13634754,1,3.3837,1,,,,,,28.13634754,0,2.532806323,,,,,,,,,,,,,0,3,3,28,1,0.525136524,1,,,,,,,,,,,,,,,,,,,,,,,,,,,,,,,,,,,,,,,,,,,,,,,,,,,,,,,,,,,,,,,,,,,,,,,,,,,,,,,,
,,62b083f9ca87faa7a75c0235,2022-09-08_14h03.39.937,CGTgamblingSpanTasks,2022.2.1,Win32,59.89099838,,,,,,,,1.5691,,,,,,,,,,,,,,2,n,2.4309,0,1,3.0691,1.5,,,,,,18.11029021,0,11.41737518,,,,,,,,,,,,,0,4,4,48,1,0.069445859,0,,,,,,,,,,,,,,,,,,,,,,,,,,,,,,,,,,,,,,,,,,,,,,,,,,,,,,,,,,,,,,,,,,,,,,,,,,,,,,,,
,,62b083f9ca87faa7a75c0235,2022-09-08_14h03.39.937,CGTgamblingSpanTasks,2022.2.1,Win32,59.89099838,,,,,,,,2.2228,,,,,,,,,,,,,,2,n,1.7772,28.18900855,1,3.2228,1,,,,,,28.18900855,0,0.05384276,,,,,,,,,,,,,0,5,5,55,1,0.919081308,0,,,,,,,,,,,,,,,,,,,,,,,,,,,,,,,,,,,,,,,,,,,,,,,,,,,,,,,,,,,,,,,,,,,,,,,,,,,,,,,,
,,62b083f9ca87faa7a75c0235,2022-09-08_14h03.39.937,CGTgamblingSpanTasks,2022.2.1,Win32,59.89099838,,,,,,,,2.4748,,,,,,,,,,,,,,1,v,1.5252,21.16780451,1,3.9748,1.5,,,,,,21.16780451,0,2.469465385,,,,,,,,,,,,,0,6,6,32,1,0.456531699,1,,,,,,,,,,,,,,,,,,,,,,,,,,,,,,,,,,,,,,,,,,,,,,,,,,,,,,,,,,,,,,,,,,,,,,,,,,,,,,,,
,,62b083f9ca87faa7a75c0235,2022-09-08_14h03.39.937,CGTgamblingSpanTasks,2022.2.1,Win32,59.89099838,,,,,,,,2.5752,,,,,,,,,,,,,,1,v,1.4248,26.36733703,1,3.5752,1,,,,,,26.36733703,0,2.201057101,,,,,,,,,,,,,0,7,7,90,1,0.544064207,1,,,,,,,,,,,,,,,,,,,,,,,,,,,,,,,,,,,,,,,,,,,,,,,,,,,,,,,,,,,,,,,,,,,,,,,,,,,,,,,,
,,62b083f9ca87faa7a75c0235,2022-09-08_14h03.39.937,CGTgamblingSpanTasks,2022.2.1,Win32,59.89099838,,,,,,,,2.7828,,,,,,,,,,,,,,1,v,1.2172,28.68598705,1,3.7828,1,,,,,,28.68598705,0,0.050674956,,,,,,,,,,,,,0,8,8,62,1,0.920905497,0,,,,,,,,,,,,,,,,,,,,,,,,,,,,,,,,,,,,,,,,,,,,,,,,,,,,,,,,,,,,,,,,,,,,,,,,,,,,,,,,
,,62b083f9ca87faa7a75c0235,2022-09-08_14h03.39.937,CGTgamblingSpanTasks,2022.2.1,Win32,59.89099838,,,,,,,,2.6005,,,,,,,,,,,,,,1,v,1.3995,10.05300841,1,4.1005,1.5,,,,,,10.05300841,0,8.512335864,,,,,,,,,,,,,0,9,9,74,1,0.040729225,0,,,,,,,,,,,,,,,,,,,,,,,,,,,,,,,,,,,,,,,,,,,,,,,,,,,,,,,,,,,,,,,,,,,,,,,,,,,,,,,,
,,62b083f9ca87faa7a75c0235,2022-09-08_14h03.39.937,CGTgamblingSpanTasks,2022.2.1,Win32,59.89099838,,,,,,,,2.4096,,,,,,,,,,,,,,2,v,1.5904,7.850775577,0,3.4096,1,,,,,,4.622707531,0,7.850775577,,,,,,,,,,,,,0,10,10,6,1,0.017737407,0,,,,,,,,,,,,,,,,,,,,,,,,,,,,,,,,,,,,,,,,,,,,,,,,,,,,,,,,,,,,,,,,,,,,,,,,,,,,,,,,
,,62b083f9ca87faa7a75c0235,2022-09-08_14h03.39.937,CGTgamblingSpanTasks,2022.2.1,Win32,59.89099838,,,,,,,,2.2064,,,,,,,,,,,,,,2,v,1.7936,11.42134125,0,3.2064,1,,,,,,12.9904115,0,11.42134125,,,,,,,,,,,,,0,11,11,118,1,0.037876033,0,,,,,,,,,,,,,,,,,,,,,,,,,,,,,,,,,,,,,,,,,,,,,,,,,,,,,,,,,,,,,,,,,,,,,,,,,,,,,,,,
,,62b083f9ca87faa7a75c0235,2022-09-08_14h03.39.937,CGTgamblingSpanTasks,2022.2.1,Win32,59.89099838,,,,,,,,2.5233,,,,,,,,,,,,,,2,n,1.4767,0,1,4.0233,1.5,,,,,,29.75778644,0,2.810531415,,,,,,,,,,,,,0,12,12,113,1,0.512824233,1,,,,,,,,,,,,,,,,,,,,,,,,,,,,,,,,,,,,,,,,,,,,,,,,,,,,,,,,,,,,,,,,,,,,,,,,,,,,,,,,
,,62b083f9ca87faa7a75c0235,2022-09-08_14h03.39.937,CGTgamblingSpanTasks,2022.2.1,Win32,59.89099838,,,,,,,,2.6242,,,,,,,,,,,,,,1,v,1.3758,19.58698544,1,3.6242,1,,,,,,19.58698544,0,9.936178001,,,,,,,,,,,,,0,13,13,77,1,0.098812204,0,,,,,,,,,,,,,,,,,,,,,,,,,,,,,,,,,,,,,,,,,,,,,,,,,,,,,,,,,,,,,,,,,,,,,,,,,,,,,,,,
,,62b083f9ca87faa7a75c0235,2022-09-08_14h03.39.937,CGTgamblingSpanTasks,2022.2.1,Win32,59.89099838,,,,,,,,2.8411,,,,,,,,,,,,,,2,n,1.1589,0,1,3.8411,1,,,,,,28.9381277,0,2.663622024,,,,,,,,,,,,,0,14,14,103,1,0.519453367,1,,,,,,,,,,,,,,,,,,,,,,,,,,,,,,,,,,,,,,,,,,,,,,,,,,,,,,,,,,,,,,,,,,,,,,,,,,,,,,,,
,,62b083f9ca87faa7a75c0235,2022-09-08_14h03.39.937,CGTgamblingSpanTasks,2022.2.1,Win32,59.89099838,,,,,,,,2.6335,,,,,,,,,,,,,,2,n,1.3665,18.50662664,1,4.1335,1.5,,,,,,18.50662664,0,0.052546026,,,,,,,,,,,,,0,15,15,112,1,0.908444837,0,,,,,,,,,,,,,,,,,,,,,,,,,,,,,,,,,,,,,,,,,,,,,,,,,,,,,,,,,,,,,,,,,,,,,,,,,,,,,,,,
,,62b083f9ca87faa7a75c0235,2022-09-08_14h03.39.937,CGTgamblingSpanTasks,2022.2.1,Win32,59.89099838,,,,,,,,2.5306,,,,,,,,,,,,,,2,n,1.4694,25.65316415,1,4.0306,1.5,,,,,,25.65316415,0,0.079652925,,,,,,,,,,,,,0,16,16,109,1,0.90568168,0,,,,,,,,,,,,,,,,,,,,,,,,,,,,,,,,,,,,,,,,,,,,,,,,,,,,,,,,,,,,,,,,,,,,,,,,,,,,,,,,
,,62b083f9ca87faa7a75c0235,2022-09-08_14h03.39.937,CGTgamblingSpanTasks,2022.2.1,Win32,59.89099838,,,,,,,,2.2606,,,,,,,,,,,,,,2,v,1.7394,7.50753835,0,3.2606,1,,,,,,2.231316635,0,7.50753835,,,,,,,,,,,,,0,17,17,29,1,0.010273427,0,,,,,,,,,,,,,,,,,,,,,,,,,,,,,,,,,,,,,,,,,,,,,,,,,,,,,,,,,,,,,,,,,,,,,,,,,,,,,,,,
,,62b083f9ca87faa7a75c0235,2022-09-08_14h03.39.937,CGTgamblingSpanTasks,2022.2.1,Win32,59.89099838,,,,,,,,2.5042,,,,,,,,,,,,,,1,v,1.4958,0,1,4.0042,1.5,,,,,,15.21435748,0,10.3417501,,,,,,,,,,,,,0,18,18,72,1,0.060969226,0,,,,,,,,,,,,,,,,,,,,,,,,,,,,,,,,,,,,,,,,,,,,,,,,,,,,,,,,,,,,,,,,,,,,,,,,,,,,,,,,
,,62b083f9ca87faa7a75c0235,2022-09-08_14h03.39.937,CGTgamblingSpanTasks,2022.2.1,Win32,59.89099838,,,,,,,,2.9236,,,,,,,,,,,,,,2,n,1.0764,15.87668502,1,3.9236,1,,,,,,15.87668502,0,8.42547829,,,,,,,,,,,,,0,19,19,56,1,0.092099462,0,,,,,,,,,,,,,,,,,,,,,,,,,,,,,,,,,,,,,,,,,,,,,,,,,,,,,,,,,,,,,,,,,,,,,,,,,,,,,,,,
,,62b083f9ca87faa7a75c0235,2022-09-08_14h03.39.937,CGTgamblingSpanTasks,2022.2.1,Win32,59.89099838,,,,,,,,2.6391,,,,,,,,,,,,,,1,v,1.3609,0,1,4.1391,1.5,,,,,,11.16819157,0,0.941456753,,,,,,,,,,,,,0,20,20,45,1,0.54163803,1,,,,,,,,,,,,,,,,,,,,,,,,,,,,,,,,,,,,,,,,,,,,,,,,,,,,,,,,,,,,,,,,,,,,,,,,,,,,,,,,
,,62b083f9ca87faa7a75c0235,2022-09-08_14h03.39.937,CGTgamblingSpanTasks,2022.2.1,Win32,59.89099838,,,,,,,,1.2712,,,,,,,,,,,,,,1,v,2.7288,0,1,2.7712,1.5,,,,,,25.56803059,0,2.543951743,,,,,,,,,,,,,0,21,21,41,1,0.499247217,1,,,,,,,,,,,,,,,,,,,,,,,,,,,,,,,,,,,,,,,,,,,,,,,,,,,,,,,,,,,,,,,,,,,,,,,,,,,,,,,,
,,62b083f9ca87faa7a75c0235,2022-09-08_14h03.39.937,CGTgamblingSpanTasks,2022.2.1,Win32,59.89099838,,,,,,,,3.0769,,,,,,,,,,,,,,1,v,0.9231,0,1,4.0769,1,,,,,,23.24777057,0,2.003482335,,,,,,,,,,,,,0,22,22,59,1,0.536135174,1,,,,,,,,,,,,,,,,,,,,,,,,,,,,,,,,,,,,,,,,,,,,,,,,,,,,,,,,,,,,,,,,,,,,,,,,,,,,,,,,
,,62b083f9ca87faa7a75c0235,2022-09-08_14h03.39.937,CGTgamblingSpanTasks,2022.2.1,Win32,59.89099838,,,,,,,,2.9136,,,,,,,,,,,,,,2,n,1.0864,0,1,3.9136,1,,,,,,27.53810185,0,0.097022401,,,,,,,,,,,,,0,23,23,50,1,0.901515865,0,,,,,,,,,,,,,,,,,,,,,,,,,,,,,,,,,,,,,,,,,,,,,,,,,,,,,,,,,,,,,,,,,,,,,,,,,,,,,,,,
,,62b083f9ca87faa7a75c0235,2022-09-08_14h03.39.937,CGTgamblingSpanTasks,2022.2.1,Win32,59.89099838,,,,,,,,3.0117,,,,,,,,,,,,,,1,v,0.9883,0,1,4.5117,1.5,,,,,,28.33977875,0,2.768313633,,,,,,,,,,,,,0,24,24,116,1,0.50406901,1,,,,,,,,,,,,,,,,,,,,,,,,,,,,,,,,,,,,,,,,,,,,,,,,,,,,,,,,,,,,,,,,,,,,,,,,,,,,,,,,
,,62b083f9ca87faa7a75c0235,2022-09-08_14h03.39.937,CGTgamblingSpanTasks,2022.2.1,Win32,59.89099838,,,,,,,,3.1805,,,,,,,,,,,,,,1,v,0.8195,26.11188619,1,4.6805,1.5,,,,,,26.11188619,0,0.081942421,,,,,,,,,,,,,0,25,25,105,1,0.905343856,0,,,,,,,,,,,,,,,,,,,,,,,,,,,,,,,,,,,,,,,,,,,,,,,,,,,,,,,,,,,,,,,,,,,,,,,,,,,,,,,,
,,62b083f9ca87faa7a75c0235,2022-09-08_14h03.39.937,CGTgamblingSpanTasks,2022.2.1,Win32,59.89099838,,,,,,,,2.871,,,,,,,,,,,,,,1,n,1.129,5.683635938,0,4.371,1.5,,,,,,4.941039335,0,5.683635938,,,,,,,,,,,,,0,26,26,9,1,0.025481984,0,,,,,,,,,,,,,,,,,,,,,,,,,,,,,,,,,,,,,,,,,,,,,,,,,,,,,,,,,,,,,,,,,,,,,,,,,,,,,,,,
,,62b083f9ca87faa7a75c0235,2022-09-08_14h03.39.937,CGTgamblingSpanTasks,2022.2.1,Win32,59.89099838,,,,,,,,2.6071,,,,,,,,,,,,,,1,v,1.3929,0,1,3.6071,1,,,,,,11.08143071,0,1.207538756,,,,,,,,,,,,,0,27,27,84,1,0.475047453,1,,,,,,,,,,,,,,,,,,,,,,,,,,,,,,,,,,,,,,,,,,,,,,,,,,,,,,,,,,,,,,,,,,,,,,,,,,,,,,,,
,,62b083f9ca87faa7a75c0235,2022-09-08_14h03.39.937,CGTgamblingSpanTasks,2022.2.1,Win32,59.89099838,,,,,,,,3.085,,,,,,,,,,,,,,2,n,0.915,22.62475578,1,4.585,1.5,,,,,,22.62475578,0,2.397643354,,,,,,,,,,,,,0,28,28,93,1,0.482527609,1,,,,,,,,,,,,,,,,,,,,,,,,,,,,,,,,,,,,,,,,,,,,,,,,,,,,,,,,,,,,,,,,,,,,,,,,,,,,,,,,
,,62b083f9ca87faa7a75c0235,2022-09-08_14h03.39.937,CGTgamblingSpanTasks,2022.2.1,Win32,59.89099838,,,,,,,,2.686,,,,,,,,,,,,,,1,v,1.314,20.31034258,1,3.686,1,,,,,,20.31034258,0,1.870404296,,,,,,,,,,,,,0,29,29,85,1,0.519325853,1,,,,,,,,,,,,,,,,,,,,,,,,,,,,,,,,,,,,,,,,,,,,,,,,,,,,,,,,,,,,,,,,,,,,,,,,,,,,,,,,
,,62b083f9ca87faa7a75c0235,2022-09-08_14h03.39.937,CGTgamblingSpanTasks,2022.2.1,Win32,59.89099838,,,,,,,,2.86,,,,,,,,,,,,,,1,n,1.14,2.208275162,0,4.36,1.5,,,,,,21.03408097,0,2.208275162,,,,,,,,,,,,,0,30,30,0,1,0.485031246,1,,,,,,,,,,,,,,,,,,,,,,,,,,,,,,,,,,,,,,,,,,,,,,,,,,,,,,,,,,,,,,,,,,,,,,,,,,,,,,,,
,,62b083f9ca87faa7a75c0235,2022-09-08_14h03.39.937,CGTgamblingSpanTasks,2022.2.1,Win32,59.89099838,,,,,,,,2.6583,,,,,,,,,,,,,,1,v,1.3417,26.4985979,1,3.6583,1,,,,,,26.4985979,0,0.051324376,,,,,,,,,,,,,0,31,31,106,1,0.918747215,0,,,,,,,,,,,,,,,,,,,,,,,,,,,,,,,,,,,,,,,,,,,,,,,,,,,,,,,,,,,,,,,,,,,,,,,,,,,,,,,,
,,62b083f9ca87faa7a75c0235,2022-09-08_14h03.39.937,CGTgamblingSpanTasks,2022.2.1,Win32,59.89099838,,,,,,,,2.6867,,,,,,,,,,,,,,1,v,1.3133,0,1,4.1867,1.5,,,,,,27.39221343,0,2.743407746,,,,,,,,,,,,,0,32,32,47,1,0.49752044,1,,,,,,,,,,,,,,,,,,,,,,,,,,,,,,,,,,,,,,,,,,,,,,,,,,,,,,,,,,,,,,,,,,,,,,,,,,,,,,,,
,,62b083f9ca87faa7a75c0235,2022-09-08_14h03.39.937,CGTgamblingSpanTasks,2022.2.1,Win32,59.89099838,,,,,,,,2.8609,,,,,,,,,,,,,,1,v,1.1391,0,1,4.3609,1.5,,,,,,27.7711693,0,2.320849632,,,,,,,,,,,,,0,33,33,94,1,0.543786368,1,,,,,,,,,,,,,,,,,,,,,,,,,,,,,,,,,,,,,,,,,,,,,,,,,,,,,,,,,,,,,,,,,,,,,,,,,,,,,,,,
,,62b083f9ca87faa7a75c0235,2022-09-08_14h03.39.937,CGTgamblingSpanTasks,2022.2.1,Win32,59.89099838,,,,,,,,2.4099,,,,,,,,,,,,,,1,v,1.5901,0,1,3.4099,1,,,,,,7.066129113,0,0.585581699,,,,,,,,,,,,,0,34,34,19,1,0.545860632,1,,,,,,,,,,,,,,,,,,,,,,,,,,,,,,,,,,,,,,,,,,,,,,,,,,,,,,,,,,,,,,,,,,,,,,,,,,,,,,,,
,,62b083f9ca87faa7a75c0235,2022-09-08_14h03.39.937,CGTgamblingSpanTasks,2022.2.1,Win32,59.89099838,,,,,,,,2.5394,,,,,,,,,,,,,,2,n,1.4606,0,1,3.5394,1,,,,,,22.25959835,0,0.065383587,,,,,,,,,,,,,0,35,35,97,1,0.907413875,0,,,,,,,,,,,,,,,,,,,,,,,,,,,,,,,,,,,,,,,,,,,,,,,,,,,,,,,,,,,,,,,,,,,,,,,,,,,,,,,,
,,62b083f9ca87faa7a75c0235,2022-09-08_14h03.39.937,CGTgamblingSpanTasks,2022.2.1,Win32,59.89099838,,,,,,,,2.3204,,,,,,,,,,,,,,2,n,1.6796,27.4965044,1,3.8204,1.5,,,,,,27.4965044,0,2.461467004,,,,,,,,,,,,,0,36,36,36,1,0.526550878,1,,,,,,,,,,,,,,,,,,,,,,,,,,,,,,,,,,,,,,,,,,,,,,,,,,,,,,,,,,,,,,,,,,,,,,,,,,,,,,,,
,,62b083f9ca87faa7a75c0235,2022-09-08_14h03.39.937,CGTgamblingSpanTasks,2022.2.1,Win32,59.89099838,,,,,,,,2.7099,,,,,,,,,,,,,,2,n,1.2901,0,1,3.7099,1,,,,,,25.26994993,0,2.78925142,,,,,,,,,,,,,0,37,37,108,1,0.471582922,1,,,,,,,,,,,,,,,,,,,,,,,,,,,,,,,,,,,,,,,,,,,,,,,,,,,,,,,,,,,,,,,,,,,,,,,,,,,,,,,,
,,62b083f9ca87faa7a75c0235,2022-09-08_14h03.39.937,CGTgamblingSpanTasks,2022.2.1,Win32,59.89099838,,,,,,,,2.4913,,,,,,,,,,,,,,2,n,1.5087,21.17800335,1,3.4913,1,,,,,,21.17800335,0,0.059830985,,,,,,,,,,,,,0,38,38,67,1,0.908594974,0,,,,,,,,,,,,,,,,,,,,,,,,,,,,,,,,,,,,,,,,,,,,,,,,,,,,,,,,,,,,,,,,,,,,,,,,,,,,,,,,
,,62b083f9ca87faa7a75c0235,2022-09-08_14h03.39.937,CGTgamblingSpanTasks,2022.2.1,Win32,59.89099838,,,,,,,,2.0066,,,,,,,,,,,,,,1,n,1.9934,6.833409611,0,3.0066,1,,,,,,6.325091157,0,6.833409611,,,,,,,,,,,,,0,39,39,58,1,0.027113638,0,,,,,,,,,,,,,,,,,,,,,,,,,,,,,,,,,,,,,,,,,,,,,,,,,,,,,,,,,,,,,,,,,,,,,,,,,,,,,,,,
,,62b083f9ca87faa7a75c0235,2022-09-08_14h03.39.937,CGTgamblingSpanTasks,2022.2.1,Win32,59.89099838,,,,,,,,2.3629,,,,,,,,,,,,,,1,v,1.6371,27.77179191,1,3.8629,1.5,,,,,,27.77179191,0,0.074524436,,,,,,,,,,,,,0,40,40,99,1,0.910114387,0,,,,,,,,,,,,,,,,,,,,,,,,,,,,,,,,,,,,,,,,,,,,,,,,,,,,,,,,,,,,,,,,,,,,,,,,,,,,,,,,
,,62b083f9ca87faa7a75c0235,2022-09-08_14h03.39.937,CGTgamblingSpanTasks,2022.2.1,Win32,59.89099838,,,,,,,,2.5056,,,,,,,,,,,,,,1,v,1.4944,0,1,4.0056,1.5,,,,,,21.39646914,0,0.072474078,,,,,,,,,,,,,0,41,41,3,1,0.902848133,0,,,,,,,,,,,,,,,,,,,,,,,,,,,,,,,,,,,,,,,,,,,,,,,,,,,,,,,,,,,,,,,,,,,,,,,,,,,,,,,,
,,62b083f9ca87faa7a75c0235,2022-09-08_14h03.39.937,CGTgamblingSpanTasks,2022.2.1,Win32,59.89099838,,,,,,,,2.3742,,,,,,,,,,,,,,1,v,1.6258,0,1,3.3742,1,,,,,,27.88092897,0,2.771762788,,,,,,,,,,,,,0,42,42,117,1,0.499466648,1,,,,,,,,,,,,,,,,,,,,,,,,,,,,,,,,,,,,,,,,,,,,,,,,,,,,,,,,,,,,,,,,,,,,,,,,,,,,,,,,
,,62b083f9ca87faa7a75c0235,2022-09-08_14h03.39.937,CGTgamblingSpanTasks,2022.2.1,Win32,59.89099838,,,,,,,,2.7799,,,,,,,,,,,,,,1,v,1.2201,29.76099779,1,4.2799,1.5,,,,,,29.76099779,0,0.095763086,,,,,,,,,,,,,0,43,43,35,1,0.904537896,0,,,,,,,,,,,,,,,,,,,,,,,,,,,,,,,,,,,,,,,,,,,,,,,,,,,,,,,,,,,,,,,,,,,,,,,,,,,,,,,,
,,62b083f9ca87faa7a75c0235,2022-09-08_14h03.39.937,CGTgamblingSpanTasks,2022.2.1,Win32,59.89099838,,,,,,,,2.8213,,,,,,,,,,,,,,1,v,1.1787,0,1,4.3213,1.5,,,,,,27.12325385,0,0.080932047,,,,,,,,,,,,,0,44,44,14,1,0.906929184,0,,,,,,,,,,,,,,,,,,,,,,,,,,,,,,,,,,,,,,,,,,,,,,,,,,,,,,,,,,,,,,,,,,,,,,,,,,,,,,,,
,,62b083f9ca87faa7a75c0235,2022-09-08_14h03.39.937,CGTgamblingSpanTasks,2022.2.1,Win32,59.89099838,,,,,,,,2.988,,,,,,,,,,,,,,1,v,1.012,21.00799273,1,4.488,1.5,,,,,,21.00799273,0,0.067969053,,,,,,,,,,,,,0,45,45,92,1,0.904360262,0,,,,,,,,,,,,,,,,,,,,,,,,,,,,,,,,,,,,,,,,,,,,,,,,,,,,,,,,,,,,,,,,,,,,,,,,,,,,,,,,
,,62b083f9ca87faa7a75c0235,2022-09-08_14h03.39.937,CGTgamblingSpanTasks,2022.2.1,Win32,59.89099838,,,,,,,,2.488,,,,,,,,,,,,,,1,n,1.512,1.878232496,0,3.988,1.5,,,,,,17.92584289,0,1.878232496,,,,,,,,,,,,,0,46,46,5,1,0.485559263,1,,,,,,,,,,,,,,,,,,,,,,,,,,,,,,,,,,,,,,,,,,,,,,,,,,,,,,,,,,,,,,,,,,,,,,,,,,,,,,,,
,,62b083f9ca87faa7a75c0235,2022-09-08_14h03.39.937,CGTgamblingSpanTasks,2022.2.1,Win32,59.89099838,,,,,,,,3.0044,,,,,,,,,,,,,,2,n,0.9956,0,1,4.0044,1,,,,,,22.86604061,0,2.293289792,,,,,,,,,,,,,0,47,47,51,1,0.49715382,1,,,,,,,,,,,,,,,,,,,,,,,,,,,,,,,,,,,,,,,,,,,,,,,,,,,,,,,,,,,,,,,,,,,,,,,,,,,,,,,,
,,62b083f9ca87faa7a75c0235,2022-09-08_14h03.39.937,CGTgamblingSpanTasks,2022.2.1,Win32,59.89099838,,,,,,,,3.2704,,,,,,,,,,,,,,1,v,0.7296,0,1,4.7704,1.5,,,,,,14.3363647,0,1.396635362,,,,,,,,,,,,,0,48,48,78,1,0.504775474,1,,,,,,,,,,,,,,,,,,,,,,,,,,,,,,,,,,,,,,,,,,,,,,,,,,,,,,,,,,,,,,,,,,,,,,,,,,,,,,,,
,,62b083f9ca87faa7a75c0235,2022-09-08_14h03.39.937,CGTgamblingSpanTasks,2022.2.1,Win32,59.89099838,,,,,,,,3.0255,,,,,,,,,,,,,,2,n,0.9745,27.60724521,1,4.0255,1,,,,,,27.60724521,0,0.088432325,,,,,,,,,,,,,0,49,49,17,1,0.904684186,0,,,,,,,,,,,,,,,,,,,,,,,,,,,,,,,,,,,,,,,,,,,,,,,,,,,,,,,,,,,,,,,,,,,,,,,,,,,,,,,,
,,62b083f9ca87faa7a75c0235,2022-09-08_14h03.39.937,CGTgamblingSpanTasks,2022.2.1,Win32,59.89099838,,,,,,,,2.9638,,,,,,,,,,,,,,1,v,1.0362,0,1,4.4638,1.5,,,,,,17.64114152,0,10.68505773,,,,,,,,,,,,,0,50,50,98,1,0.074299362,0,,,,,,,,,,,,,,,,,,,,,,,,,,,,,,,,,,,,,,,,,,,,,,,,,,,,,,,,,,,,,,,,,,,,,,,,,,,,,,,,
,,62b083f9ca87faa7a75c0235,2022-09-08_14h03.39.937,CGTgamblingSpanTasks,2022.2.1,Win32,59.89099838,,,,,,,,3.1046,,,,,,,,,,,,,,2,n,0.8954,0,1,4.1046,1,,,,,,9.012590634,0,1.002188111,,,,,,,,,,,,,0,51,51,12,1,0.46958041,1,,,,,,,,,,,,,,,,,,,,,,,,,,,,,,,,,,,,,,,,,,,,,,,,,,,,,,,,,,,,,,,,,,,,,,,,,,,,,,,,
,,62b083f9ca87faa7a75c0235,2022-09-08_14h03.39.937,CGTgamblingSpanTasks,2022.2.1,Win32,59.89099838,,,,,,,,3.1513,,,,,,,,,,,,,,2,v,0.8487,7.646213173,0,4.6513,1.5,,,,,,2.042350179,0,7.646213173,,,,,,,,,,,,,0,52,52,53,1,0.009522273,0,,,,,,,,,,,,,,,,,,,,,,,,,,,,,,,,,,,,,,,,,,,,,,,,,,,,,,,,,,,,,,,,,,,,,,,,,,,,,,,,
,,62b083f9ca87faa7a75c0235,2022-09-08_14h03.39.937,CGTgamblingSpanTasks,2022.2.1,Win32,59.89099838,,,,,,,,3.1009,,,,,,,,,,,,,,1,n,0.8991,4.462262453,0,4.1009,1,,,,,,0.192759042,0,4.462262453,,,,,,,,,,,,,0,53,53,52,1,0.003553223,0,,,,,,,,,,,,,,,,,,,,,,,,,,,,,,,,,,,,,,,,,,,,,,,,,,,,,,,,,,,,,,,,,,,,,,,,,,,,,,,,
,,62b083f9ca87faa7a75c0235,2022-09-08_14h03.39.937,CGTgamblingSpanTasks,2022.2.1,Win32,59.89099838,,,,,,,,3.1386,,,,,,,,,,,,,,2,n,0.8614,24.35708027,1,4.6386,1.5,,,,,,24.35708027,0,2.738695417,,,,,,,,,,,,,0,54,54,114,1,0.466573634,1,,,,,,,,,,,,,,,,,,,,,,,,,,,,,,,,,,,,,,,,,,,,,,,,,,,,,,,,,,,,,,,,,,,,,,,,,,,,,,,,
,,62b083f9ca87faa7a75c0235,2022-09-08_14h03.39.937,CGTgamblingSpanTasks,2022.2.1,Win32,59.89099838,,,,,,,,2.7649,,,,,,,,,,,,,,1,v,1.2351,0,1,4.2649,1.5,,,,,,8.670591867,0,1.025847652,,,,,,,,,,,,,0,55,55,18,1,0.452680459,1,,,,,,,,,,,,,,,,,,,,,,,,,,,,,,,,,,,,,,,,,,,,,,,,,,,,,,,,,,,,,,,,,,,,,,,,,,,,,,,,
,,62b083f9ca87faa7a75c0235,2022-09-08_14h03.39.937,CGTgamblingSpanTasks,2022.2.1,Win32,59.89099838,,,,,,,,3.1897,,,,,,,,,,,,,,2,n,0.8103,24.479109,1,4.6897,1.5,,,,,,24.479109,0,0.089582697,,,,,,,,,,,,,0,56,56,89,1,0.900200232,0,,,,,,,,,,,,,,,,,,,,,,,,,,,,,,,,,,,,,,,,,,,,,,,,,,,,,,,,,,,,,,,,,,,,,,,,,,,,,,,,
,,62b083f9ca87faa7a75c0235,2022-09-08_14h03.39.937,CGTgamblingSpanTasks,2022.2.1,Win32,59.89099838,,,,,,,,3.1103,,,,,,,,,,,,,,2,n,0.8897,29.30724159,1,4.6103,1.5,,,,,,29.30724159,0,3.247012935,,,,,,,,,,,,,0,57,57,71,1,0.470571125,1,,,,,,,,,,,,,,,,,,,,,,,,,,,,,,,,,,,,,,,,,,,,,,,,,,,,,,,,,,,,,,,,,,,,,,,,,,,,,,,,
,,62b083f9ca87faa7a75c0235,2022-09-08_14h03.39.937,CGTgamblingSpanTasks,2022.2.1,Win32,59.89099838,,,,,,,,2.8123,,,,,,,,,,,,,,2,v,1.1877,8.830252162,0,4.3123,1.5,,,,,,15.73000491,0,8.830252162,,,,,,,,,,,,,0,58,58,95,1,0.084193143,0,,,,,,,,,,,,,,,,,,,,,,,,,,,,,,,,,,,,,,,,,,,,,,,,,,,,,,,,,,,,,,,,,,,,,,,,,,,,,,,,
,,62b083f9ca87faa7a75c0235,2022-09-08_14h03.39.937,CGTgamblingSpanTasks,2022.2.1,Win32,59.89099838,,,,,,,,2.0684,,,,,,,,,,,,,,1,n,1.9316,2.838865588,0,3.0684,1,,,,,,29.77342428,0,2.838865588,,,,,,,,,,,,,0,59,59,57,1,0.510363415,1,,,,,,,,,,,,,,,,,,,,,,,,,,,,,,,,,,,,,,,,,,,,,,,,,,,,,,,,,,,,,,,,,,,,,,,,,,,,,,,,
,,62b083f9ca87faa7a75c0235,2022-09-08_14h03.39.937,CGTgamblingSpanTasks,2022.2.1,Win32,59.89099838,,,,,,,,2.2213,,,,,,,,,,,,,,1,n,1.7787,3.877530383,0,3.2213,1,,,,,,3.471484939,0,3.877530383,,,,,,,,,,,,,0,60,60,40,1,0.02623078,0,,,,,,,,,,,,,,,,,,,,,,,,,,,,,,,,,,,,,,,,,,,,,,,,,,,,,,,,,,,,,,,,,,,,,,,,,,,,,,,,
,,62b083f9ca87faa7a75c0235,2022-09-08_14h03.39.937,CGTgamblingSpanTasks,2022.2.1,Win32,59.89099838,,,,,,,,2.6041,,,,,,,,,,,,,,1,n,1.3959,1.843597162,0,4.1041,1.5,,,,,,19.68065872,0,1.843597162,,,,,,,,,,,,,0,61,61,80,1,0.514941058,1,,,,,,,,,,,,,,,,,,,,,,,,,,,,,,,,,,,,,,,,,,,,,,,,,,,,,,,,,,,,,,,,,,,,,,,,,,,,,,,,
,,62b083f9ca87faa7a75c0235,2022-09-08_14h03.39.937,CGTgamblingSpanTasks,2022.2.1,Win32,59.89099838,,,,,,,,2.214,,,,,,,,,,,,,,2,n,1.786,0,1,3.714,1.5,,,,,,18.20422443,0,1.635040165,,,,,,,,,,,,,0,62,62,82,1,0.525708991,1,,,,,,,,,,,,,,,,,,,,,,,,,,,,,,,,,,,,,,,,,,,,,,,,,,,,,,,,,,,,,,,,,,,,,,,,,,,,,,,,
,,62b083f9ca87faa7a75c0235,2022-09-08_14h03.39.937,CGTgamblingSpanTasks,2022.2.1,Win32,59.89099838,,,,,,,,2.5859,,,,,,,,,,,,,,2,n,1.4141,0,1,3.5859,1,,,,,,27.94544945,0,2.32030209,,,,,,,,,,,,,0,63,63,115,1,0.545390564,1,,,,,,,,,,,,,,,,,,,,,,,,,,,,,,,,,,,,,,,,,,,,,,,,,,,,,,,,,,,,,,,,,,,,,,,,,,,,,,,,
,,62b083f9ca87faa7a75c0235,2022-09-08_14h03.39.937,CGTgamblingSpanTasks,2022.2.1,Win32,59.89099838,,,,,,,,2.8356,,,,,,,,,,,,,,2,n,1.1644,0,1,3.8356,1,,,,,,9.725876653,0,5.526483034,,,,,,,,,,,,,0,64,64,44,1,0.082550696,0,,,,,,,,,,,,,,,,,,,,,,,,,,,,,,,,,,,,,,,,,,,,,,,,,,,,,,,,,,,,,,,,,,,,,,,,,,,,,,,,
,,62b083f9ca87faa7a75c0235,2022-09-08_14h03.39.937,CGTgamblingSpanTasks,2022.2.1,Win32,59.89099838,,,,,,,,2.5691,,,,,,,,,,,,,,1,v,1.4309,0,1,4.0691,1.5,,,,,,25.0707644,0,0.067651625,,,,,,,,,,,,,0,65,65,70,1,0.909952349,0,,,,,,,,,,,,,,,,,,,,,,,,,,,,,,,,,,,,,,,,,,,,,,,,,,,,,,,,,,,,,,,,,,,,,,,,,,,,,,,,
,,62b083f9ca87faa7a75c0235,2022-09-08_14h03.39.937,CGTgamblingSpanTasks,2022.2.1,Win32,59.89099838,,,,,,,,2.8354,,,,,,,,,,,,,,2,n,1.1646,25.54604005,1,3.8354,1,,,,,,25.54604005,0,0.088845411,,,,,,,,,,,,,0,66,66,79,1,0.901957831,0,,,,,,,,,,,,,,,,,,,,,,,,,,,,,,,,,,,,,,,,,,,,,,,,,,,,,,,,,,,,,,,,,,,,,,,,,,,,,,,,
,,62b083f9ca87faa7a75c0235,2022-09-08_14h03.39.937,CGTgamblingSpanTasks,2022.2.1,Win32,59.89099838,,,,,,,,2.6427,,,,,,,,,,,,,,2,n,1.3573,8.363821911,1,3.6427,1,,,,,,8.363821911,0,6.781500919,,,,,,,,,,,,,0,67,67,61,1,0.044227959,0,,,,,,,,,,,,,,,,,,,,,,,,,,,,,,,,,,,,,,,,,,,,,,,,,,,,,,,,,,,,,,,,,,,,,,,,,,,,,,,,
,,62b083f9ca87faa7a75c0235,2022-09-08_14h03.39.937,CGTgamblingSpanTasks,2022.2.1,Win32,59.89099838,,,,,,,,2.8063,,,,,,,,,,,,,,1,v,1.1937,0,1,4.3063,1.5,,,,,,22.72923833,0,0.067170781,,,,,,,,,,,,,0,68,68,86,1,0.907226703,0,,,,,,,,,,,,,,,,,,,,,,,,,,,,,,,,,,,,,,,,,,,,,,,,,,,,,,,,,,,,,,,,,,,,,,,,,,,,,,,,
,,62b083f9ca87faa7a75c0235,2022-09-08_14h03.39.937,CGTgamblingSpanTasks,2022.2.1,Win32,59.89099838,,,,,,,,2.9361,,,,,,,,,,,,,,2,n,1.0639,28.9323758,1,3.9361,1,,,,,,28.9323758,0,2.893007023,,,,,,,,,,,,,0,69,69,11,1,0.497943321,1,,,,,,,,,,,,,,,,,,,,,,,,,,,,,,,,,,,,,,,,,,,,,,,,,,,,,,,,,,,,,,,,,,,,,,,,,,,,,,,,
,,62b083f9ca87faa7a75c0235,2022-09-08_14h03.39.937,CGTgamblingSpanTasks,2022.2.1,Win32,59.89099838,,,,,,,,2.708,,,,,,,,,,,,,,2,n,1.292,24.8002852,1,3.708,1,,,,,,24.8002852,0,0.071848086,,,,,,,,,,,,,0,70,70,16,1,0.90783559,0,,,,,,,,,,,,,,,,,,,,,,,,,,,,,,,,,,,,,,,,,,,,,,,,,,,,,,,,,,,,,,,,,,,,,,,,,,,,,,,,
,,62b083f9ca87faa7a75c0235,2022-09-08_14h03.39.937,CGTgamblingSpanTasks,2022.2.1,Win32,59.89099838,,,,,,,,2.7075,,,,,,,,,,,,,,1,n,1.2925,2.393193076,0,4.2075,1.5,,,,,,25.76582409,0,2.393193076,,,,,,,,,,,,,0,71,71,46,1,0.517129855,1,,,,,,,,,,,,,,,,,,,,,,,,,,,,,,,,,,,,,,,,,,,,,,,,,,,,,,,,,,,,,,,,,,,,,,,,,,,,,,,,
,,62b083f9ca87faa7a75c0235,2022-09-08_14h03.39.937,CGTgamblingSpanTasks,2022.2.1,Win32,59.89099838,,,,,,,,2.9757,,,,,,,,,,,,,,2,n,1.0243,27.38828234,1,3.9757,1,,,,,,27.38828234,0,0.0639233,,,,,,,,,,,,,0,72,72,43,1,0.914010176,0,,,,,,,,,,,,,,,,,,,,,,,,,,,,,,,,,,,,,,,,,,,,,,,,,,,,,,,,,,,,,,,,,,,,,,,,,,,,,,,,
,,62b083f9ca87faa7a75c0235,2022-09-08_14h03.39.937,CGTgamblingSpanTasks,2022.2.1,Win32,59.89099838,,,,,,,,3.1921,,,,,,,,,,,,,,1,v,0.8079,0,1,4.6921,1.5,,,,,,17.4320197,0,1.448620949,,,,,,,,,,,,,0,73,73,30,1,0.545178213,1,,,,,,,,,,,,,,,,,,,,,,,,,,,,,,,,,,,,,,,,,,,,,,,,,,,,,,,,,,,,,,,,,,,,,,,,,,,,,,,,
,,62b083f9ca87faa7a75c0235,2022-09-08_14h03.39.937,CGTgamblingSpanTasks,2022.2.1,Win32,59.89099838,,,,,,,,3.1884,,,,,,,,,,,,,,2,n,0.8116,0,1,4.1884,1,,,,,,27.37527992,0,2.860319095,,,,,,,,,,,,,0,74,74,39,1,0.486304156,1,,,,,,,,,,,,,,,,,,,,,,,,,,,,,,,,,,,,,,,,,,,,,,,,,,,,,,,,,,,,,,,,,,,,,,,,,,,,,,,,
,,62b083f9ca87faa7a75c0235,2022-09-08_14h03.39.937,CGTgamblingSpanTasks,2022.2.1,Win32,59.89099838,,,,,,,,2.9557,,,,,,,,,,,,,,1,v,1.0443,0,1,4.4557,1.5,,,,,,13.96521039,0,1.591282699,,,,,,,,,,,,,0,75,75,49,1,0.462956344,1,,,,,,,,,,,,,,,,,,,,,,,,,,,,,,,,,,,,,,,,,,,,,,,,,,,,,,,,,,,,,,,,,,,,,,,,,,,,,,,,
,,62b083f9ca87faa7a75c0235,2022-09-08_14h03.39.937,CGTgamblingSpanTasks,2022.2.1,Win32,59.89099838,,,,,,,,3.3103,,,,,,,,,,,,,,2,n,0.6897,19.5450126,1,4.3103,1,,,,,,19.5450126,0,2.123581464,,,,,,,,,,,,,0,76,76,65,1,0.475836144,1,,,,,,,,,,,,,,,,,,,,,,,,,,,,,,,,,,,,,,,,,,,,,,,,,,,,,,,,,,,,,,,,,,,,,,,,,,,,,,,,
,,62b083f9ca87faa7a75c0235,2022-09-08_14h03.39.937,CGTgamblingSpanTasks,2022.2.1,Win32,59.89099838,,,,,,,,3.0378,,,,,,,,,,,,,,2,n,0.9622,21.48443242,1,4.0378,1,,,,,,21.48443242,0,2.229247341,,,,,,,,,,,,,0,77,77,63,1,0.488155912,1,,,,,,,,,,,,,,,,,,,,,,,,,,,,,,,,,,,,,,,,,,,,,,,,,,,,,,,,,,,,,,,,,,,,,,,,,,,,,,,,
,,62b083f9ca87faa7a75c0235,2022-09-08_14h03.39.937,CGTgamblingSpanTasks,2022.2.1,Win32,59.89099838,,,,,,,,3.2746,,,,,,,,,,,,,,1,v,0.7254,27.93093084,1,4.2746,1,,,,,,27.93093084,0,0.050207531,,,,,,,,,,,,,0,78,78,83,1,0.920505936,0,,,,,,,,,,,,,,,,,,,,,,,,,,,,,,,,,,,,,,,,,,,,,,,,,,,,,,,,,,,,,,,,,,,,,,,,,,,,,,,,
,,62b083f9ca87faa7a75c0235,2022-09-08_14h03.39.937,CGTgamblingSpanTasks,2022.2.1,Win32,59.89099838,,,,,,,,3.3141,,,,,,,,,,,,,,2,n,0.6859,0,1,4.8141,1.5,,,,,,17.85020524,0,2.058701084,,,,,,,,,,,,,0,79,79,25,1,0.459662216,1,,,,,,,,,,,,,,,,,,,,,,,,,,,,,,,,,,,,,,,,,,,,,,,,,,,,,,,,,,,,,,,,,,,,,,,,,,,,,,,,
,,62b083f9ca87faa7a75c0235,2022-09-08_14h03.39.937,CGTgamblingSpanTasks,2022.2.1,Win32,59.89099838,,,,,,,,3.2937,,,,,,,,,,,,,,1,v,0.7063,0,1,4.7937,1.5,,,,,,22.87092517,0,0.059276504,,,,,,,,,,,,,0,80,80,27,1,0.911114935,0,,,,,,,,,,,,,,,,,,,,,,,,,,,,,,,,,,,,,,,,,,,,,,,,,,,,,,,,,,,,,,,,,,,,,,,,,,,,,,,,
,,62b083f9ca87faa7a75c0235,2022-09-08_14h03.39.937,CGTgamblingSpanTasks,2022.2.1,Win32,59.89099838,,,,,,,,2.8384,,,,,,,,,,,,,,1,v,1.1616,0,1,3.8384,1,,,,,,20.5726842,0,0.073558523,,,,,,,,,,,,,0,81,81,26,1,0.901008565,0,,,,,,,,,,,,,,,,,,,,,,,,,,,,,,,,,,,,,,,,,,,,,,,,,,,,,,,,,,,,,,,,,,,,,,,,,,,,,,,,
,,62b083f9ca87faa7a75c0235,2022-09-08_14h03.39.937,CGTgamblingSpanTasks,2022.2.1,Win32,59.89099838,,,,,,,,3.335,,,,,,,,,,,,,,1,v,0.665,22.0050376,1,4.335,1,,,,,,22.0050376,0,2.257683666,,,,,,,,,,,,,0,82,82,4,1,0.491147312,1,,,,,,,,,,,,,,,,,,,,,,,,,,,,,,,,,,,,,,,,,,,,,,,,,,,,,,,,,,,,,,,,,,,,,,,,,,,,,,,,
,,62b083f9ca87faa7a75c0235,2022-09-08_14h03.39.937,CGTgamblingSpanTasks,2022.2.1,Win32,59.89099838,,,,,,,,3.3241,,,,,,,,,,,,,,2,n,0.6759,19.3050342,1,4.3241,1,,,,,,19.3050342,0,2.030232342,,,,,,,,,,,,,0,83,83,73,1,0.484573227,1,,,,,,,,,,,,,,,,,,,,,,,,,,,,,,,,,,,,,,,,,,,,,,,,,,,,,,,,,,,,,,,,,,,,,,,,,,,,,,,,
,,62b083f9ca87faa7a75c0235,2022-09-08_14h03.39.937,CGTgamblingSpanTasks,2022.2.1,Win32,59.89099838,,,,,,,,3.114,,,,,,,,,,,,,,2,v,0.886,10.41201161,0,4.614,1.5,,,,,,6.307062696,0,10.41201161,,,,,,,,,,,,,0,84,84,23,1,0.018187109,0,,,,,,,,,,,,,,,,,,,,,,,,,,,,,,,,,,,,,,,,,,,,,,,,,,,,,,,,,,,,,,,,,,,,,,,,,,,,,,,,
,,62b083f9ca87faa7a75c0235,2022-09-08_14h03.39.937,CGTgamblingSpanTasks,2022.2.1,Win32,59.89099838,,,,,,,,3.1461,,,,,,,,,,,,,,2,n,0.8539,0,1,4.6461,1.5,,,,,,15.13999312,0,8.653432553,,,,,,,,,,,,,0,85,85,54,1,0.081767484,0,,,,,,,,,,,,,,,,,,,,,,,,,,,,,,,,,,,,,,,,,,,,,,,,,,,,,,,,,,,,,,,,,,,,,,,,,,,,,,,,
,,62b083f9ca87faa7a75c0235,2022-09-08_14h03.39.937,CGTgamblingSpanTasks,2022.2.1,Win32,59.89099838,,,,,,,,3.1185,,,,,,,,,,,,,,1,v,0.8815,18.51345298,1,4.1185,1,,,,,,18.51345298,0,1.932334278,,,,,,,,,,,,,0,86,86,31,1,0.48658696,1,,,,,,,,,,,,,,,,,,,,,,,,,,,,,,,,,,,,,,,,,,,,,,,,,,,,,,,,,,,,,,,,,,,,,,,,,,,,,,,,
,,62b083f9ca87faa7a75c0235,2022-09-08_14h03.39.937,CGTgamblingSpanTasks,2022.2.1,Win32,59.89099838,,,,,,,,2.8739,,,,,,,,,,,,,,1,v,1.1261,17.23907308,1,3.8739,1,,,,,,17.23907308,0,2.055848574,,,,,,,,,,,,,0,87,87,66,1,0.450504458,1,,,,,,,,,,,,,,,,,,,,,,,,,,,,,,,,,,,,,,,,,,,,,,,,,,,,,,,,,,,,,,,,,,,,,,,,,,,,,,,,
,,62b083f9ca87faa7a75c0235,2022-09-08_14h03.39.937,CGTgamblingSpanTasks,2022.2.1,Win32,59.89099838,,,,,,,,3.2233,,,,,,,,,,,,,,1,v,0.7767,0,1,4.7233,1.5,,,,,,14.11762686,0,8.579385201,,,,,,,,,,,,,0,88,88,60,1,0.073886959,0,,,,,,,,,,,,,,,,,,,,,,,,,,,,,,,,,,,,,,,,,,,,,,,,,,,,,,,,,,,,,,,,,,,,,,,,,,,,,,,,
,,62b083f9ca87faa7a75c0235,2022-09-08_14h03.39.937,CGTgamblingSpanTasks,2022.2.1,Win32,59.89099838,,,,,,,,3.3364,,,,,,,,,,,,,,1,v,0.6636,23.4214135,1,4.3364,1,,,,,,23.4214135,0,2.485985001,,,,,,,,,,,,,0,89,89,81,1,0.482105905,1,,,,,,,,,,,,,,,,,,,,,,,,,,,,,,,,,,,,,,,,,,,,,,,,,,,,,,,,,,,,,,,,,,,,,,,,,,,,,,,,
,,62b083f9ca87faa7a75c0235,2022-09-08_14h03.39.937,CGTgamblingSpanTasks,2022.2.1,Win32,59.89099838,,,,,,,,3.3722,,,,,,,,,,,,,,1,v,0.6278,24.57684014,1,4.3722,1,,,,,,24.57684014,0,0.061756244,,,,,,,,,,,,,0,90,90,68,1,0.911988903,0,,,,,,,,,,,,,,,,,,,,,,,,,,,,,,,,,,,,,,,,,,,,,,,,,,,,,,,,,,,,,,,,,,,,,,,,,,,,,,,,
,,62b083f9ca87faa7a75c0235,2022-09-08_14h03.39.937,CGTgamblingSpanTasks,2022.2.1,Win32,59.89099838,,,,,,,,2.6895,,,,,,,,,,,,,,1,n,1.3105,11.19311486,0,4.1895,1.5,,,,,,8.17598802,0,11.19311486,,,,,,,,,,,,,0,91,91,110,1,0.021568003,0,,,,,,,,,,,,,,,,,,,,,,,,,,,,,,,,,,,,,,,,,,,,,,,,,,,,,,,,,,,,,,,,,,,,,,,,,,,,,,,,
,,62b083f9ca87faa7a75c0235,2022-09-08_14h03.39.937,CGTgamblingSpanTasks,2022.2.1,Win32,59.89099838,,,,,,,,2.9078,,,,,,,,,,,,,,2,n,1.0922,19.36415485,1,4.4078,1.5,,,,,,19.36415485,0,1.966229494,,,,,,,,,,,,,0,92,92,96,1,0.493893111,1,,,,,,,,,,,,,,,,,,,,,,,,,,,,,,,,,,,,,,,,,,,,,,,,,,,,,,,,,,,,,,,,,,,,,,,,,,,,,,,,
,,62b083f9ca87faa7a75c0235,2022-09-08_14h03.39.937,CGTgamblingSpanTasks,2022.2.1,Win32,59.89099838,,,,,,,,3.1758,,,,,,,,,,,,,,2,v,0.8242,11.35147481,0,4.1758,1,,,,,,17.67865084,0,11.35147481,,,,,,,,,,,,,0,93,93,91,1,0.067304606,0,,,,,,,,,,,,,,,,,,,,,,,,,,,,,,,,,,,,,,,,,,,,,,,,,,,,,,,,,,,,,,,,,,,,,,,,,,,,,,,,
,,62b083f9ca87faa7a75c0235,2022-09-08_14h03.39.937,CGTgamblingSpanTasks,2022.2.1,Win32,59.89099838,,,,,,,,3.0423,,,,,,,,,,,,,,1,v,0.9577,0,1,4.5423,1.5,,,,,,27.57491653,0,2.99133314,,,,,,,,,,,,,0,94,94,10,1,0.47625893,1,,,,,,,,,,,,,,,,,,,,,,,,,,,,,,,,,,,,,,,,,,,,,,,,,,,,,,,,,,,,,,,,,,,,,,,,,,,,,,,,
,,62b083f9ca87faa7a75c0235,2022-09-08_14h03.39.937,CGTgamblingSpanTasks,2022.2.1,Win32,59.89099838,,,,,,,,3.1934,,,,,,,,,,,,,,1,n,0.8066,11.61882862,0,4.6934,1.5,,,,,,4.022743614,0,11.61882862,,,,,,,,,,,,,0,95,95,38,1,0.011499376,0,,,,,,,,,,,,,,,,,,,,,,,,,,,,,,,,,,,,,,,,,,,,,,,,,,,,,,,,,,,,,,,,,,,,,,,,,,,,,,,,
,,62b083f9ca87faa7a75c0235,2022-09-08_14h03.39.937,CGTgamblingSpanTasks,2022.2.1,Win32,59.89099838,,,,,,,,3.0902,,,,,,,,,,,,,,1,v,0.9098,15.43649625,1,4.0902,1,,,,,,15.43649625,0,1.65459324,,,,,,,,,,,,,0,96,96,33,1,0.479480163,1,,,,,,,,,,,,,,,,,,,,,,,,,,,,,,,,,,,,,,,,,,,,,,,,,,,,,,,,,,,,,,,,,,,,,,,,,,,,,,,,
,,62b083f9ca87faa7a75c0235,2022-09-08_14h03.39.937,CGTgamblingSpanTasks,2022.2.1,Win32,59.89099838,,,,,,,,2.7655,,,,,,,,,,,,,,1,n,1.2345,4.904872644,0,3.7655,1,,,,,,4.698775357,0,4.904872644,,,,,,,,,,,,,0,97,97,75,1,0.028064484,0,,,,,,,,,,,,,,,,,,,,,,,,,,,,,,,,,,,,,,,,,,,,,,,,,,,,,,,,,,,,,,,,,,,,,,,,,,,,,,,,
,,62b083f9ca87faa7a75c0235,2022-09-08_14h03.39.937,CGTgamblingSpanTasks,2022.2.1,Win32,59.89099838,,,,,,,,3.0737,,,,,,,,,,,,,,2,n,0.9263,0,1,4.5737,1.5,,,,,,17.30137174,0,1.716380842,,,,,,,,,,,,,0,98,98,20,1,0.500020285,1,,,,,,,,,,,,,,,,,,,,,,,,,,,,,,,,,,,,,,,,,,,,,,,,,,,,,,,,,,,,,,,,,,,,,,,,,,,,,,,,
,,62b083f9ca87faa7a75c0235,2022-09-08_14h03.39.937,CGTgamblingSpanTasks,2022.2.1,Win32,59.89099838,,,,,,,,3.2835,,,,,,,,,,,,,,2,n,0.7165,21.2188881,1,4.2835,1,,,,,,21.2188881,0,2.067660742,,,,,,,,,,,,,0,99,99,107,1,0.50470775,1,,,,,,,,,,,,,,,,,,,,,,,,,,,,,,,,,,,,,,,,,,,,,,,,,,,,,,,,,,,,,,,,,,,,,,,,,,,,,,,,
,,62b083f9ca87faa7a75c0235,2022-09-08_14h03.39.937,CGTgamblingSpanTasks,2022.2.1,Win32,59.89099838,,,,,,,,3.0542,,,,,,,,,,,,,,2,n,0.9458,0,1,4.5542,1.5,,,,,,23.59556381,0,2.464662219,,,,,,,,,,,,,0,100,100,22,1,0.486383205,1,,,,,,,,,,,,,,,,,,,,,,,,,,,,,,,,,,,,,,,,,,,,,,,,,,,,,,,,,,,,,,,,,,,,,,,,,,,,,,,,
,,62b083f9ca87faa7a75c0235,2022-09-08_14h03.39.937,CGTgamblingSpanTasks,2022.2.1,Win32,59.89099838,,,,,,,,2.9555,,,,,,,,,,,,,,2,n,1.0445,28.14876717,1,4.4555,1.5,,,,,,28.14876717,0,3.117906378,,,,,,,,,,,,,0,101,101,76,1,0.470636736,1,,,,,,,,,,,,,,,,,,,,,,,,,,,,,,,,,,,,,,,,,,,,,,,,,,,,,,,,,,,,,,,,,,,,,,,,,,,,,,,,
,,62b083f9ca87faa7a75c0235,2022-09-08_14h03.39.937,CGTgamblingSpanTasks,2022.2.1,Win32,59.89099838,,,,,,,,2.8535,,,,,,,,,,,,,,1,v,1.1465,0,1,4.3535,1.5,,,,,,25.21882231,0,0.085746782,,,,,,,,,,,,,0,102,102,64,1,0.90272076,0,,,,,,,,,,,,,,,,,,,,,,,,,,,,,,,,,,,,,,,,,,,,,,,,,,,,,,,,,,,,,,,,,,,,,,,,,,,,,,,,
,,62b083f9ca87faa7a75c0235,2022-09-08_14h03.39.937,CGTgamblingSpanTasks,2022.2.1,Win32,59.89099838,,,,,,,,2.6112,,,,,,,,,,,,,,2,n,1.3888,6.662965216,1,3.6112,1,,,,,,6.662965216,0,6.091504705,,,,,,,,,,,,,0,103,103,102,1,0.035087099,0,,,,,,,,,,,,,,,,,,,,,,,,,,,,,,,,,,,,,,,,,,,,,,,,,,,,,,,,,,,,,,,,,,,,,,,,,,,,,,,,
,,62b083f9ca87faa7a75c0235,2022-09-08_14h03.39.937,CGTgamblingSpanTasks,2022.2.1,Win32,59.89099838,,,,,,,,3.0291,,,,,,,,,,,,,,2,n,0.9709,0,1,4.5291,1.5,,,,,,17.5608285,0,1.825111303,,,,,,,,,,,,,0,104,104,104,1,0.487721116,1,,,,,,,,,,,,,,,,,,,,,,,,,,,,,,,,,,,,,,,,,,,,,,,,,,,,,,,,,,,,,,,,,,,,,,,,,,,,,,,,
,,62b083f9ca87faa7a75c0235,2022-09-08_14h03.39.937,CGTgamblingSpanTasks,2022.2.1,Win32,59.89099838,,,,,,,,3.3383,,,,,,,,,,,,,,1,v,0.6617,24.66627941,1,4.8383,1.5,,,,,,24.66627941,0,2.765426402,,,,,,,,,,,,,0,105,105,24,1,0.467360588,1,,,,,,,,,,,,,,,,,,,,,,,,,,,,,,,,,,,,,,,,,,,,,,,,,,,,,,,,,,,,,,,,,,,,,,,,,,,,,,,,
,,62b083f9ca87faa7a75c0235,2022-09-08_14h03.39.937,CGTgamblingSpanTasks,2022.2.1,Win32,59.89099838,,,,,,,,3.2161,,,,,,,,,,,,,,1,v,0.7839,0,1,4.2161,1,,,,,,13.4287264,0,1.317368801,,,,,,,,,,,,,0,106,106,100,1,0.502953125,1,,,,,,,,,,,,,,,,,,,,,,,,,,,,,,,,,,,,,,,,,,,,,,,,,,,,,,,,,,,,,,,,,,,,,,,,,,,,,,,,
,,62b083f9ca87faa7a75c0235,2022-09-08_14h03.39.937,CGTgamblingSpanTasks,2022.2.1,Win32,59.89099838,,,,,,,,2.8837,,,,,,,,,,,,,,2,n,1.1163,0,1,4.3837,1.5,,,,,,13.84410806,0,1.535873964,,,,,,,,,,,,,0,107,107,88,1,0.470209002,1,,,,,,,,,,,,,,,,,,,,,,,,,,,,,,,,,,,,,,,,,,,,,,,,,,,,,,,,,,,,,,,,,,,,,,,,,,,,,,,,
,,62b083f9ca87faa7a75c0235,2022-09-08_14h03.39.937,CGTgamblingSpanTasks,2022.2.1,Win32,59.89099838,,,,,,,,3.2307,,,,,,,,,,,,,,2,n,0.7693,27.2532142,1,4.7307,1.5,,,,,,27.2532142,0,0.08089327,,,,,,,,,,,,,0,108,108,119,1,0.907091845,0,,,,,,,,,,,,,,,,,,,,,,,,,,,,,,,,,,,,,,,,,,,,,,,,,,,,,,,,,,,,,,,,,,,,,,,,,,,,,,,,
,,62b083f9ca87faa7a75c0235,2022-09-08_14h03.39.937,CGTgamblingSpanTasks,2022.2.1,Win32,59.89099838,,,,,,,,2.7689,,,,,,,,,,,,,,2,v,1.2311,11.6744431,0,3.7689,1,,,,,,10.43004651,0,11.6744431,,,,,,,,,,,,,0,109,109,15,1,0.026176489,0,,,,,,,,,,,,,,,,,,,,,,,,,,,,,,,,,,,,,,,,,,,,,,,,,,,,,,,,,,,,,,,,,,,,,,,,,,,,,,,,
,,62b083f9ca87faa7a75c0235,2022-09-08_14h03.39.937,CGTgamblingSpanTasks,2022.2.1,Win32,59.89099838,,,,,,,,2.9366,,,,,,,,,,,,,,2,n,1.0634,0,1,3.9366,1,,,,,,28.94627214,0,2.701896413,,,,,,,,,,,,,0,110,110,111,1,0.515860759,1,,,,,,,,,,,,,,,,,,,,,,,,,,,,,,,,,,,,,,,,,,,,,,,,,,,,,,,,,,,,,,,,,,,,,,,,,,,,,,,,
,,62b083f9ca87faa7a75c0235,2022-09-08_14h03.39.937,CGTgamblingSpanTasks,2022.2.1,Win32,59.89099838,,,,,,,,2.6688,,,,,,,,,,,,,,1,v,1.3312,8.217594828,1,3.6688,1,,,,,,8.217594828,0,0.951019374,,,,,,,,,,,,,0,111,111,87,1,0.458722936,1,,,,,,,,,,,,,,,,,,,,,,,,,,,,,,,,,,,,,,,,,,,,,,,,,,,,,,,,,,,,,,,,,,,,,,,,,,,,,,,,
,,62b083f9ca87faa7a75c0235,2022-09-08_14h03.39.937,CGTgamblingSpanTasks,2022.2.1,Win32,59.89099838,,,,,,,,2.9222,,,,,,,,,,,,,,1,v,1.0778,18.16238569,1,4.4222,1.5,,,,,,18.16238569,0,1.540604093,,,,,,,,,,,,,0,112,112,34,1,0.540092491,1,,,,,,,,,,,,,,,,,,,,,,,,,,,,,,,,,,,,,,,,,,,,,,,,,,,,,,,,,,,,,,,,,,,,,,,,,,,,,,,,
,,62b083f9ca87faa7a75c0235,2022-09-08_14h03.39.937,CGTgamblingSpanTasks,2022.2.1,Win32,59.89099838,,,,,,,,2.6726,,,,,,,,,,,,,,1,v,1.3274,0,1,3.6726,1,,,,,,26.16821818,0,0.093528069,,,,,,,,,,,,,0,113,113,42,1,0.901022427,0,,,,,,,,,,,,,,,,,,,,,,,,,,,,,,,,,,,,,,,,,,,,,,,,,,,,,,,,,,,,,,,,,,,,,,,,,,,,,,,,
,,62b083f9ca87faa7a75c0235,2022-09-08_14h03.39.937,CGTgamblingSpanTasks,2022.2.1,Win32,59.89099838,,,,,,,,2.6769,,,,,,,,,,,,,,2,v,1.3231,4.251676631,0,3.6769,1,,,,,,3.395192929,0,4.251676631,,,,,,,,,,,,,0,114,114,7,1,0.023467153,0,,,,,,,,,,,,,,,,,,,,,,,,,,,,,,,,,,,,,,,,,,,,,,,,,,,,,,,,,,,,,,,,,,,,,,,,,,,,,,,,
,,62b083f9ca87faa7a75c0235,2022-09-08_14h03.39.937,CGTgamblingSpanTasks,2022.2.1,Win32,59.89099838,,,,,,,,2.5547,,,,,,,,,,,,,,1,v,1.4453,21.7711579,1,4.0547,1.5,,,,,,21.7711579,0,2.502728921,,,,,,,,,,,,,0,115,115,101,1,0.460552621,1,,,,,,,,,,,,,,,,,,,,,,,,,,,,,,,,,,,,,,,,,,,,,,,,,,,,,,,,,,,,,,,,,,,,,,,,,,,,,,,,
,,62b083f9ca87faa7a75c0235,2022-09-08_14h03.39.937,CGTgamblingSpanTasks,2022.2.1,Win32,59.89099838,,,,,,,,3.1008,,,,,,,,,,,,,,2,n,0.8992,27.76752685,1,4.1008,1,,,,,,27.76752685,0,0.083968035,,,,,,,,,,,,,0,116,116,13,1,0.906513967,0,,,,,,,,,,,,,,,,,,,,,,,,,,,,,,,,,,,,,,,,,,,,,,,,,,,,,,,,,,,,,,,,,,,,,,,,,,,,,,,,
,,62b083f9ca87faa7a75c0235,2022-09-08_14h03.39.937,CGTgamblingSpanTasks,2022.2.1,Win32,59.89099838,,,,,,,,2.3393,,,,,,,,,,,,,,2,v,1.6607,11.39288827,0,3.8393,1.5,,,,,,20.97851654,0,11.39288827,,,,,,,,,,,,,0,117,117,2,1,0.088791079,0,,,,,,,,,,,,,,,,,,,,,,,,,,,,,,,,,,,,,,,,,,,,,,,,,,,,,,,,,,,,,,,,,,,,,,,,,,,,,,,,
,,62b083f9ca87faa7a75c0235,2022-09-08_14h03.39.937,CGTgamblingSpanTasks,2022.2.1,Win32,59.89099838,,,,,,,,3.0676,,,,,,,,,,,,,,1,v,0.9324,0,1,4.5676,1.5,,,,,,21.46599803,0,0.059789256,,,,,,,,,,,,,0,118,118,8,1,0.909019081,0,,,,,,,,,,,,,,,,,,,,,,,,,,,,,,,,,,,,,,,,,,,,,,,,,,,,,,,,,,,,,,,,,,,,,,,,,,,,,,,,
,,62b083f9ca87faa7a75c0235,2022-09-08_14h03.39.937,CGTgamblingSpanTasks,2022.2.1,Win32,59.89099838,,,,,,,,2.9647,,,,,,,,,,,,,,2,v,1.0353,10.31611309,0,3.9647,1,,,,,,19.30622782,0,10.31611309,,,,,,,,,,,,,0,119,119,1,1,0.091105656,0,,,,,,,,,,,,,,,,,,,,,,,,,,,,,,,,,,,,,,,,,,,,,,,,,,,,,,,,,,,,,,,,,,,,,,,,,,,,,,,,
,,62b083f9ca87faa7a75c0235,2022-09-08_14h03.39.937,CGTgamblingSpanTasks,2022.2.1,Win32,59.89099838,,,,,,,,,,,,,,,,,,,,,,,,,,,,,,,,,,,,,,,,,,,,,,,,,,,,,,,,return,7.9584,,,,,,,,,,,,,,,,,,,,,,,,,,,,,,,,,,,,,,,,,,,,,,,,,,,,,,,,,,,,,,,,,,,,,,,,,,,,,,
,,62b083f9ca87faa7a75c0235,2022-09-08_14h03.39.937,CGTgamblingSpanTasks,2022.2.1,Win32,59.89099838,,,,,,,,,,,,,,,,,,,,,,,,,,,,,,,,,,,,,,,,,,,,,,,,,,,,,,,,,,return,28.7254,,,,,,,,,,,,,,,,,,,,,,,,,,,,,,,,,,,,,,,,,,,,,,,,,,,,,,,,,,,,,,,,,,,,,,,,,,,,
,,62b083f9ca87faa7a75c0235,2022-09-08_14h03.39.937,CGTgamblingSpanTasks,2022.2.1,Win32,59.89099838,,,,,,,,,,,,,,,,,,,,,,,,,,,,,,,,,,,,,,,,,,,,,,,,,,,,,,,,,,,,return,24.1506,,,,,,,,,,,,,,,,,,,,,,,,,,,,,,,,,,,,,,,,,,,,,,,,,,,,,,,,,,,,,,,,,,,,,,,,,,
,,62b083f9ca87faa7a75c0235,2022-09-08_14h03.39.937,CGTgamblingSpanTasks,2022.2.1,Win32,59.89099838,,,,,,,,,,,,,,,,,,,,,,,,,,,,,,,,,,,,,,,,,,,,,,,,,,,,,,,,,,,,,,342,1,0.077777778,-0.389351908,1,0,0,cont_buttonPractice,0,0,0,0,1,3,342,24,2,42,,,,,,,,,,,,,,,,,,,,,,,,,,,,,,,,,,,,,,,,,,,,,,,,,,,,,,,,
,,62b083f9ca87faa7a75c0235,2022-09-08_14h03.39.937,CGTgamblingSpanTasks,2022.2.1,Win32,59.89099838,,,,,,,,,,,,,,,,,,,,,,,,,,,,,,,,,,,,,,,,,,,,,,,,,,,,,,,,,,,,,,937,1,0.077777778,-0.389351908,1,0,0,cont_buttonPractice,0,1,1,1,1,3,937,73,2,37,,,,,,,,,,,,,,,,,,,,,,,,,,,,,,,,,,,,,,,,,,,,,,,,,,,,,,,,
,,62b083f9ca87faa7a75c0235,2022-09-08_14h03.39.937,CGTgamblingSpanTasks,2022.2.1,Win32,59.89099838,,,,,,,,,,,,,,,,,,,,,,,,,,,,,,,,,,,,,,,,,,,,,,,,,,,,,,,,,,,,,,,,,,,,,,,,,,,,,,,,return,8.4713,,,,,,,,,,,,,,,,,,,,,,,,,,,,,,,,,,,,,,,,,,,,,,,,,,,,,,
,,62b083f9ca87faa7a75c0235,2022-09-08_14h03.39.937,CGTgamblingSpanTasks,2022.2.1,Win32,59.89099838,,,,,,,,,,,,,,,,,,,,,,,,,,,,,,,,,,,,,,,,,,,,,,,,,,,,,,,,,,,,,,,,,,,,,,,,,,,,,,,,,,"[2,9,1]",0,0,0,0,1,,,,,,,,,,,,,,,,,,,,,,,,,,,,,,,,,,,,,,,,,,,,,,,,
,,62b083f9ca87faa7a75c0235,2022-09-08_14h03.39.937,CGTgamblingSpanTasks,2022.2.1,Win32,59.89099838,,,,,,,,,,,,,,,,,,,,,,,,,,,,,,,,,,,,,,,,,,,,,,,,,,,,,,,,,,,,,,,,,,,,,,,,,,,,,,,,,,"[2,9,1]",1,0,1,0,1,,,,,,,,,,,,,,,,,,,,,,,,,,,,,,,,,,,,,,,,,,,,,,,,
,,62b083f9ca87faa7a75c0235,2022-09-08_14h03.39.937,CGTgamblingSpanTasks,2022.2.1,Win32,59.89099838,,,,,,,,,,,,,,,,,,,,,,,,,,,,,,,,,,,,,,,,,,,,,,,,,,,,,,,,,,,,,,,,,,,,,,,,,,,,,,,,,,"[2,9,1]",2,0,2,0,1,,,,,,,,,,,,,,,,,,,,,,,,,,,,,,,,,,,,,,,,,,,,,,,,
,,62b083f9ca87faa7a75c0235,2022-09-08_14h03.39.937,CGTgamblingSpanTasks,2022.2.1,Win32,59.89099838,,,,,,,,,,,,,,,,,,,,,,,,,,,,,,,,,,,,,,,,,,,,,,,,,,,,,,,,,,,,,,,1,,,,,,,,,,,,,,,,,,,,,,,,,291,0.077777778,-0.389351908,1,0,0,cont_button,0,0,0,0,1,1,,,,,,,,,,,,,,,,,,,,,,,,,,,,,,,,,,,
,,62b083f9ca87faa7a75c0235,2022-09-08_14h03.39.937,CGTgamblingSpanTasks,2022.2.1,Win32,59.89099838,,,,,,,,,,,,,,,,,,,,,,,,,,,,,,,,,,,,,,,,,,,,,,,,,,,,,,,,,,,,,,,,,,,,,,,,,,,,,,,,,,"[9,6,7,5]",0,0,0,0,1,,,,,,,,,,,,,,,,,,,,,,,,,,,,,,,,,,,,,,,,,,,,,,,,
,,62b083f9ca87faa7a75c0235,2022-09-08_14h03.39.937,CGTgamblingSpanTasks,2022.2.1,Win32,59.89099838,,,,,,,,,,,,,,,,,,,,,,,,,,,,,,,,,,,,,,,,,,,,,,,,,,,,,,,,,,,,,,,,,,,,,,,,,,,,,,,,,,"[9,6,7,5]",1,0,1,0,1,,,,,,,,,,,,,,,,,,,,,,,,,,,,,,,,,,,,,,,,,,,,,,,,
,,62b083f9ca87faa7a75c0235,2022-09-08_14h03.39.937,CGTgamblingSpanTasks,2022.2.1,Win32,59.89099838,,,,,,,,,,,,,,,,,,,,,,,,,,,,,,,,,,,,,,,,,,,,,,,,,,,,,,,,,,,,,,,,,,,,,,,,,,,,,,,,,,"[9,6,7,5]",2,0,2,0,1,,,,,,,,,,,,,,,,,,,,,,,,,,,,,,,,,,,,,,,,,,,,,,,,
,,62b083f9ca87faa7a75c0235,2022-09-08_14h03.39.937,CGTgamblingSpanTasks,2022.2.1,Win32,59.89099838,,,,,,,,,,,,,,,,,,,,,,,,,,,,,,,,,,,,,,,,,,,,,,,,,,,,,,,,,,,,,,,,,,,,,,,,,,,,,,,,,,"[9,6,7,5]",3,0,3,0,1,,,,,,,,,,,,,,,,,,,,,,,,,,,,,,,,,,,,,,,,,,,,,,,,
,,62b083f9ca87faa7a75c0235,2022-09-08_14h03.39.937,CGTgamblingSpanTasks,2022.2.1,Win32,59.89099838,,,,,,,,,,,,,,,,,,,,,,,,,,,,,,,,,,,,,,,,,,,,,,,,,,,,,,,,,,,,,,,1,,,,,,,,,,,,,,,,,,,,,,,,,9675,0.077777778,-0.389351908,1,0,0,cont_button,0,1,1,1,1,2,,,,,,,,,,,,,,,,,,,,,,,,,,,,,,,,,,,
,,62b083f9ca87faa7a75c0235,2022-09-08_14h03.39.937,CGTgamblingSpanTasks,2022.2.1,Win32,59.89099838,,,,,,,,,,,,,,,,,,,,,,,,,,,,,,,,,,,,,,,,,,,,,,,,,,,,,,,,,,,,,,,,,,,,,,,,,,,,,,,,,,"[1,7,9,3,8]",0,0,0,0,1,,,,,,,,,,,,,,,,,,,,,,,,,,,,,,,,,,,,,,,,,,,,,,,,
,,62b083f9ca87faa7a75c0235,2022-09-08_14h03.39.937,CGTgamblingSpanTasks,2022.2.1,Win32,59.89099838,,,,,,,,,,,,,,,,,,,,,,,,,,,,,,,,,,,,,,,,,,,,,,,,,,,,,,,,,,,,,,,,,,,,,,,,,,,,,,,,,,"[1,7,9,3,8]",1,0,1,0,1,,,,,,,,,,,,,,,,,,,,,,,,,,,,,,,,,,,,,,,,,,,,,,,,
,,62b083f9ca87faa7a75c0235,2022-09-08_14h03.39.937,CGTgamblingSpanTasks,2022.2.1,Win32,59.89099838,,,,,,,,,,,,,,,,,,,,,,,,,,,,,,,,,,,,,,,,,,,,,,,,,,,,,,,,,,,,,,,,,,,,,,,,,,,,,,,,,,"[1,7,9,3,8]",2,0,2,0,1,,,,,,,,,,,,,,,,,,,,,,,,,,,,,,,,,,,,,,,,,,,,,,,,
,,62b083f9ca87faa7a75c0235,2022-09-08_14h03.39.937,CGTgamblingSpanTasks,2022.2.1,Win32,59.89099838,,,,,,,,,,,,,,,,,,,,,,,,,,,,,,,,,,,,,,,,,,,,,,,,,,,,,,,,,,,,,,,,,,,,,,,,,,,,,,,,,,"[1,7,9,3,8]",3,0,3,0,1,,,,,,,,,,,,,,,,,,,,,,,,,,,,,,,,,,,,,,,,,,,,,,,,
,,62b083f9ca87faa7a75c0235,2022-09-08_14h03.39.937,CGTgamblingSpanTasks,2022.2.1,Win32,59.89099838,,,,,,,,,,,,,,,,,,,,,,,,,,,,,,,,,,,,,,,,,,,,,,,,,,,,,,,,,,,,,,,,,,,,,,,,,,,,,,,,,,"[1,7,9,3,8]",4,0,4,0,1,,,,,,,,,,,,,,,,,,,,,,,,,,,,,,,,,,,,,,,,,,,,,,,,
,,62b083f9ca87faa7a75c0235,2022-09-08_14h03.39.937,CGTgamblingSpanTasks,2022.2.1,Win32,59.89099838,,,,,,,,,,,,,,,,,,,,,,,,,,,,,,,,,,,,,,,,,,,,,,,,,,,,,,,,,,,,,,,1,,,,,,,,,,,,,,,,,,,,,,,,,17938,0.077777778,-0.389351908,1,0,0,cont_button,0,2,2,2,1,3,,,,,,,,,,,,,,,,,,,,,,,,,,,,,,,,,,,
,,62b083f9ca87faa7a75c0235,2022-09-08_14h03.39.937,CGTgamblingSpanTasks,2022.2.1,Win32,59.89099838,,,,,,,,,,,,,,,,,,,,,,,,,,,,,,,,,,,,,,,,,,,,,,,,,,,,,,,,,,,,,,,,,,,,,,,,,,,,,,,,,,"[2,9,6,4,1,5]",0,0,0,0,1,,,,,,,,,,,,,,,,,,,,,,,,,,,,,,,,,,,,,,,,,,,,,,,,
,,62b083f9ca87faa7a75c0235,2022-09-08_14h03.39.937,CGTgamblingSpanTasks,2022.2.1,Win32,59.89099838,,,,,,,,,,,,,,,,,,,,,,,,,,,,,,,,,,,,,,,,,,,,,,,,,,,,,,,,,,,,,,,,,,,,,,,,,,,,,,,,,,"[2,9,6,4,1,5]",1,0,1,0,1,,,,,,,,,,,,,,,,,,,,,,,,,,,,,,,,,,,,,,,,,,,,,,,,
,,62b083f9ca87faa7a75c0235,2022-09-08_14h03.39.937,CGTgamblingSpanTasks,2022.2.1,Win32,59.89099838,,,,,,,,,,,,,,,,,,,,,,,,,,,,,,,,,,,,,,,,,,,,,,,,,,,,,,,,,,,,,,,,,,,,,,,,,,,,,,,,,,"[2,9,6,4,1,5]",2,0,2,0,1,,,,,,,,,,,,,,,,,,,,,,,,,,,,,,,,,,,,,,,,,,,,,,,,
,,62b083f9ca87faa7a75c0235,2022-09-08_14h03.39.937,CGTgamblingSpanTasks,2022.2.1,Win32,59.89099838,,,,,,,,,,,,,,,,,,,,,,,,,,,,,,,,,,,,,,,,,,,,,,,,,,,,,,,,,,,,,,,,,,,,,,,,,,,,,,,,,,"[2,9,6,4,1,5]",3,0,3,0,1,,,,,,,,,,,,,,,,,,,,,,,,,,,,,,,,,,,,,,,,,,,,,,,,
,,62b083f9ca87faa7a75c0235,2022-09-08_14h03.39.937,CGTgamblingSpanTasks,2022.2.1,Win32,59.89099838,,,,,,,,,,,,,,,,,,,,,,,,,,,,,,,,,,,,,,,,,,,,,,,,,,,,,,,,,,,,,,,,,,,,,,,,,,,,,,,,,,"[2,9,6,4,1,5]",4,0,4,0,1,,,,,,,,,,,,,,,,,,,,,,,,,,,,,,,,,,,,,,,,,,,,,,,,
,,62b083f9ca87faa7a75c0235,2022-09-08_14h03.39.937,CGTgamblingSpanTasks,2022.2.1,Win32,59.89099838,,,,,,,,,,,,,,,,,,,,,,,,,,,,,,,,,,,,,,,,,,,,,,,,,,,,,,,,,,,,,,,,,,,,,,,,,,,,,,,,,,"[2,9,6,4,1,5]",5,0,5,0,1,,,,,,,,,,,,,,,,,,,,,,,,,,,,,,,,,,,,,,,,,,,,,,,,
,,62b083f9ca87faa7a75c0235,2022-09-08_14h03.39.937,CGTgamblingSpanTasks,2022.2.1,Win32,59.89099838,,,,,,,,,,,,,,,,,,,,,,,,,,,,,,,,,,,,,,,,,,,,,,,,,,,,,,,,,,,,,,,1,,,,,,,,,,,,,,,,,,,,,,,,,296415,0.077777778,-0.389351908,1,0,0,cont_button,0,3,3,3,1,4,,,,,,,,,,,,,,,,,,,,,,,,,,,,,,,,,,,
,,62b083f9ca87faa7a75c0235,2022-09-08_14h03.39.937,CGTgamblingSpanTasks,2022.2.1,Win32,59.89099838,,,,,,,,,,,,,,,,,,,,,,,,,,,,,,,,,,,,,,,,,,,,,,,,,,,,,,,,,,,,,,,,,,,,,,,,,,,,,,,,,,"[9,7,2,8,6,1,5]",0,0,0,0,1,,,,,,,,,,,,,,,,,,,,,,,,,,,,,,,,,,,,,,,,,,,,,,,,
,,62b083f9ca87faa7a75c0235,2022-09-08_14h03.39.937,CGTgamblingSpanTasks,2022.2.1,Win32,59.89099838,,,,,,,,,,,,,,,,,,,,,,,,,,,,,,,,,,,,,,,,,,,,,,,,,,,,,,,,,,,,,,,,,,,,,,,,,,,,,,,,,,"[9,7,2,8,6,1,5]",1,0,1,0,1,,,,,,,,,,,,,,,,,,,,,,,,,,,,,,,,,,,,,,,,,,,,,,,,
,,62b083f9ca87faa7a75c0235,2022-09-08_14h03.39.937,CGTgamblingSpanTasks,2022.2.1,Win32,59.89099838,,,,,,,,,,,,,,,,,,,,,,,,,,,,,,,,,,,,,,,,,,,,,,,,,,,,,,,,,,,,,,,,,,,,,,,,,,,,,,,,,,"[9,7,2,8,6,1,5]",2,0,2,0,1,,,,,,,,,,,,,,,,,,,,,,,,,,,,,,,,,,,,,,,,,,,,,,,,
,,62b083f9ca87faa7a75c0235,2022-09-08_14h03.39.937,CGTgamblingSpanTasks,2022.2.1,Win32,59.89099838,,,,,,,,,,,,,,,,,,,,,,,,,,,,,,,,,,,,,,,,,,,,,,,,,,,,,,,,,,,,,,,,,,,,,,,,,,,,,,,,,,"[9,7,2,8,6,1,5]",3,0,3,0,1,,,,,,,,,,,,,,,,,,,,,,,,,,,,,,,,,,,,,,,,,,,,,,,,
,,62b083f9ca87faa7a75c0235,2022-09-08_14h03.39.937,CGTgamblingSpanTasks,2022.2.1,Win32,59.89099838,,,,,,,,,,,,,,,,,,,,,,,,,,,,,,,,,,,,,,,,,,,,,,,,,,,,,,,,,,,,,,,,,,,,,,,,,,,,,,,,,,"[9,7,2,8,6,1,5]",4,0,4,0,1,,,,,,,,,,,,,,,,,,,,,,,,,,,,,,,,,,,,,,,,,,,,,,,,
,,62b083f9ca87faa7a75c0235,2022-09-08_14h03.39.937,CGTgamblingSpanTasks,2022.2.1,Win32,59.89099838,,,,,,,,,,,,,,,,,,,,,,,,,,,,,,,,,,,,,,,,,,,,,,,,,,,,,,,,,,,,,,,,,,,,,,,,,,,,,,,,,,"[9,7,2,8,6,1,5]",5,0,5,0,1,,,,,,,,,,,,,,,,,,,,,,,,,,,,,,,,,,,,,,,,,,,,,,,,
,,62b083f9ca87faa7a75c0235,2022-09-08_14h03.39.937,CGTgamblingSpanTasks,2022.2.1,Win32,59.89099838,,,,,,,,,,,,,,,,,,,,,,,,,,,,,,,,,,,,,,,,,,,,,,,,,,,,,,,,,,,,,,,,,,,,,,,,,,,,,,,,,,"[9,7,2,8,6,1,5]",6,0,6,0,1,,,,,,,,,,,,,,,,,,,,,,,,,,,,,,,,,,,,,,,,,,,,,,,,
,,62b083f9ca87faa7a75c0235,2022-09-08_14h03.39.937,CGTgamblingSpanTasks,2022.2.1,Win32,59.89099838,,,,,,,,,,,,,,,,,,,,,,,,,,,,,,,,,,,,,,,,,,,,,,,,,,,,,,,,,,,,,,,1,,,,,,,,,,,,,,,,,,,,,,,,,9728615,0.077777778,-0.389351908,1,0,0,cont_button,0,4,4,4,1,5,,,,,,,,,,,,,,,,,,,,,,,,,,,,,,,,,,,
,,62b083f9ca87faa7a75c0235,2022-09-08_14h03.39.937,CGTgamblingSpanTasks,2022.2.1,Win32,59.89099838,,,,,,,,,,,,,,,,,,,,,,,,,,,,,,,,,,,,,,,,,,,,,,,,,,,,,,,,,,,,,,,,,,,,,,,,,,,,,,,,,,"[9,4,5,7,1,3,2,8]",0,0,0,0,1,,,,,,,,,,,,,,,,,,,,,,,,,,,,,,,,,,,,,,,,,,,,,,,,
,,62b083f9ca87faa7a75c0235,2022-09-08_14h03.39.937,CGTgamblingSpanTasks,2022.2.1,Win32,59.89099838,,,,,,,,,,,,,,,,,,,,,,,,,,,,,,,,,,,,,,,,,,,,,,,,,,,,,,,,,,,,,,,,,,,,,,,,,,,,,,,,,,"[9,4,5,7,1,3,2,8]",1,0,1,0,1,,,,,,,,,,,,,,,,,,,,,,,,,,,,,,,,,,,,,,,,,,,,,,,,
,,62b083f9ca87faa7a75c0235,2022-09-08_14h03.39.937,CGTgamblingSpanTasks,2022.2.1,Win32,59.89099838,,,,,,,,,,,,,,,,,,,,,,,,,,,,,,,,,,,,,,,,,,,,,,,,,,,,,,,,,,,,,,,,,,,,,,,,,,,,,,,,,,"[9,4,5,7,1,3,2,8]",2,0,2,0,1,,,,,,,,,,,,,,,,,,,,,,,,,,,,,,,,,,,,,,,,,,,,,,,,
,,62b083f9ca87faa7a75c0235,2022-09-08_14h03.39.937,CGTgamblingSpanTasks,2022.2.1,Win32,59.89099838,,,,,,,,,,,,,,,,,,,,,,,,,,,,,,,,,,,,,,,,,,,,,,,,,,,,,,,,,,,,,,,,,,,,,,,,,,,,,,,,,,"[9,4,5,7,1,3,2,8]",3,0,3,0,1,,,,,,,,,,,,,,,,,,,,,,,,,,,,,,,,,,,,,,,,,,,,,,,,
,,62b083f9ca87faa7a75c0235,2022-09-08_14h03.39.937,CGTgamblingSpanTasks,2022.2.1,Win32,59.89099838,,,,,,,,,,,,,,,,,,,,,,,,,,,,,,,,,,,,,,,,,,,,,,,,,,,,,,,,,,,,,,,,,,,,,,,,,,,,,,,,,,"[9,4,5,7,1,3,2,8]",4,0,4,0,1,,,,,,,,,,,,,,,,,,,,,,,,,,,,,,,,,,,,,,,,,,,,,,,,
,,62b083f9ca87faa7a75c0235,2022-09-08_14h03.39.937,CGTgamblingSpanTasks,2022.2.1,Win32,59.89099838,,,,,,,,,,,,,,,,,,,,,,,,,,,,,,,,,,,,,,,,,,,,,,,,,,,,,,,,,,,,,,,,,,,,,,,,,,,,,,,,,,"[9,4,5,7,1,3,2,8]",5,0,5,0,1,,,,,,,,,,,,,,,,,,,,,,,,,,,,,,,,,,,,,,,,,,,,,,,,
,,62b083f9ca87faa7a75c0235,2022-09-08_14h03.39.937,CGTgamblingSpanTasks,2022.2.1,Win32,59.89099838,,,,,,,,,,,,,,,,,,,,,,,,,,,,,,,,,,,,,,,,,,,,,,,,,,,,,,,,,,,,,,,,,,,,,,,,,,,,,,,,,,"[9,4,5,7,1,3,2,8]",6,0,6,0,1,,,,,,,,,,,,,,,,,,,,,,,,,,,,,,,,,,,,,,,,,,,,,,,,
,,62b083f9ca87faa7a75c0235,2022-09-08_14h03.39.937,CGTgamblingSpanTasks,2022.2.1,Win32,59.89099838,,,,,,,,,,,,,,,,,,,,,,,,,,,,,,,,,,,,,,,,,,,,,,,,,,,,,,,,,,,,,,,,,,,,,,,,,,,,,,,,,,"[9,4,5,7,1,3,2,8]",7,0,7,0,1,,,,,,,,,,,,,,,,,,,,,,,,,,,,,,,,,,,,,,,,,,,,,,,,
,,62b083f9ca87faa7a75c0235,2022-09-08_14h03.39.937,CGTgamblingSpanTasks,2022.2.1,Win32,59.89099838,,,,,,,,,,,,,,,,,,,,,,,,,,,,,,,,,,,,,,,,,,,,,,,,,,,,,,,,,,,,,,,0,,,,,,,,,,,,,,,,,,,,,,,,,94571318,0.077777778,-0.389351908,1,0,0,cont_button,0,5,5,5,1,6,,,,,,,,,,,,,,,,,,,,,,,,,,,,,,,,,,,
,,62b083f9ca87faa7a75c0235,2022-09-08_14h03.39.937,CGTgamblingSpanTasks,2022.2.1,Win32,59.89099838,,,,,,,,,,,,,,,,,,,,,,,,,,,,,,,,,,,,,,,,,,,,,,,,,,,,,,,,,,,,,,,,,,,,,,,,,,,,,,,,,,"[6,7,9,4,8,2,3,5]",0,0,0,0,1,,,,,,,,,,,,,,,,,,,,,,,,,,,,,,,,,,,,,,,,,,,,,,,,
,,62b083f9ca87faa7a75c0235,2022-09-08_14h03.39.937,CGTgamblingSpanTasks,2022.2.1,Win32,59.89099838,,,,,,,,,,,,,,,,,,,,,,,,,,,,,,,,,,,,,,,,,,,,,,,,,,,,,,,,,,,,,,,,,,,,,,,,,,,,,,,,,,"[6,7,9,4,8,2,3,5]",1,0,1,0,1,,,,,,,,,,,,,,,,,,,,,,,,,,,,,,,,,,,,,,,,,,,,,,,,
,,62b083f9ca87faa7a75c0235,2022-09-08_14h03.39.937,CGTgamblingSpanTasks,2022.2.1,Win32,59.89099838,,,,,,,,,,,,,,,,,,,,,,,,,,,,,,,,,,,,,,,,,,,,,,,,,,,,,,,,,,,,,,,,,,,,,,,,,,,,,,,,,,"[6,7,9,4,8,2,3,5]",2,0,2,0,1,,,,,,,,,,,,,,,,,,,,,,,,,,,,,,,,,,,,,,,,,,,,,,,,
,,62b083f9ca87faa7a75c0235,2022-09-08_14h03.39.937,CGTgamblingSpanTasks,2022.2.1,Win32,59.89099838,,,,,,,,,,,,,,,,,,,,,,,,,,,,,,,,,,,,,,,,,,,,,,,,,,,,,,,,,,,,,,,,,,,,,,,,,,,,,,,,,,"[6,7,9,4,8,2,3,5]",3,0,3,0,1,,,,,,,,,,,,,,,,,,,,,,,,,,,,,,,,,,,,,,,,,,,,,,,,
,,62b083f9ca87faa7a75c0235,2022-09-08_14h03.39.937,CGTgamblingSpanTasks,2022.2.1,Win32,59.89099838,,,,,,,,,,,,,,,,,,,,,,,,,,,,,,,,,,,,,,,,,,,,,,,,,,,,,,,,,,,,,,,,,,,,,,,,,,,,,,,,,,"[6,7,9,4,8,2,3,5]",4,0,4,0,1,,,,,,,,,,,,,,,,,,,,,,,,,,,,,,,,,,,,,,,,,,,,,,,,
,,62b083f9ca87faa7a75c0235,2022-09-08_14h03.39.937,CGTgamblingSpanTasks,2022.2.1,Win32,59.89099838,,,,,,,,,,,,,,,,,,,,,,,,,,,,,,,,,,,,,,,,,,,,,,,,,,,,,,,,,,,,,,,,,,,,,,,,,,,,,,,,,,"[6,7,9,4,8,2,3,5]",5,0,5,0,1,,,,,,,,,,,,,,,,,,,,,,,,,,,,,,,,,,,,,,,,,,,,,,,,
,,62b083f9ca87faa7a75c0235,2022-09-08_14h03.39.937,CGTgamblingSpanTasks,2022.2.1,Win32,59.89099838,,,,,,,,,,,,,,,,,,,,,,,,,,,,,,,,,,,,,,,,,,,,,,,,,,,,,,,,,,,,,,,,,,,,,,,,,,,,,,,,,,"[6,7,9,4,8,2,3,5]",6,0,6,0,1,,,,,,,,,,,,,,,,,,,,,,,,,,,,,,,,,,,,,,,,,,,,,,,,
,,62b083f9ca87faa7a75c0235,2022-09-08_14h03.39.937,CGTgamblingSpanTasks,2022.2.1,Win32,59.89099838,,,,,,,,,,,,,,,,,,,,,,,,,,,,,,,,,,,,,,,,,,,,,,,,,,,,,,,,,,,,,,,,,,,,,,,,,,,,,,,,,,"[6,7,9,4,8,2,3,5]",7,0,7,0,1,,,,,,,,,,,,,,,,,,,,,,,,,,,,,,,,,,,,,,,,,,,,,,,,
,,62b083f9ca87faa7a75c0235,2022-09-08_14h03.39.937,CGTgamblingSpanTasks,2022.2.1,Win32,59.89099838,,,,,,,,,,,,,,,,,,,,,,,,,,,,,,,,,,,,,,,,,,,,,,,,,,,,,,,,,,,,,,,0,,,,,,,,,,,,,,,,,,,,,,,,,67948247,0.025,-0.401388889,1,0,0,cont_button,0,6,6,6,1,7,,,,,,,,,,,,,,,,,,,,,,,,,,,,,,,,,,,
,,62b083f9ca87faa7a75c0235,2022-09-08_14h03.39.937,CGTgamblingSpanTasks,2022.2.1,Win32,59.89099838,,,,,,,,,,,,,,,,,,,,,,,,,,,,,,,,,,,,,,,,,,,,,,,,,,,,,,,,,,,,,,,,,,,,,,,,,,,,,,,,,,"[3,1,9,6,7,5,4]",0,0,0,0,1,,,,,,,,,,,,,,,,,,,,,,,,,,,,,,,,,,,,,,,,,,,,,,,,
,,62b083f9ca87faa7a75c0235,2022-09-08_14h03.39.937,CGTgamblingSpanTasks,2022.2.1,Win32,59.89099838,,,,,,,,,,,,,,,,,,,,,,,,,,,,,,,,,,,,,,,,,,,,,,,,,,,,,,,,,,,,,,,,,,,,,,,,,,,,,,,,,,"[3,1,9,6,7,5,4]",1,0,1,0,1,,,,,,,,,,,,,,,,,,,,,,,,,,,,,,,,,,,,,,,,,,,,,,,,
,,62b083f9ca87faa7a75c0235,2022-09-08_14h03.39.937,CGTgamblingSpanTasks,2022.2.1,Win32,59.89099838,,,,,,,,,,,,,,,,,,,,,,,,,,,,,,,,,,,,,,,,,,,,,,,,,,,,,,,,,,,,,,,,,,,,,,,,,,,,,,,,,,"[3,1,9,6,7,5,4]",2,0,2,0,1,,,,,,,,,,,,,,,,,,,,,,,,,,,,,,,,,,,,,,,,,,,,,,,,
,,62b083f9ca87faa7a75c0235,2022-09-08_14h03.39.937,CGTgamblingSpanTasks,2022.2.1,Win32,59.89099838,,,,,,,,,,,,,,,,,,,,,,,,,,,,,,,,,,,,,,,,,,,,,,,,,,,,,,,,,,,,,,,,,,,,,,,,,,,,,,,,,,"[3,1,9,6,7,5,4]",3,0,3,0,1,,,,,,,,,,,,,,,,,,,,,,,,,,,,,,,,,,,,,,,,,,,,,,,,
,,62b083f9ca87faa7a75c0235,2022-09-08_14h03.39.937,CGTgamblingSpanTasks,2022.2.1,Win32,59.89099838,,,,,,,,,,,,,,,,,,,,,,,,,,,,,,,,,,,,,,,,,,,,,,,,,,,,,,,,,,,,,,,,,,,,,,,,,,,,,,,,,,"[3,1,9,6,7,5,4]",4,0,4,0,1,,,,,,,,,,,,,,,,,,,,,,,,,,,,,,,,,,,,,,,,,,,,,,,,
,,62b083f9ca87faa7a75c0235,2022-09-08_14h03.39.937,CGTgamblingSpanTasks,2022.2.1,Win32,59.89099838,,,,,,,,,,,,,,,,,,,,,,,,,,,,,,,,,,,,,,,,,,,,,,,,,,,,,,,,,,,,,,,,,,,,,,,,,,,,,,,,,,"[3,1,9,6,7,5,4]",5,0,5,0,1,,,,,,,,,,,,,,,,,,,,,,,,,,,,,,,,,,,,,,,,,,,,,,,,
,,62b083f9ca87faa7a75c0235,2022-09-08_14h03.39.937,CGTgamblingSpanTasks,2022.2.1,Win32,59.89099838,,,,,,,,,,,,,,,,,,,,,,,,,,,,,,,,,,,,,,,,,,,,,,,,,,,,,,,,,,,,,,,,,,,,,,,,,,,,,,,,,,"[3,1,9,6,7,5,4]",6,0,6,0,1,,,,,,,,,,,,,,,,,,,,,,,,,,,,,,,,,,,,,,,,,,,,,,,,
,,62b083f9ca87faa7a75c0235,2022-09-08_14h03.39.937,CGTgamblingSpanTasks,2022.2.1,Win32,59.89099838,,,,,,,,,,,,,,,,,,,,,,,,,,,,,,,,,,,,,,,,,,,,,,,,,,,,,,,,,,,,,,,1,,,,,,,,,,,,,,,,,,,,,,,,,3196754,0.094444444,-0.407870399,1,0,0,cont_button,0,7,7,7,1,8,,,,,,,,,,,,,,,,,,,,,,,,,,,,,,,,,,,
,,62b083f9ca87faa7a75c0235,2022-09-08_14h03.39.937,CGTgamblingSpanTasks,2022.2.1,Win32,59.89099838,,,,,,,,,,,,,,,,,,,,,,,,,,,,,,,,,,,,,,,,,,,,,,,,,,,,,,,,,,,,,,,,,,,,,,,,,,,,,,,,,,"[2,8,6,9,7,5,1,4]",0,0,0,0,1,,,,,,,,,,,,,,,,,,,,,,,,,,,,,,,,,,,,,,,,,,,,,,,,
,,62b083f9ca87faa7a75c0235,2022-09-08_14h03.39.937,CGTgamblingSpanTasks,2022.2.1,Win32,59.89099838,,,,,,,,,,,,,,,,,,,,,,,,,,,,,,,,,,,,,,,,,,,,,,,,,,,,,,,,,,,,,,,,,,,,,,,,,,,,,,,,,,"[2,8,6,9,7,5,1,4]",1,0,1,0,1,,,,,,,,,,,,,,,,,,,,,,,,,,,,,,,,,,,,,,,,,,,,,,,,
,,62b083f9ca87faa7a75c0235,2022-09-08_14h03.39.937,CGTgamblingSpanTasks,2022.2.1,Win32,59.89099838,,,,,,,,,,,,,,,,,,,,,,,,,,,,,,,,,,,,,,,,,,,,,,,,,,,,,,,,,,,,,,,,,,,,,,,,,,,,,,,,,,"[2,8,6,9,7,5,1,4]",2,0,2,0,1,,,,,,,,,,,,,,,,,,,,,,,,,,,,,,,,,,,,,,,,,,,,,,,,
,,62b083f9ca87faa7a75c0235,2022-09-08_14h03.39.937,CGTgamblingSpanTasks,2022.2.1,Win32,59.89099838,,,,,,,,,,,,,,,,,,,,,,,,,,,,,,,,,,,,,,,,,,,,,,,,,,,,,,,,,,,,,,,,,,,,,,,,,,,,,,,,,,"[2,8,6,9,7,5,1,4]",3,0,3,0,1,,,,,,,,,,,,,,,,,,,,,,,,,,,,,,,,,,,,,,,,,,,,,,,,
,,62b083f9ca87faa7a75c0235,2022-09-08_14h03.39.937,CGTgamblingSpanTasks,2022.2.1,Win32,59.89099838,,,,,,,,,,,,,,,,,,,,,,,,,,,,,,,,,,,,,,,,,,,,,,,,,,,,,,,,,,,,,,,,,,,,,,,,,,,,,,,,,,"[2,8,6,9,7,5,1,4]",4,0,4,0,1,,,,,,,,,,,,,,,,,,,,,,,,,,,,,,,,,,,,,,,,,,,,,,,,
,,62b083f9ca87faa7a75c0235,2022-09-08_14h03.39.937,CGTgamblingSpanTasks,2022.2.1,Win32,59.89099838,,,,,,,,,,,,,,,,,,,,,,,,,,,,,,,,,,,,,,,,,,,,,,,,,,,,,,,,,,,,,,,,,,,,,,,,,,,,,,,,,,"[2,8,6,9,7,5,1,4]",5,0,5,0,1,,,,,,,,,,,,,,,,,,,,,,,,,,,,,,,,,,,,,,,,,,,,,,,,
,,62b083f9ca87faa7a75c0235,2022-09-08_14h03.39.937,CGTgamblingSpanTasks,2022.2.1,Win32,59.89099838,,,,,,,,,,,,,,,,,,,,,,,,,,,,,,,,,,,,,,,,,,,,,,,,,,,,,,,,,,,,,,,,,,,,,,,,,,,,,,,,,,"[2,8,6,9,7,5,1,4]",6,0,6,0,1,,,,,,,,,,,,,,,,,,,,,,,,,,,,,,,,,,,,,,,,,,,,,,,,
,,62b083f9ca87faa7a75c0235,2022-09-08_14h03.39.937,CGTgamblingSpanTasks,2022.2.1,Win32,59.89099838,,,,,,,,,,,,,,,,,,,,,,,,,,,,,,,,,,,,,,,,,,,,,,,,,,,,,,,,,,,,,,,,,,,,,,,,,,,,,,,,,,"[2,8,6,9,7,5,1,4]",7,0,7,0,1,,,,,,,,,,,,,,,,,,,,,,,,,,,,,,,,,,,,,,,,,,,,,,,,
,,62b083f9ca87faa7a75c0235,2022-09-08_14h03.39.937,CGTgamblingSpanTasks,2022.2.1,Win32,59.89099838,,,,,,,,,,,,,,,,,,,,,,,,,,,,,,,,,,,,,,,,,,,,,,,,,,,,,,,,,,,,,,,1,,,,,,,,,,,,,,,,,,,,,,,,,28697514,0.010648176,-0.425463019,1,0,0,cont_button,0,8,8,8,1,9,,,,,,,,,,,,,,,,,,,,,,,,,,,,,,,,,,,
,,62b083f9ca87faa7a75c0235,2022-09-08_14h03.39.937,CGTgamblingSpanTasks,2022.2.1,Win32,59.89099838,,,,,,,,,,,,,,,,,,,,,,,,,,,,,,,,,,,,,,,,,,,,,,,,,,,,,,,,,,,,,,,,,,,,,,,,,,,,,,,,,,"[2,7,5,8,9,3,1,4,6]",0,0,0,0,1,,,,,,,,,,,,,,,,,,,,,,,,,,,,,,,,,,,,,,,,,,,,,,,,
,,62b083f9ca87faa7a75c0235,2022-09-08_14h03.39.937,CGTgamblingSpanTasks,2022.2.1,Win32,59.89099838,,,,,,,,,,,,,,,,,,,,,,,,,,,,,,,,,,,,,,,,,,,,,,,,,,,,,,,,,,,,,,,,,,,,,,,,,,,,,,,,,,"[2,7,5,8,9,3,1,4,6]",1,0,1,0,1,,,,,,,,,,,,,,,,,,,,,,,,,,,,,,,,,,,,,,,,,,,,,,,,
,,62b083f9ca87faa7a75c0235,2022-09-08_14h03.39.937,CGTgamblingSpanTasks,2022.2.1,Win32,59.89099838,,,,,,,,,,,,,,,,,,,,,,,,,,,,,,,,,,,,,,,,,,,,,,,,,,,,,,,,,,,,,,,,,,,,,,,,,,,,,,,,,,"[2,7,5,8,9,3,1,4,6]",2,0,2,0,1,,,,,,,,,,,,,,,,,,,,,,,,,,,,,,,,,,,,,,,,,,,,,,,,
,,62b083f9ca87faa7a75c0235,2022-09-08_14h03.39.937,CGTgamblingSpanTasks,2022.2.1,Win32,59.89099838,,,,,,,,,,,,,,,,,,,,,,,,,,,,,,,,,,,,,,,,,,,,,,,,,,,,,,,,,,,,,,,,,,,,,,,,,,,,,,,,,,"[2,7,5,8,9,3,1,4,6]",3,0,3,0,1,,,,,,,,,,,,,,,,,,,,,,,,,,,,,,,,,,,,,,,,,,,,,,,,
,,62b083f9ca87faa7a75c0235,2022-09-08_14h03.39.937,CGTgamblingSpanTasks,2022.2.1,Win32,59.89099838,,,,,,,,,,,,,,,,,,,,,,,,,,,,,,,,,,,,,,,,,,,,,,,,,,,,,,,,,,,,,,,,,,,,,,,,,,,,,,,,,,"[2,7,5,8,9,3,1,4,6]",4,0,4,0,1,,,,,,,,,,,,,,,,,,,,,,,,,,,,,,,,,,,,,,,,,,,,,,,,
,,62b083f9ca87faa7a75c0235,2022-09-08_14h03.39.937,CGTgamblingSpanTasks,2022.2.1,Win32,59.89099838,,,,,,,,,,,,,,,,,,,,,,,,,,,,,,,,,,,,,,,,,,,,,,,,,,,,,,,,,,,,,,,,,,,,,,,,,,,,,,,,,,"[2,7,5,8,9,3,1,4,6]",5,0,5,0,1,,,,,,,,,,,,,,,,,,,,,,,,,,,,,,,,,,,,,,,,,,,,,,,,
,,62b083f9ca87faa7a75c0235,2022-09-08_14h03.39.937,CGTgamblingSpanTasks,2022.2.1,Win32,59.89099838,,,,,,,,,,,,,,,,,,,,,,,,,,,,,,,,,,,,,,,,,,,,,,,,,,,,,,,,,,,,,,,,,,,,,,,,,,,,,,,,,,"[2,7,5,8,9,3,1,4,6]",6,0,6,0,1,,,,,,,,,,,,,,,,,,,,,,,,,,,,,,,,,,,,,,,,,,,,,,,,
,,62b083f9ca87faa7a75c0235,2022-09-08_14h03.39.937,CGTgamblingSpanTasks,2022.2.1,Win32,59.89099838,,,,,,,,,,,,,,,,,,,,,,,,,,,,,,,,,,,,,,,,,,,,,,,,,,,,,,,,,,,,,,,,,,,,,,,,,,,,,,,,,,"[2,7,5,8,9,3,1,4,6]",7,0,7,0,1,,,,,,,,,,,,,,,,,,,,,,,,,,,,,,,,,,,,,,,,,,,,,,,,
,,62b083f9ca87faa7a75c0235,2022-09-08_14h03.39.937,CGTgamblingSpanTasks,2022.2.1,Win32,59.89099838,,,,,,,,,,,,,,,,,,,,,,,,,,,,,,,,,,,,,,,,,,,,,,,,,,,,,,,,,,,,,,,,,,,,,,,,,,,,,,,,,,"[2,7,5,8,9,3,1,4,6]",8,0,8,0,1,,,,,,,,,,,,,,,,,,,,,,,,,,,,,,,,,,,,,,,,,,,,,,,,
,,62b083f9ca87faa7a75c0235,2022-09-08_14h03.39.937,CGTgamblingSpanTasks,2022.2.1,Win32,59.89099838,,,,,,,,,,,,,,,,,,,,,,,,,,,,,,,,,,,,,,,,,,,,,,,,,,,,,,,,,,,,,,,1,,,,,,,,,,,,,,,,,,,,,,,,,275893146,-0.055092536,-0.417592621,1,0,0,cont_button,0,9,9,9,1,10,,,,,,,,,,,,,,,,,,,,,,,,,,,,,,,,,,,
,,62b083f9ca87faa7a75c0235,2022-09-08_14h03.39.937,CGTgamblingSpanTasks,2022.2.1,Win32,59.89099838,,,,,,,,,,,,,,,,,,,,,,,,,,,,,,,,,,,,,,,,,,,,,,,,,,,,,,,,,,,,,,,,,,,,,,,,,,,,,,,,,,"[6,9,3,2,7,5,4,8,1,1]",0,0,0,0,1,,,,,,,,,,,,,,,,,,,,,,,,,,,,,,,,,,,,,,,,,,,,,,,,
,,62b083f9ca87faa7a75c0235,2022-09-08_14h03.39.937,CGTgamblingSpanTasks,2022.2.1,Win32,59.89099838,,,,,,,,,,,,,,,,,,,,,,,,,,,,,,,,,,,,,,,,,,,,,,,,,,,,,,,,,,,,,,,,,,,,,,,,,,,,,,,,,,"[6,9,3,2,7,5,4,8,1,1]",1,0,1,0,1,,,,,,,,,,,,,,,,,,,,,,,,,,,,,,,,,,,,,,,,,,,,,,,,
,,62b083f9ca87faa7a75c0235,2022-09-08_14h03.39.937,CGTgamblingSpanTasks,2022.2.1,Win32,59.89099838,,,,,,,,,,,,,,,,,,,,,,,,,,,,,,,,,,,,,,,,,,,,,,,,,,,,,,,,,,,,,,,,,,,,,,,,,,,,,,,,,,"[6,9,3,2,7,5,4,8,1,1]",2,0,2,0,1,,,,,,,,,,,,,,,,,,,,,,,,,,,,,,,,,,,,,,,,,,,,,,,,
,,62b083f9ca87faa7a75c0235,2022-09-08_14h03.39.937,CGTgamblingSpanTasks,2022.2.1,Win32,59.89099838,,,,,,,,,,,,,,,,,,,,,,,,,,,,,,,,,,,,,,,,,,,,,,,,,,,,,,,,,,,,,,,,,,,,,,,,,,,,,,,,,,"[6,9,3,2,7,5,4,8,1,1]",3,0,3,0,1,,,,,,,,,,,,,,,,,,,,,,,,,,,,,,,,,,,,,,,,,,,,,,,,
,,62b083f9ca87faa7a75c0235,2022-09-08_14h03.39.937,CGTgamblingSpanTasks,2022.2.1,Win32,59.89099838,,,,,,,,,,,,,,,,,,,,,,,,,,,,,,,,,,,,,,,,,,,,,,,,,,,,,,,,,,,,,,,,,,,,,,,,,,,,,,,,,,"[6,9,3,2,7,5,4,8,1,1]",4,0,4,0,1,,,,,,,,,,,,,,,,,,,,,,,,,,,,,,,,,,,,,,,,,,,,,,,,
,,62b083f9ca87faa7a75c0235,2022-09-08_14h03.39.937,CGTgamblingSpanTasks,2022.2.1,Win32,59.89099838,,,,,,,,,,,,,,,,,,,,,,,,,,,,,,,,,,,,,,,,,,,,,,,,,,,,,,,,,,,,,,,,,,,,,,,,,,,,,,,,,,"[6,9,3,2,7,5,4,8,1,1]",5,0,5,0,1,,,,,,,,,,,,,,,,,,,,,,,,,,,,,,,,,,,,,,,,,,,,,,,,
,,62b083f9ca87faa7a75c0235,2022-09-08_14h03.39.937,CGTgamblingSpanTasks,2022.2.1,Win32,59.89099838,,,,,,,,,,,,,,,,,,,,,,,,,,,,,,,,,,,,,,,,,,,,,,,,,,,,,,,,,,,,,,,,,,,,,,,,,,,,,,,,,,"[6,9,3,2,7,5,4,8,1,1]",6,0,6,0,1,,,,,,,,,,,,,,,,,,,,,,,,,,,,,,,,,,,,,,,,,,,,,,,,
,,62b083f9ca87faa7a75c0235,2022-09-08_14h03.39.937,CGTgamblingSpanTasks,2022.2.1,Win32,59.89099838,,,,,,,,,,,,,,,,,,,,,,,,,,,,,,,,,,,,,,,,,,,,,,,,,,,,,,,,,,,,,,,,,,,,,,,,,,,,,,,,,,"[6,9,3,2,7,5,4,8,1,1]",7,0,7,0,1,,,,,,,,,,,,,,,,,,,,,,,,,,,,,,,,,,,,,,,,,,,,,,,,
,,62b083f9ca87faa7a75c0235,2022-09-08_14h03.39.937,CGTgamblingSpanTasks,2022.2.1,Win32,59.89099838,,,,,,,,,,,,,,,,,,,,,,,,,,,,,,,,,,,,,,,,,,,,,,,,,,,,,,,,,,,,,,,,,,,,,,,,,,,,,,,,,,"[6,9,3,2,7,5,4,8,1,1]",8,0,8,0,1,,,,,,,,,,,,,,,,,,,,,,,,,,,,,,,,,,,,,,,,,,,,,,,,
,,62b083f9ca87faa7a75c0235,2022-09-08_14h03.39.937,CGTgamblingSpanTasks,2022.2.1,Win32,59.89099838,,,,,,,,,,,,,,,,,,,,,,,,,,,,,,,,,,,,,,,,,,,,,,,,,,,,,,,,,,,,,,,,,,,,,,,,,,,,,,,,,,"[6,9,3,2,7,5,4,8,1,1]",9,0,9,0,1,,,,,,,,,,,,,,,,,,,,,,,,,,,,,,,,,,,,,,,,,,,,,,,,
,,62b083f9ca87faa7a75c0235,2022-09-08_14h03.39.937,CGTgamblingSpanTasks,2022.2.1,Win32,59.89099838,,,,,,,,,,,,,,,,,,,,,,,,,,,,,,,,,,,,,,,,,,,,,,,,,,,,,,,,,,,,,,,1,,,,,,,,,,,,,,,,,,,,,,,,,6932754811,-0.055092536,-0.417592621,1,0,0,cont_button,0,10,10,10,1,11,,,,,,,,,,,,,,,,,,,,,,,,,,,,,,,,,,,
,,62b083f9ca87faa7a75c0235,2022-09-08_14h03.39.937,CGTgamblingSpanTasks,2022.2.1,Win32,59.89099838,,,,,,,,,,,,,,,,,,,,,,,,,,,,,,,,,,,,,,,,,,,,,,,,,,,,,,,,,,,,,,,,,,,,,,,,,,,,,,,,,,"[4,5,3,2,8,9,1,6,7,7,9]",0,0,0,0,1,,,,,,,,,,,,,,,,,,,,,,,,,,,,,,,,,,,,,,,,,,,,,,,,
,,62b083f9ca87faa7a75c0235,2022-09-08_14h03.39.937,CGTgamblingSpanTasks,2022.2.1,Win32,59.89099838,,,,,,,,,,,,,,,,,,,,,,,,,,,,,,,,,,,,,,,,,,,,,,,,,,,,,,,,,,,,,,,,,,,,,,,,,,,,,,,,,,"[4,5,3,2,8,9,1,6,7,7,9]",1,0,1,0,1,,,,,,,,,,,,,,,,,,,,,,,,,,,,,,,,,,,,,,,,,,,,,,,,
,,62b083f9ca87faa7a75c0235,2022-09-08_14h03.39.937,CGTgamblingSpanTasks,2022.2.1,Win32,59.89099838,,,,,,,,,,,,,,,,,,,,,,,,,,,,,,,,,,,,,,,,,,,,,,,,,,,,,,,,,,,,,,,,,,,,,,,,,,,,,,,,,,"[4,5,3,2,8,9,1,6,7,7,9]",2,0,2,0,1,,,,,,,,,,,,,,,,,,,,,,,,,,,,,,,,,,,,,,,,,,,,,,,,
,,62b083f9ca87faa7a75c0235,2022-09-08_14h03.39.937,CGTgamblingSpanTasks,2022.2.1,Win32,59.89099838,,,,,,,,,,,,,,,,,,,,,,,,,,,,,,,,,,,,,,,,,,,,,,,,,,,,,,,,,,,,,,,,,,,,,,,,,,,,,,,,,,"[4,5,3,2,8,9,1,6,7,7,9]",3,0,3,0,1,,,,,,,,,,,,,,,,,,,,,,,,,,,,,,,,,,,,,,,,,,,,,,,,
,,62b083f9ca87faa7a75c0235,2022-09-08_14h03.39.937,CGTgamblingSpanTasks,2022.2.1,Win32,59.89099838,,,,,,,,,,,,,,,,,,,,,,,,,,,,,,,,,,,,,,,,,,,,,,,,,,,,,,,,,,,,,,,,,,,,,,,,,,,,,,,,,,"[4,5,3,2,8,9,1,6,7,7,9]",4,0,4,0,1,,,,,,,,,,,,,,,,,,,,,,,,,,,,,,,,,,,,,,,,,,,,,,,,
,,62b083f9ca87faa7a75c0235,2022-09-08_14h03.39.937,CGTgamblingSpanTasks,2022.2.1,Win32,59.89099838,,,,,,,,,,,,,,,,,,,,,,,,,,,,,,,,,,,,,,,,,,,,,,,,,,,,,,,,,,,,,,,,,,,,,,,,,,,,,,,,,,"[4,5,3,2,8,9,1,6,7,7,9]",5,0,5,0,1,,,,,,,,,,,,,,,,,,,,,,,,,,,,,,,,,,,,,,,,,,,,,,,,
,,62b083f9ca87faa7a75c0235,2022-09-08_14h03.39.937,CGTgamblingSpanTasks,2022.2.1,Win32,59.89099838,,,,,,,,,,,,,,,,,,,,,,,,,,,,,,,,,,,,,,,,,,,,,,,,,,,,,,,,,,,,,,,,,,,,,,,,,,,,,,,,,,"[4,5,3,2,8,9,1,6,7,7,9]",6,0,6,0,1,,,,,,,,,,,,,,,,,,,,,,,,,,,,,,,,,,,,,,,,,,,,,,,,
,,62b083f9ca87faa7a75c0235,2022-09-08_14h03.39.937,CGTgamblingSpanTasks,2022.2.1,Win32,59.89099838,,,,,,,,,,,,,,,,,,,,,,,,,,,,,,,,,,,,,,,,,,,,,,,,,,,,,,,,,,,,,,,,,,,,,,,,,,,,,,,,,,"[4,5,3,2,8,9,1,6,7,7,9]",7,0,7,0,1,,,,,,,,,,,,,,,,,,,,,,,,,,,,,,,,,,,,,,,,,,,,,,,,
,,62b083f9ca87faa7a75c0235,2022-09-08_14h03.39.937,CGTgamblingSpanTasks,2022.2.1,Win32,59.89099838,,,,,,,,,,,,,,,,,,,,,,,,,,,,,,,,,,,,,,,,,,,,,,,,,,,,,,,,,,,,,,,,,,,,,,,,,,,,,,,,,,"[4,5,3,2,8,9,1,6,7,7,9]",8,0,8,0,1,,,,,,,,,,,,,,,,,,,,,,,,,,,,,,,,,,,,,,,,,,,,,,,,
,,62b083f9ca87faa7a75c0235,2022-09-08_14h03.39.937,CGTgamblingSpanTasks,2022.2.1,Win32,59.89099838,,,,,,,,,,,,,,,,,,,,,,,,,,,,,,,,,,,,,,,,,,,,,,,,,,,,,,,,,,,,,,,,,,,,,,,,,,,,,,,,,,"[4,5,3,2,8,9,1,6,7,7,9]",9,0,9,0,1,,,,,,,,,,,,,,,,,,,,,,,,,,,,,,,,,,,,,,,,,,,,,,,,
,,62b083f9ca87faa7a75c0235,2022-09-08_14h03.39.937,CGTgamblingSpanTasks,2022.2.1,Win32,59.89099838,,,,,,,,,,,,,,,,,,,,,,,,,,,,,,,,,,,,,,,,,,,,,,,,,,,,,,,,,,,,,,,,,,,,,,,,,,,,,,,,,,"[4,5,3,2,8,9,1,6,7,7,9]",10,0,10,0,1,,,,,,,,,,,,,,,,,,,,,,,,,,,,,,,,,,,,,,,,,,,,,,,,
,,62b083f9ca87faa7a75c0235,2022-09-08_14h03.39.937,CGTgamblingSpanTasks,2022.2.1,Win32,59.89099838,,,,,,,,,,,,,,,,,,,,,,,,,,,,,,,,,,,,,,,,,,,,,,,,,,,,,,,,,,,,,,,0,,,,,,,,,,,,,,,,,,,,,,,,,4532891677,-0.032870314,-0.392129686,1,0,0,cont_button,0,11,11,11,1,12,,,,,,,,,,,,,,,,,,,,,,,,,,,,,,,,,,,
,,62b083f9ca87faa7a75c0235,2022-09-08_14h03.39.937,CGTgamblingSpanTasks,2022.2.1,Win32,59.89099838,,,,,,,,,,,,,,,,,,,,,,,,,,,,,,,,,,,,,,,,,,,,,,,,,,,,,,,,,,,,,,,,,,,,,,,,,,,,,,,,,,"[7,5,3,8,9,2,1,6,4,4,1]",0,0,0,0,1,,,,,,,,,,,,,,,,,,,,,,,,,,,,,,,,,,,,,,,,,,,,,,,,
,,62b083f9ca87faa7a75c0235,2022-09-08_14h03.39.937,CGTgamblingSpanTasks,2022.2.1,Win32,59.89099838,,,,,,,,,,,,,,,,,,,,,,,,,,,,,,,,,,,,,,,,,,,,,,,,,,,,,,,,,,,,,,,,,,,,,,,,,,,,,,,,,,"[7,5,3,8,9,2,1,6,4,4,1]",1,0,1,0,1,,,,,,,,,,,,,,,,,,,,,,,,,,,,,,,,,,,,,,,,,,,,,,,,
,,62b083f9ca87faa7a75c0235,2022-09-08_14h03.39.937,CGTgamblingSpanTasks,2022.2.1,Win32,59.89099838,,,,,,,,,,,,,,,,,,,,,,,,,,,,,,,,,,,,,,,,,,,,,,,,,,,,,,,,,,,,,,,,,,,,,,,,,,,,,,,,,,"[7,5,3,8,9,2,1,6,4,4,1]",2,0,2,0,1,,,,,,,,,,,,,,,,,,,,,,,,,,,,,,,,,,,,,,,,,,,,,,,,
,,62b083f9ca87faa7a75c0235,2022-09-08_14h03.39.937,CGTgamblingSpanTasks,2022.2.1,Win32,59.89099838,,,,,,,,,,,,,,,,,,,,,,,,,,,,,,,,,,,,,,,,,,,,,,,,,,,,,,,,,,,,,,,,,,,,,,,,,,,,,,,,,,"[7,5,3,8,9,2,1,6,4,4,1]",3,0,3,0,1,,,,,,,,,,,,,,,,,,,,,,,,,,,,,,,,,,,,,,,,,,,,,,,,
,,62b083f9ca87faa7a75c0235,2022-09-08_14h03.39.937,CGTgamblingSpanTasks,2022.2.1,Win32,59.89099838,,,,,,,,,,,,,,,,,,,,,,,,,,,,,,,,,,,,,,,,,,,,,,,,,,,,,,,,,,,,,,,,,,,,,,,,,,,,,,,,,,"[7,5,3,8,9,2,1,6,4,4,1]",4,0,4,0,1,,,,,,,,,,,,,,,,,,,,,,,,,,,,,,,,,,,,,,,,,,,,,,,,
,,62b083f9ca87faa7a75c0235,2022-09-08_14h03.39.937,CGTgamblingSpanTasks,2022.2.1,Win32,59.89099838,,,,,,,,,,,,,,,,,,,,,,,,,,,,,,,,,,,,,,,,,,,,,,,,,,,,,,,,,,,,,,,,,,,,,,,,,,,,,,,,,,"[7,5,3,8,9,2,1,6,4,4,1]",5,0,5,0,1,,,,,,,,,,,,,,,,,,,,,,,,,,,,,,,,,,,,,,,,,,,,,,,,
,,62b083f9ca87faa7a75c0235,2022-09-08_14h03.39.937,CGTgamblingSpanTasks,2022.2.1,Win32,59.89099838,,,,,,,,,,,,,,,,,,,,,,,,,,,,,,,,,,,,,,,,,,,,,,,,,,,,,,,,,,,,,,,,,,,,,,,,,,,,,,,,,,"[7,5,3,8,9,2,1,6,4,4,1]",6,0,6,0,1,,,,,,,,,,,,,,,,,,,,,,,,,,,,,,,,,,,,,,,,,,,,,,,,
,,62b083f9ca87faa7a75c0235,2022-09-08_14h03.39.937,CGTgamblingSpanTasks,2022.2.1,Win32,59.89099838,,,,,,,,,,,,,,,,,,,,,,,,,,,,,,,,,,,,,,,,,,,,,,,,,,,,,,,,,,,,,,,,,,,,,,,,,,,,,,,,,,"[7,5,3,8,9,2,1,6,4,4,1]",7,0,7,0,1,,,,,,,,,,,,,,,,,,,,,,,,,,,,,,,,,,,,,,,,,,,,,,,,
,,62b083f9ca87faa7a75c0235,2022-09-08_14h03.39.937,CGTgamblingSpanTasks,2022.2.1,Win32,59.89099838,,,,,,,,,,,,,,,,,,,,,,,,,,,,,,,,,,,,,,,,,,,,,,,,,,,,,,,,,,,,,,,,,,,,,,,,,,,,,,,,,,"[7,5,3,8,9,2,1,6,4,4,1]",8,0,8,0,1,,,,,,,,,,,,,,,,,,,,,,,,,,,,,,,,,,,,,,,,,,,,,,,,
,,62b083f9ca87faa7a75c0235,2022-09-08_14h03.39.937,CGTgamblingSpanTasks,2022.2.1,Win32,59.89099838,,,,,,,,,,,,,,,,,,,,,,,,,,,,,,,,,,,,,,,,,,,,,,,,,,,,,,,,,,,,,,,,,,,,,,,,,,,,,,,,,,"[7,5,3,8,9,2,1,6,4,4,1]",9,0,9,0,1,,,,,,,,,,,,,,,,,,,,,,,,,,,,,,,,,,,,,,,,,,,,,,,,
,,62b083f9ca87faa7a75c0235,2022-09-08_14h03.39.937,CGTgamblingSpanTasks,2022.2.1,Win32,59.89099838,,,,,,,,,,,,,,,,,,,,,,,,,,,,,,,,,,,,,,,,,,,,,,,,,,,,,,,,,,,,,,,,,,,,,,,,,,,,,,,,,,"[7,5,3,8,9,2,1,6,4,4,1]",10,0,10,0,1,,,,,,,,,,,,,,,,,,,,,,,,,,,,,,,,,,,,,,,,,,,,,,,,
,,62b083f9ca87faa7a75c0235,2022-09-08_14h03.39.937,CGTgamblingSpanTasks,2022.2.1,Win32,59.89099838,,,,,,,,,,,,,,,,,,,,,,,,,,,,,,,,,,,,,,,,,,,,,,,,,,,,,,,,,,,,,,,1,,,,,,,,,,,,,,,,,,,,,,,,,75389216441,0.09398151,-0.411111111,1,0,0,cont_button,0,12,12,12,1,13,,,,,,,,,,,,,,,,,,,,,,,,,,,,,,,,,,,
,,62b083f9ca87faa7a75c0235,2022-09-08_14h03.39.937,CGTgamblingSpanTasks,2022.2.1,Win32,59.89099838,,,,,,,,,,,,,,,,,,,,,,,,,,,,,,,,,,,,,,,,,,,,,,,,,,,,,,,,,,,,,,,,,,,,,,,,,,,,,,,,,,"[1,6,7,2,9,4,5,8,3,3,7,9]",0,0,0,0,1,,,,,,,,,,,,,,,,,,,,,,,,,,,,,,,,,,,,,,,,,,,,,,,,
,,62b083f9ca87faa7a75c0235,2022-09-08_14h03.39.937,CGTgamblingSpanTasks,2022.2.1,Win32,59.89099838,,,,,,,,,,,,,,,,,,,,,,,,,,,,,,,,,,,,,,,,,,,,,,,,,,,,,,,,,,,,,,,,,,,,,,,,,,,,,,,,,,"[1,6,7,2,9,4,5,8,3,3,7,9]",1,0,1,0,1,,,,,,,,,,,,,,,,,,,,,,,,,,,,,,,,,,,,,,,,,,,,,,,,
,,62b083f9ca87faa7a75c0235,2022-09-08_14h03.39.937,CGTgamblingSpanTasks,2022.2.1,Win32,59.89099838,,,,,,,,,,,,,,,,,,,,,,,,,,,,,,,,,,,,,,,,,,,,,,,,,,,,,,,,,,,,,,,,,,,,,,,,,,,,,,,,,,"[1,6,7,2,9,4,5,8,3,3,7,9]",2,0,2,0,1,,,,,,,,,,,,,,,,,,,,,,,,,,,,,,,,,,,,,,,,,,,,,,,,
,,62b083f9ca87faa7a75c0235,2022-09-08_14h03.39.937,CGTgamblingSpanTasks,2022.2.1,Win32,59.89099838,,,,,,,,,,,,,,,,,,,,,,,,,,,,,,,,,,,,,,,,,,,,,,,,,,,,,,,,,,,,,,,,,,,,,,,,,,,,,,,,,,"[1,6,7,2,9,4,5,8,3,3,7,9]",3,0,3,0,1,,,,,,,,,,,,,,,,,,,,,,,,,,,,,,,,,,,,,,,,,,,,,,,,
,,62b083f9ca87faa7a75c0235,2022-09-08_14h03.39.937,CGTgamblingSpanTasks,2022.2.1,Win32,59.89099838,,,,,,,,,,,,,,,,,,,,,,,,,,,,,,,,,,,,,,,,,,,,,,,,,,,,,,,,,,,,,,,,,,,,,,,,,,,,,,,,,,"[1,6,7,2,9,4,5,8,3,3,7,9]",4,0,4,0,1,,,,,,,,,,,,,,,,,,,,,,,,,,,,,,,,,,,,,,,,,,,,,,,,
,,62b083f9ca87faa7a75c0235,2022-09-08_14h03.39.937,CGTgamblingSpanTasks,2022.2.1,Win32,59.89099838,,,,,,,,,,,,,,,,,,,,,,,,,,,,,,,,,,,,,,,,,,,,,,,,,,,,,,,,,,,,,,,,,,,,,,,,,,,,,,,,,,"[1,6,7,2,9,4,5,8,3,3,7,9]",5,0,5,0,1,,,,,,,,,,,,,,,,,,,,,,,,,,,,,,,,,,,,,,,,,,,,,,,,
,,62b083f9ca87faa7a75c0235,2022-09-08_14h03.39.937,CGTgamblingSpanTasks,2022.2.1,Win32,59.89099838,,,,,,,,,,,,,,,,,,,,,,,,,,,,,,,,,,,,,,,,,,,,,,,,,,,,,,,,,,,,,,,,,,,,,,,,,,,,,,,,,,"[1,6,7,2,9,4,5,8,3,3,7,9]",6,0,6,0,1,,,,,,,,,,,,,,,,,,,,,,,,,,,,,,,,,,,,,,,,,,,,,,,,
,,62b083f9ca87faa7a75c0235,2022-09-08_14h03.39.937,CGTgamblingSpanTasks,2022.2.1,Win32,59.89099838,,,,,,,,,,,,,,,,,,,,,,,,,,,,,,,,,,,,,,,,,,,,,,,,,,,,,,,,,,,,,,,,,,,,,,,,,,,,,,,,,,"[1,6,7,2,9,4,5,8,3,3,7,9]",7,0,7,0,1,,,,,,,,,,,,,,,,,,,,,,,,,,,,,,,,,,,,,,,,,,,,,,,,
,,62b083f9ca87faa7a75c0235,2022-09-08_14h03.39.937,CGTgamblingSpanTasks,2022.2.1,Win32,59.89099838,,,,,,,,,,,,,,,,,,,,,,,,,,,,,,,,,,,,,,,,,,,,,,,,,,,,,,,,,,,,,,,,,,,,,,,,,,,,,,,,,,"[1,6,7,2,9,4,5,8,3,3,7,9]",8,0,8,0,1,,,,,,,,,,,,,,,,,,,,,,,,,,,,,,,,,,,,,,,,,,,,,,,,
,,62b083f9ca87faa7a75c0235,2022-09-08_14h03.39.937,CGTgamblingSpanTasks,2022.2.1,Win32,59.89099838,,,,,,,,,,,,,,,,,,,,,,,,,,,,,,,,,,,,,,,,,,,,,,,,,,,,,,,,,,,,,,,,,,,,,,,,,,,,,,,,,,"[1,6,7,2,9,4,5,8,3,3,7,9]",9,0,9,0,1,,,,,,,,,,,,,,,,,,,,,,,,,,,,,,,,,,,,,,,,,,,,,,,,
,,62b083f9ca87faa7a75c0235,2022-09-08_14h03.39.937,CGTgamblingSpanTasks,2022.2.1,Win32,59.89099838,,,,,,,,,,,,,,,,,,,,,,,,,,,,,,,,,,,,,,,,,,,,,,,,,,,,,,,,,,,,,,,,,,,,,,,,,,,,,,,,,,"[1,6,7,2,9,4,5,8,3,3,7,9]",10,0,10,0,1,,,,,,,,,,,,,,,,,,,,,,,,,,,,,,,,,,,,,,,,,,,,,,,,
,,62b083f9ca87faa7a75c0235,2022-09-08_14h03.39.937,CGTgamblingSpanTasks,2022.2.1,Win32,59.89099838,,,,,,,,,,,,,,,,,,,,,,,,,,,,,,,,,,,,,,,,,,,,,,,,,,,,,,,,,,,,,,,,,,,,,,,,,,,,,,,,,,"[1,6,7,2,9,4,5,8,3,3,7,9]",11,0,11,0,1,,,,,,,,,,,,,,,,,,,,,,,,,,,,,,,,,,,,,,,,,,,,,,,,
,,62b083f9ca87faa7a75c0235,2022-09-08_14h03.39.937,CGTgamblingSpanTasks,2022.2.1,Win32,59.89099838,,,,,,,,,,,,,,,,,,,,,,,,,,,,,,,,,,,,,,,,,,,,,,,,,,,,,,,,,,,,,,,0,,,,,,,,,,,,,,,,,,,,,,,,,167294583377,0.09398151,-0.411111111,1,0,0,cont_button,0,13,13,13,1,14,,,,,,,,,,,,,,,,,,,,,,,,,,,,,,,,,,,
,,62b083f9ca87faa7a75c0235,2022-09-08_14h03.39.937,CGTgamblingSpanTasks,2022.2.1,Win32,59.89099838,,,,,,,,,,,,,,,,,,,,,,,,,,,,,,,,,,,,,,,,,,,,,,,,,,,,,,,,,,,,,,,,,,,,,,,,,,,,,,,,,,,,,,,,,,,,,,,,,,,,,return,2.6334,,,,,,,,,,,,,,,,,,,,,,,,,,,,,,,,,
,,62b083f9ca87faa7a75c0235,2022-09-08_14h03.39.937,CGTgamblingSpanTasks,2022.2.1,Win32,59.89099838,,,,,,,,,,,,,,,,,,,,,,,,,,,,,,,,,,,,,,,,,,,,,,,,,,,,,,,,,,,,,,,,,,,,,,,,,,,,,,,,,,,,,,,,,,,,,,,,,,,,,,,return,6.2358,,,,,,,,,,,,,,,,,,,,,,,,,,,,,,,
,,62b083f9ca87faa7a75c0235,2022-09-08_14h03.39.937,CGTgamblingSpanTasks,2022.2.1,Win32,59.89099838,,,,,,,,,,,,,,,,,,,,,,,,,,,,,,,,,,,,,,,,,,,,,,,,,,,,,,,,,,,,,,,1,,,,,,,,,,,,3,342,24,2,42,,,,,,,,,,,,,,,,,,,,,,,,,,42,0.09398151,-0.411111111,1,0,0,cont_buttonPractice_2,0,0,0,0,1,,,,,,,,,,,,,,,,,,,
,,62b083f9ca87faa7a75c0235,2022-09-08_14h03.39.937,CGTgamblingSpanTasks,2022.2.1,Win32,59.89099838,,,,,,,,,,,,,,,,,,,,,,,,,,,,,,,,,,,,,,,,,,,,,,,,,,,,,,,,,,,,,,,1,,,,,,,,,,,,3,937,73,2,37,,,,,,,,,,,,,,,,,,,,,,,,,,37,0.09398151,-0.411111111,1,0,0,cont_buttonPractice_2,0,1,1,1,1,,,,,,,,,,,,,,,,,,,
,,62b083f9ca87faa7a75c0235,2022-09-08_14h03.39.937,CGTgamblingSpanTasks,2022.2.1,Win32,59.89099838,,,,,,,,,,,,,,,,,,,,,,,,,,,,,,,,,,,,,,,,,,,,,,,,,,,,,,,,,,,,,,,,,,,,,,,,,,,,,,,,,,,,,,,,,,,,,,,,,,,,,,,,,,,,,,,,,,,,,return,3.7973,,,,,,,,,,,,,,,,,
,,62b083f9ca87faa7a75c0235,2022-09-08_14h03.39.937,CGTgamblingSpanTasks,2022.2.1,Win32,59.89099838,,,,,,,,,,,,,,,,,,,,,,,,,,,,,,,,,,,,,,,,,,,,,,,,,,,,,,,,,,,,,,,,,,,,,,,,,,,,,,,,,,"[3,8]",,,,,,,,,,,,,,,,,,,,,,,,,,,,,,,,,,,,,0,0,0,0,1,,,,,,,,,,,,
,,62b083f9ca87faa7a75c0235,2022-09-08_14h03.39.937,CGTgamblingSpanTasks,2022.2.1,Win32,59.89099838,,,,,,,,,,,,,,,,,,,,,,,,,,,,,,,,,,,,,,,,,,,,,,,,,,,,,,,,,,,,,,,,,,,,,,,,,,,,,,,,,,"[3,8]",,,,,,,,,,,,,,,,,,,,,,,,,,,,,,,,,,,,,1,0,1,0,1,,,,,,,,,,,,
,,62b083f9ca87faa7a75c0235,2022-09-08_14h03.39.937,CGTgamblingSpanTasks,2022.2.1,Win32,59.89099838,,,,,,,,,,,,,,,,,,,,,,,,,,,,,,,,,,,,,,,,,,,,,,,,,,,,,,,,,,,,,,,1,,,,,,,,,,,,,,,,,,,,,,,,,,,,,,,,,,,,,1,,,,,,,,,,,,,,,,,,,,,,,,83,0.09398151,-0.411111111,1,0,0,cont_buttonBS,0,0,0,0,1
,,62b083f9ca87faa7a75c0235,2022-09-08_14h03.39.937,CGTgamblingSpanTasks,2022.2.1,Win32,59.89099838,,,,,,,,,,,,,,,,,,,,,,,,,,,,,,,,,,,,,,,,,,,,,,,,,,,,,,,,,,,,,,,,,,,,,,,,,,,,,,,,,,"[8,1,2]",,,,,,,,,,,,,,,,,,,,,,,,,,,,,,,,,,,,,0,0,0,0,1,,,,,,,,,,,,
,,62b083f9ca87faa7a75c0235,2022-09-08_14h03.39.937,CGTgamblingSpanTasks,2022.2.1,Win32,59.89099838,,,,,,,,,,,,,,,,,,,,,,,,,,,,,,,,,,,,,,,,,,,,,,,,,,,,,,,,,,,,,,,,,,,,,,,,,,,,,,,,,,"[8,1,2]",,,,,,,,,,,,,,,,,,,,,,,,,,,,,,,,,,,,,1,0,1,0,1,,,,,,,,,,,,
,,62b083f9ca87faa7a75c0235,2022-09-08_14h03.39.937,CGTgamblingSpanTasks,2022.2.1,Win32,59.89099838,,,,,,,,,,,,,,,,,,,,,,,,,,,,,,,,,,,,,,,,,,,,,,,,,,,,,,,,,,,,,,,,,,,,,,,,,,,,,,,,,,"[8,1,2]",,,,,,,,,,,,,,,,,,,,,,,,,,,,,,,,,,,,,2,0,2,0,1,,,,,,,,,,,,
,,62b083f9ca87faa7a75c0235,2022-09-08_14h03.39.937,CGTgamblingSpanTasks,2022.2.1,Win32,59.89099838,,,,,,,,,,,,,,,,,,,,,,,,,,,,,,,,,,,,,,,,,,,,,,,,,,,,,,,,,,,,,,,1,,,,,,,,,,,,,,,,,,,,,,,,,,,,,,,,,,,,,2,,,,,,,,,,,,,,,,,,,,,,,,218,0.09398151,-0.411111111,1,0,0,cont_buttonBS,0,1,1,1,1
,,62b083f9ca87faa7a75c0235,2022-09-08_14h03.39.937,CGTgamblingSpanTasks,2022.2.1,Win32,59.89099838,,,,,,,,,,,,,,,,,,,,,,,,,,,,,,,,,,,,,,,,,,,,,,,,,,,,,,,,,,,,,,,,,,,,,,,,,,,,,,,,,,"[6,3,1,2]",,,,,,,,,,,,,,,,,,,,,,,,,,,,,,,,,,,,,0,0,0,0,1,,,,,,,,,,,,
,,62b083f9ca87faa7a75c0235,2022-09-08_14h03.39.937,CGTgamblingSpanTasks,2022.2.1,Win32,59.89099838,,,,,,,,,,,,,,,,,,,,,,,,,,,,,,,,,,,,,,,,,,,,,,,,,,,,,,,,,,,,,,,,,,,,,,,,,,,,,,,,,,"[6,3,1,2]",,,,,,,,,,,,,,,,,,,,,,,,,,,,,,,,,,,,,1,0,1,0,1,,,,,,,,,,,,
,,62b083f9ca87faa7a75c0235,2022-09-08_14h03.39.937,CGTgamblingSpanTasks,2022.2.1,Win32,59.89099838,,,,,,,,,,,,,,,,,,,,,,,,,,,,,,,,,,,,,,,,,,,,,,,,,,,,,,,,,,,,,,,,,,,,,,,,,,,,,,,,,,"[6,3,1,2]",,,,,,,,,,,,,,,,,,,,,,,,,,,,,,,,,,,,,2,0,2,0,1,,,,,,,,,,,,
,,62b083f9ca87faa7a75c0235,2022-09-08_14h03.39.937,CGTgamblingSpanTasks,2022.2.1,Win32,59.89099838,,,,,,,,,,,,,,,,,,,,,,,,,,,,,,,,,,,,,,,,,,,,,,,,,,,,,,,,,,,,,,,,,,,,,,,,,,,,,,,,,,"[6,3,1,2]",,,,,,,,,,,,,,,,,,,,,,,,,,,,,,,,,,,,,3,0,3,0,1,,,,,,,,,,,,
,,62b083f9ca87faa7a75c0235,2022-09-08_14h03.39.937,CGTgamblingSpanTasks,2022.2.1,Win32,59.89099838,,,,,,,,,,,,,,,,,,,,,,,,,,,,,,,,,,,,,,,,,,,,,,,,,,,,,,,,,,,,,,,1,,,,,,,,,,,,,,,,,,,,,,,,,,,,,,,,,,,,,3,,,,,,,,,,,,,,,,,,,,,,,,2136,0.088888889,-0.408796353,1,0,0,cont_buttonBS,0,2,2,2,1
,,62b083f9ca87faa7a75c0235,2022-09-08_14h03.39.937,CGTgamblingSpanTasks,2022.2.1,Win32,59.89099838,,,,,,,,,,,,,,,,,,,,,,,,,,,,,,,,,,,,,,,,,,,,,,,,,,,,,,,,,,,,,,,,,,,,,,,,,,,,,,,,,,"[6,9,7,5,4]",,,,,,,,,,,,,,,,,,,,,,,,,,,,,,,,,,,,,0,0,0,0,1,,,,,,,,,,,,
,,62b083f9ca87faa7a75c0235,2022-09-08_14h03.39.937,CGTgamblingSpanTasks,2022.2.1,Win32,59.89099838,,,,,,,,,,,,,,,,,,,,,,,,,,,,,,,,,,,,,,,,,,,,,,,,,,,,,,,,,,,,,,,,,,,,,,,,,,,,,,,,,,"[6,9,7,5,4]",,,,,,,,,,,,,,,,,,,,,,,,,,,,,,,,,,,,,1,0,1,0,1,,,,,,,,,,,,
,,62b083f9ca87faa7a75c0235,2022-09-08_14h03.39.937,CGTgamblingSpanTasks,2022.2.1,Win32,59.89099838,,,,,,,,,,,,,,,,,,,,,,,,,,,,,,,,,,,,,,,,,,,,,,,,,,,,,,,,,,,,,,,,,,,,,,,,,,,,,,,,,,"[6,9,7,5,4]",,,,,,,,,,,,,,,,,,,,,,,,,,,,,,,,,,,,,2,0,2,0,1,,,,,,,,,,,,
,,62b083f9ca87faa7a75c0235,2022-09-08_14h03.39.937,CGTgamblingSpanTasks,2022.2.1,Win32,59.89099838,,,,,,,,,,,,,,,,,,,,,,,,,,,,,,,,,,,,,,,,,,,,,,,,,,,,,,,,,,,,,,,,,,,,,,,,,,,,,,,,,,"[6,9,7,5,4]",,,,,,,,,,,,,,,,,,,,,,,,,,,,,,,,,,,,,3,0,3,0,1,,,,,,,,,,,,
,,62b083f9ca87faa7a75c0235,2022-09-08_14h03.39.937,CGTgamblingSpanTasks,2022.2.1,Win32,59.89099838,,,,,,,,,,,,,,,,,,,,,,,,,,,,,,,,,,,,,,,,,,,,,,,,,,,,,,,,,,,,,,,,,,,,,,,,,,,,,,,,,,"[6,9,7,5,4]",,,,,,,,,,,,,,,,,,,,,,,,,,,,,,,,,,,,,4,0,4,0,1,,,,,,,,,,,,
,,62b083f9ca87faa7a75c0235,2022-09-08_14h03.39.937,CGTgamblingSpanTasks,2022.2.1,Win32,59.89099838,,,,,,,,,,,,,,,,,,,,,,,,,,,,,,,,,,,,,,,,,,,,,,,,,,,,,,,,,,,,,,,1,,,,,,,,,,,,,,,,,,,,,,,,,,,,,,,,,,,,,4,,,,,,,,,,,,,,,,,,,,,,,,45796,0.088888889,-0.408796353,1,0,0,cont_buttonBS,0,3,3,3,1
,,62b083f9ca87faa7a75c0235,2022-09-08_14h03.39.937,CGTgamblingSpanTasks,2022.2.1,Win32,59.89099838,,,,,,,,,,,,,,,,,,,,,,,,,,,,,,,,,,,,,,,,,,,,,,,,,,,,,,,,,,,,,,,,,,,,,,,,,,,,,,,,,,"[1,8,2,9,3,5]",,,,,,,,,,,,,,,,,,,,,,,,,,,,,,,,,,,,,0,0,0,0,1,,,,,,,,,,,,
,,62b083f9ca87faa7a75c0235,2022-09-08_14h03.39.937,CGTgamblingSpanTasks,2022.2.1,Win32,59.89099838,,,,,,,,,,,,,,,,,,,,,,,,,,,,,,,,,,,,,,,,,,,,,,,,,,,,,,,,,,,,,,,,,,,,,,,,,,,,,,,,,,"[1,8,2,9,3,5]",,,,,,,,,,,,,,,,,,,,,,,,,,,,,,,,,,,,,1,0,1,0,1,,,,,,,,,,,,
,,62b083f9ca87faa7a75c0235,2022-09-08_14h03.39.937,CGTgamblingSpanTasks,2022.2.1,Win32,59.89099838,,,,,,,,,,,,,,,,,,,,,,,,,,,,,,,,,,,,,,,,,,,,,,,,,,,,,,,,,,,,,,,,,,,,,,,,,,,,,,,,,,"[1,8,2,9,3,5]",,,,,,,,,,,,,,,,,,,,,,,,,,,,,,,,,,,,,2,0,2,0,1,,,,,,,,,,,,
,,62b083f9ca87faa7a75c0235,2022-09-08_14h03.39.937,CGTgamblingSpanTasks,2022.2.1,Win32,59.89099838,,,,,,,,,,,,,,,,,,,,,,,,,,,,,,,,,,,,,,,,,,,,,,,,,,,,,,,,,,,,,,,,,,,,,,,,,,,,,,,,,,"[1,8,2,9,3,5]",,,,,,,,,,,,,,,,,,,,,,,,,,,,,,,,,,,,,3,0,3,0,1,,,,,,,,,,,,
,,62b083f9ca87faa7a75c0235,2022-09-08_14h03.39.937,CGTgamblingSpanTasks,2022.2.1,Win32,59.89099838,,,,,,,,,,,,,,,,,,,,,,,,,,,,,,,,,,,,,,,,,,,,,,,,,,,,,,,,,,,,,,,,,,,,,,,,,,,,,,,,,,"[1,8,2,9,3,5]",,,,,,,,,,,,,,,,,,,,,,,,,,,,,,,,,,,,,4,0,4,0,1,,,,,,,,,,,,
,,62b083f9ca87faa7a75c0235,2022-09-08_14h03.39.937,CGTgamblingSpanTasks,2022.2.1,Win32,59.89099838,,,,,,,,,,,,,,,,,,,,,,,,,,,,,,,,,,,,,,,,,,,,,,,,,,,,,,,,,,,,,,,,,,,,,,,,,,,,,,,,,,"[1,8,2,9,3,5]",,,,,,,,,,,,,,,,,,,,,,,,,,,,,,,,,,,,,5,0,5,0,1,,,,,,,,,,,,
,,62b083f9ca87faa7a75c0235,2022-09-08_14h03.39.937,CGTgamblingSpanTasks,2022.2.1,Win32,59.89099838,,,,,,,,,,,,,,,,,,,,,,,,,,,,,,,,,,,,,,,,,,,,,,,,,,,,,,,,,,,,,,,1,,,,,,,,,,,,,,,,,,,,,,,,,,,,,,,,,,,,,5,,,,,,,,,,,,,,,,,,,,,,,,539281,0.037963019,-0.405555556,1,0,0,cont_buttonBS,0,4,4,4,1
,,62b083f9ca87faa7a75c0235,2022-09-08_14h03.39.937,CGTgamblingSpanTasks,2022.2.1,Win32,59.89099838,,,,,,,,,,,,,,,,,,,,,,,,,,,,,,,,,,,,,,,,,,,,,,,,,,,,,,,,,,,,,,,,,,,,,,,,,,,,,,,,,,"[8,7,1,9,5,6,4]",,,,,,,,,,,,,,,,,,,,,,,,,,,,,,,,,,,,,0,0,0,0,1,,,,,,,,,,,,
,,62b083f9ca87faa7a75c0235,2022-09-08_14h03.39.937,CGTgamblingSpanTasks,2022.2.1,Win32,59.89099838,,,,,,,,,,,,,,,,,,,,,,,,,,,,,,,,,,,,,,,,,,,,,,,,,,,,,,,,,,,,,,,,,,,,,,,,,,,,,,,,,,"[8,7,1,9,5,6,4]",,,,,,,,,,,,,,,,,,,,,,,,,,,,,,,,,,,,,1,0,1,0,1,,,,,,,,,,,,
,,62b083f9ca87faa7a75c0235,2022-09-08_14h03.39.937,CGTgamblingSpanTasks,2022.2.1,Win32,59.89099838,,,,,,,,,,,,,,,,,,,,,,,,,,,,,,,,,,,,,,,,,,,,,,,,,,,,,,,,,,,,,,,,,,,,,,,,,,,,,,,,,,"[8,7,1,9,5,6,4]",,,,,,,,,,,,,,,,,,,,,,,,,,,,,,,,,,,,,2,0,2,0,1,,,,,,,,,,,,
,,62b083f9ca87faa7a75c0235,2022-09-08_14h03.39.937,CGTgamblingSpanTasks,2022.2.1,Win32,59.89099838,,,,,,,,,,,,,,,,,,,,,,,,,,,,,,,,,,,,,,,,,,,,,,,,,,,,,,,,,,,,,,,,,,,,,,,,,,,,,,,,,,"[8,7,1,9,5,6,4]",,,,,,,,,,,,,,,,,,,,,,,,,,,,,,,,,,,,,3,0,3,0,1,,,,,,,,,,,,
,,62b083f9ca87faa7a75c0235,2022-09-08_14h03.39.937,CGTgamblingSpanTasks,2022.2.1,Win32,59.89099838,,,,,,,,,,,,,,,,,,,,,,,,,,,,,,,,,,,,,,,,,,,,,,,,,,,,,,,,,,,,,,,,,,,,,,,,,,,,,,,,,,"[8,7,1,9,5,6,4]",,,,,,,,,,,,,,,,,,,,,,,,,,,,,,,,,,,,,4,0,4,0,1,,,,,,,,,,,,
