initITIstatic,initITIdynamic,participant,date,expName,psychopyVersion,OS,frameRate,inst1.keys,inst1.rt,startPracResp.keys,startPracResp.rt,choice1.keys,choice1.rt,outcome,extraITI,trials.thisRepN,trials.thisTrialN,trials.thisN,trials.thisIndex,trials.ran,riskyGain,riskyLoss,alternative,isi,iti,loc,postPractResp.keys,postPractResp.rt,realloc,realChoice.keys,realChoice.rt,outcomes,choices,actualITI,init ITI,staticRDM.thisRepN,staticRDM.thisTrialN,staticRDM.thisN,staticRDM.thisIndex,staticRDM.ran,riskyoption1,riskyoption2,safeoption,ischecktrial,dynamicChoiceSetName,dynamicChoiceSetPath,bestRho,bestMu,trials_2.thisRepN,trials_2.thisTrialN,trials_2.thisN,trials_2.thisIndex,trials_2.ran,key_resp.keys,key_resp.rt,dynamicRDM.thisRepN,dynamicRDM.thisTrialN,dynamicRDM.thisN,dynamicRDM.thisIndex,dynamicRDM.ran,choiceP,easy0difficult1,stopBreak.keys,stopBreak.rt,movealong.keys,movealong.rt,startPractice.keys,startPractice.rt,textboxPractice.text,correct,mousePractice.x,mousePractice.y,mousePractice.leftButton,mousePractice.midButton,mousePractice.rightButton,mousePractice.clicked_name,trialFSPractice.thisRepN,trialFSPractice.thisTrialN,trialFSPractice.thisN,trialFSPractice.thisIndex,trialFSPractice.ran,digitSpanForward,digits,digitsReverse,digitSpanReverse,digitsReverseCorrAnswer,startFSreal.keys,startFSreal.rt,digitsForTrial,digitLoop.thisRepN,digitLoop.thisTrialN,digitLoop.thisN,digitLoop.thisIndex,digitLoop.ran,textbox.text,mouse_3.x,mouse_3.y,mouse_3.leftButton,mouse_3.midButton,mouse_3.rightButton,mouse_3.clicked_name,trialsFS.thisRepN,trialsFS.thisTrialN,trialsFS.thisN,trialsFS.thisIndex,trialsFS.ran,trialNumber,moveToBS.keys,moveToBS.rt,startBSprac.keys,startBSprac.rt,textboxPractice_2.text,mousePractice_2.x,mousePractice_2.y,mousePractice_2.leftButton,mousePractice_2.midButton,mousePractice_2.rightButton,mousePractice_2.clicked_name,trialsPracticeBS.thisRepN,trialsPracticeBS.thisTrialN,trialsPracticeBS.thisN,trialsPracticeBS.thisIndex,trialsPracticeBS.ran,startBSreal.keys,startBSreal.rt,digitLoopBS.thisRepN,digitLoopBS.thisTrialN,digitLoopBS.thisN,digitLoopBS.thisIndex,digitLoopBS.ran,textboxBS.text,mouseBS.x,mouseBS.y,mouseBS.leftButton,mouseBS.midButton,mouseBS.rightButton,mouseBS.clicked_name,trialsBS.thisRepN,trialsBS.thisTrialN,trialsBS.thisN,trialsBS.thisIndex,trialsBS.ran
"[1.5,1.5,1.5,1.5,1.5,1,1,1,1.5,1,1,1.5,1.5,1,1,1,1.5,1,1,1,1.5,1,1,1,1,1.5,1.5,1.5,1.5,1.5,1,1.5,1,1.5,1.5,1.5,1.5,1,1,1,1.5,1,1,1,1,1,1.5,1.5,1.5,1.5]","[1.5,1.5,1,1.5,1,1,1.5,1.5,1,1.5,1.5,1.5,1.5,1.5,1.5,1,1.5,1.5,1.5,1.5,1,1,1.5,1.5,1,1.5,1,1.5,1,1,1.5,1,1,1,1.5,1.5,1.5,1.5,1,1.5,1.5,1.5,1.5,1,1.5,1,1.5,1,1,1,1.5,1,1,1,1,1.5,1,1.5,1,1,1.5,1,1.5,1,1,1.5,1,1.5,1.5,1,1,1.5,1,1.5,1,1.5,1,1,1,1.5,1.5,1.5,1.5,1.5,1.5,1,1,1,1,1,1.5,1.5,1.5,1.5,1,1.5,1.5,1,1,1,1,1,1,1.5,1,1,1,1.5,1,1.5,1,1,1,1.5,1.5,1,1,1.5,1,1.5]",60ff1675f00a765cb05017e8,2022-09-08_11h07.35.618,CGTgamblingSpanTasks,2022.2.1,MacIntel,60.0024001,,,,,,,,,,,,,,,,,,,,,,,,,,,,,,,,,,,,,,,,,,,,,,,,,,,,,,,,,,,,,,,,,,,,,,,,,,,,,,,,,,,,,,,,,,,,,,,,,,,,,,,,,,,,,,,,,,,,,,,,,,,,,,,,,,,,,,,
,,60ff1675f00a765cb05017e8,2022-09-08_11h07.35.618,CGTgamblingSpanTasks,2022.2.1,MacIntel,60.0024001,return,16.8696,,,,,,,,,,,,,,,,,,,,,,,,,,,,,,,,,,,,,,,,,,,,,,,,,,,,,,,,,,,,,,,,,,,,,,,,,,,,,,,,,,,,,,,,,,,,,,,,,,,,,,,,,,,,,,,,,,,,,,,,,,,,,,,,,,,,,
,,60ff1675f00a765cb05017e8,2022-09-08_11h07.35.618,CGTgamblingSpanTasks,2022.2.1,MacIntel,60.0024001,,,v,3.0031,,,,,,,,,,,,,,,,,,,,,,,,,,,,,,,,,,,,,,,,,,,,,,,,,,,,,,,,,,,,,,,,,,,,,,,,,,,,,,,,,,,,,,,,,,,,,,,,,,,,,,,,,,,,,,,,,,,,,,,,,,,,,,,,,,,
,,60ff1675f00a765cb05017e8,2022-09-08_11h07.35.618,CGTgamblingSpanTasks,2022.2.1,MacIntel,60.0024001,,,,,v,1.1575,0,2.8425,0,0,0,0,1,18.23,0,9.45,2,1,1,,,,,,,,,,,,,,,,,,,,,,,,,,,,,,,,,,,,,,,,,,,,,,,,,,,,,,,,,,,,,,,,,,,,,,,,,,,,,,,,,,,,,,,,,,,,,,,,,,,,,,,,,,,,,,,,,,,,
,,60ff1675f00a765cb05017e8,2022-09-08_11h07.35.618,CGTgamblingSpanTasks,2022.2.1,MacIntel,60.0024001,,,,,n,1.1512,35.16,2.8488,0,1,1,1,1,53.27,0,35.16,1,1.5,1,,,,,,,,,,,,,,,,,,,,,,,,,,,,,,,,,,,,,,,,,,,,,,,,,,,,,,,,,,,,,,,,,,,,,,,,,,,,,,,,,,,,,,,,,,,,,,,,,,,,,,,,,,,,,,,,,,,,
,,60ff1675f00a765cb05017e8,2022-09-08_11h07.35.618,CGTgamblingSpanTasks,2022.2.1,MacIntel,60.0024001,,,,,v,1.8703,1.15,2.1297,0,2,2,2,1,8.27,0,1.15,1,1.5,2,,,,,,,,,,,,,,,,,,,,,,,,,,,,,,,,,,,,,,,,,,,,,,,,,,,,,,,,,,,,,,,,,,,,,,,,,,,,,,,,,,,,,,,,,,,,,,,,,,,,,,,,,,,,,,,,,,,,
,,60ff1675f00a765cb05017e8,2022-09-08_11h07.35.618,CGTgamblingSpanTasks,2022.2.1,MacIntel,60.0024001,,,,,n,1.2199,40.41,2.7801,0,3,3,3,1,45.88,0,40.41,3,1,1,,,,,,,,,,,,,,,,,,,,,,,,,,,,,,,,,,,,,,,,,,,,,,,,,,,,,,,,,,,,,,,,,,,,,,,,,,,,,,,,,,,,,,,,,,,,,,,,,,,,,,,,,,,,,,,,,,,,
,,60ff1675f00a765cb05017e8,2022-09-08_11h07.35.618,CGTgamblingSpanTasks,2022.2.1,MacIntel,60.0024001,,,,,v,1.1698,11.96,2.8302,0,4,4,4,1,21.56,0,11.96,1,1.5,2,,,,,,,,,,,,,,,,,,,,,,,,,,,,,,,,,,,,,,,,,,,,,,,,,,,,,,,,,,,,,,,,,,,,,,,,,,,,,,,,,,,,,,,,,,,,,,,,,,,,,,,,,,,,,,,,,,,,
,,60ff1675f00a765cb05017e8,2022-09-08_11h07.35.618,CGTgamblingSpanTasks,2022.2.1,MacIntel,60.0024001,,,,,,,,,,,,,,,,,,,,v,5.9535,,,,,,,,,,,,,,,,,,,,,,,,,,,,,,,,,,,,,,,,,,,,,,,,,,,,,,,,,,,,,,,,,,,,,,,,,,,,,,,,,,,,,,,,,,,,,,,,,,,,,,,,,,,,,,,,,,
,,60ff1675f00a765cb05017e8,2022-09-08_11h07.35.618,CGTgamblingSpanTasks,2022.2.1,MacIntel,60.0024001,,,,,,,,3.067,,,,,,,,,,,,,,1,v,0.933,0,1,4.567,1.5,0,0,0,20,1,11.84,0,6.08,0,,,,,,,,,,,,,,,,,,,,,,,,,,,,,,,,,,,,,,,,,,,,,,,,,,,,,,,,,,,,,,,,,,,,,,,,,,,,,,,,,,,,,,,,,,,,,,,,,,
,,60ff1675f00a765cb05017e8,2022-09-08_11h07.35.618,CGTgamblingSpanTasks,2022.2.1,MacIntel,60.0024001,,,,,,,,2.5448,,,,,,,,,,,,,,1,n,1.4552,6.73,0,4.0448,1.5,0,1,1,32,1,10.55,0,6.73,0,,,,,,,,,,,,,,,,,,,,,,,,,,,,,,,,,,,,,,,,,,,,,,,,,,,,,,,,,,,,,,,,,,,,,,,,,,,,,,,,,,,,,,,,,,,,,,,,,,
,,60ff1675f00a765cb05017e8,2022-09-08_11h07.35.618,CGTgamblingSpanTasks,2022.2.1,MacIntel,60.0024001,,,,,,,,3.1546,,,,,,,,,,,,,,2,v,0.8454,9.92,0,4.6546,1.5,0,2,2,49,1,6.79,0,9.92,1,,,,,,,,,,,,,,,,,,,,,,,,,,,,,,,,,,,,,,,,,,,,,,,,,,,,,,,,,,,,,,,,,,,,,,,,,,,,,,,,,,,,,,,,,,,,,,,,,,
,,60ff1675f00a765cb05017e8,2022-09-08_11h07.35.618,CGTgamblingSpanTasks,2022.2.1,MacIntel,60.0024001,,,,,,,,2.8807,,,,,,,,,,,,,,1,v,1.1193,15.27,1,4.3807,1.5,0,3,3,37,1,15.27,0,10.37,0,,,,,,,,,,,,,,,,,,,,,,,,,,,,,,,,,,,,,,,,,,,,,,,,,,,,,,,,,,,,,,,,,,,,,,,,,,,,,,,,,,,,,,,,,,,,,,,,,,
,,60ff1675f00a765cb05017e8,2022-09-08_11h07.35.618,CGTgamblingSpanTasks,2022.2.1,MacIntel,60.0024001,,,,,,,,3.0257,,,,,,,,,,,,,,2,v,0.9743,5.48,0,4.5257,1.5,0,4,4,12,1,13.04,0,5.48,0,,,,,,,,,,,,,,,,,,,,,,,,,,,,,,,,,,,,,,,,,,,,,,,,,,,,,,,,,,,,,,,,,,,,,,,,,,,,,,,,,,,,,,,,,,,,,,,,,,
,,60ff1675f00a765cb05017e8,2022-09-08_11h07.35.618,CGTgamblingSpanTasks,2022.2.1,MacIntel,60.0024001,,,,,,,,3.0562,,,,,,,,,,,,,,2,n,0.9438,0,1,4.0562,1,0,5,5,16,1,12.36,0,5.82,0,,,,,,,,,,,,,,,,,,,,,,,,,,,,,,,,,,,,,,,,,,,,,,,,,,,,,,,,,,,,,,,,,,,,,,,,,,,,,,,,,,,,,,,,,,,,,,,,,,
,,60ff1675f00a765cb05017e8,2022-09-08_11h07.35.618,CGTgamblingSpanTasks,2022.2.1,MacIntel,60.0024001,,,,,,,,3.1542,,,,,,,,,,,,,,2,n,0.8458,0,1,4.1542,1,0,6,6,19,1,17.94,0,9.03,0,,,,,,,,,,,,,,,,,,,,,,,,,,,,,,,,,,,,,,,,,,,,,,,,,,,,,,,,,,,,,,,,,,,,,,,,,,,,,,,,,,,,,,,,,,,,,,,,,,
,,60ff1675f00a765cb05017e8,2022-09-08_11h07.35.618,CGTgamblingSpanTasks,2022.2.1,MacIntel,60.0024001,,,,,,,,3.1621,,,,,,,,,,,,,,2,n,0.8379,16.11,1,4.1621,1,0,7,7,43,1,16.11,6.99,6.99,1,,,,,,,,,,,,,,,,,,,,,,,,,,,,,,,,,,,,,,,,,,,,,,,,,,,,,,,,,,,,,,,,,,,,,,,,,,,,,,,,,,,,,,,,,,,,,,,,,,
,,60ff1675f00a765cb05017e8,2022-09-08_11h07.35.618,CGTgamblingSpanTasks,2022.2.1,MacIntel,60.0024001,,,,,,,,2.8154,,,,,,,,,,,,,,1,n,1.1846,10.02,0,4.3154,1.5,0,8,8,31,1,15.96,0,10.02,0,,,,,,,,,,,,,,,,,,,,,,,,,,,,,,,,,,,,,,,,,,,,,,,,,,,,,,,,,,,,,,,,,,,,,,,,,,,,,,,,,,,,,,,,,,,,,,,,,,
,,60ff1675f00a765cb05017e8,2022-09-08_11h07.35.618,CGTgamblingSpanTasks,2022.2.1,MacIntel,60.0024001,,,,,,,,3.0566,,,,,,,,,,,,,,2,v,0.9434,9.5,0,4.0566,1,0,9,9,25,1,17,0,9.5,0,,,,,,,,,,,,,,,,,,,,,,,,,,,,,,,,,,,,,,,,,,,,,,,,,,,,,,,,,,,,,,,,,,,,,,,,,,,,,,,,,,,,,,,,,,,,,,,,,,
,,60ff1675f00a765cb05017e8,2022-09-08_11h07.35.618,CGTgamblingSpanTasks,2022.2.1,MacIntel,60.0024001,,,,,,,,2.783,,,,,,,,,,,,,,2,n,1.217,18.33,1,3.783,1,0,10,10,17,1,18.33,0,8.84,0,,,,,,,,,,,,,,,,,,,,,,,,,,,,,,,,,,,,,,,,,,,,,,,,,,,,,,,,,,,,,,,,,,,,,,,,,,,,,,,,,,,,,,,,,,,,,,,,,,
,,60ff1675f00a765cb05017e8,2022-09-08_11h07.35.618,CGTgamblingSpanTasks,2022.2.1,MacIntel,60.0024001,,,,,,,,3.018,,,,,,,,,,,,,,1,n,0.982,5.03,0,4.518,1.5,0,11,11,8,1,13.94,0,5.03,0,,,,,,,,,,,,,,,,,,,,,,,,,,,,,,,,,,,,,,,,,,,,,,,,,,,,,,,,,,,,,,,,,,,,,,,,,,,,,,,,,,,,,,,,,,,,,,,,,,
,,60ff1675f00a765cb05017e8,2022-09-08_11h07.35.618,CGTgamblingSpanTasks,2022.2.1,MacIntel,60.0024001,,,,,,,,3.0242,,,,,,,,,,,,,,2,v,0.9758,10.27,0,4.5242,1.5,0,12,12,35,1,15.47,0,10.27,0,,,,,,,,,,,,,,,,,,,,,,,,,,,,,,,,,,,,,,,,,,,,,,,,,,,,,,,,,,,,,,,,,,,,,,,,,,,,,,,,,,,,,,,,,,,,,,,,,,
,,60ff1675f00a765cb05017e8,2022-09-08_11h07.35.618,CGTgamblingSpanTasks,2022.2.1,MacIntel,60.0024001,,,,,,,,3.1758,,,,,,,,,,,,,,1,n,0.8242,10.46,0,4.1758,1,0,13,13,39,1,15.09,0,10.46,0,,,,,,,,,,,,,,,,,,,,,,,,,,,,,,,,,,,,,,,,,,,,,,,,,,,,,,,,,,,,,,,,,,,,,,,,,,,,,,,,,,,,,,,,,,,,,,,,,,
,,60ff1675f00a765cb05017e8,2022-09-08_11h07.35.618,CGTgamblingSpanTasks,2022.2.1,MacIntel,60.0024001,,,,,,,,2.6717,,,,,,,,,,,,,,2,n,1.3283,28.21,1,3.6717,1,0,14,14,1,1,28.21,0,3.89,0,,,,,,,,,,,,,,,,,,,,,,,,,,,,,,,,,,,,,,,,,,,,,,,,,,,,,,,,,,,,,,,,,,,,,,,,,,,,,,,,,,,,,,,,,,,,,,,,,,
,,60ff1675f00a765cb05017e8,2022-09-08_11h07.35.618,CGTgamblingSpanTasks,2022.2.1,MacIntel,60.0024001,,,,,,,,2.893,,,,,,,,,,,,,,2,n,1.107,0,1,3.893,1,0,15,15,41,1,14.26,0,0,1,,,,,,,,,,,,,,,,,,,,,,,,,,,,,,,,,,,,,,,,,,,,,,,,,,,,,,,,,,,,,,,,,,,,,,,,,,,,,,,,,,,,,,,,,,,,,,,,,,
,,60ff1675f00a765cb05017e8,2022-09-08_11h07.35.618,CGTgamblingSpanTasks,2022.2.1,MacIntel,60.0024001,,,,,,,,2.7126,,,,,,,,,,,,,,2,v,1.2874,6.63,0,4.2126,1.5,0,16,16,30,1,10.73,0,6.63,0,,,,,,,,,,,,,,,,,,,,,,,,,,,,,,,,,,,,,,,,,,,,,,,,,,,,,,,,,,,,,,,,,,,,,,,,,,,,,,,,,,,,,,,,,,,,,,,,,,
,,60ff1675f00a765cb05017e8,2022-09-08_11h07.35.618,CGTgamblingSpanTasks,2022.2.1,MacIntel,60.0024001,,,,,,,,2.8824,,,,,,,,,,,,,,2,v,1.1176,5.66,0,3.8824,1,0,17,17,14,1,12.68,0,5.66,0,,,,,,,,,,,,,,,,,,,,,,,,,,,,,,,,,,,,,,,,,,,,,,,,,,,,,,,,,,,,,,,,,,,,,,,,,,,,,,,,,,,,,,,,,,,,,,,,,,
,,60ff1675f00a765cb05017e8,2022-09-08_11h07.35.618,CGTgamblingSpanTasks,2022.2.1,MacIntel,60.0024001,,,,,,,,3.0818,,,,,,,,,,,,,,1,n,0.9182,5.96,0,4.0818,1,0,18,18,18,1,12.08,0,5.96,0,,,,,,,,,,,,,,,,,,,,,,,,,,,,,,,,,,,,,,,,,,,,,,,,,,,,,,,,,,,,,,,,,,,,,,,,,,,,,,,,,,,,,,,,,,,,,,,,,,
,,60ff1675f00a765cb05017e8,2022-09-08_11h07.35.618,CGTgamblingSpanTasks,2022.2.1,MacIntel,60.0024001,,,,,,,,3.0544,,,,,,,,,,,,,,1,v,0.9456,22.97,1,4.0544,1,0,19,19,5,1,22.97,0,6.51,0,,,,,,,,,,,,,,,,,,,,,,,,,,,,,,,,,,,,,,,,,,,,,,,,,,,,,,,,,,,,,,,,,,,,,,,,,,,,,,,,,,,,,,,,,,,,,,,,,,
,,60ff1675f00a765cb05017e8,2022-09-08_11h07.35.618,CGTgamblingSpanTasks,2022.2.1,MacIntel,60.0024001,,,,,,,,2.9684,,,,,,,,,,,,,,1,n,1.0316,9.87,0,4.4684,1.5,0,20,20,29,1,16.26,0,9.87,0,,,,,,,,,,,,,,,,,,,,,,,,,,,,,,,,,,,,,,,,,,,,,,,,,,,,,,,,,,,,,,,,,,,,,,,,,,,,,,,,,,,,,,,,,,,,,,,,,,
,,60ff1675f00a765cb05017e8,2022-09-08_11h07.35.618,CGTgamblingSpanTasks,2022.2.1,MacIntel,60.0024001,,,,,,,,3.0513,,,,,,,,,,,,,,1,n,0.9487,3.13,0,4.0513,1,0,21,21,2,1,17.73,0,3.13,0,,,,,,,,,,,,,,,,,,,,,,,,,,,,,,,,,,,,,,,,,,,,,,,,,,,,,,,,,,,,,,,,,,,,,,,,,,,,,,,,,,,,,,,,,,,,,,,,,,
,,60ff1675f00a765cb05017e8,2022-09-08_11h07.35.618,CGTgamblingSpanTasks,2022.2.1,MacIntel,60.0024001,,,,,,,,2.9099,,,,,,,,,,,,,,1,v,1.0901,19.86,1,3.9099,1,0,22,22,11,1,19.86,0,8.07,0,,,,,,,,,,,,,,,,,,,,,,,,,,,,,,,,,,,,,,,,,,,,,,,,,,,,,,,,,,,,,,,,,,,,,,,,,,,,,,,,,,,,,,,,,,,,,,,,,,
,,60ff1675f00a765cb05017e8,2022-09-08_11h07.35.618,CGTgamblingSpanTasks,2022.2.1,MacIntel,60.0024001,,,,,,,,2.5647,,,,,,,,,,,,,,2,v,1.4353,6.19,0,3.5647,1,0,23,23,22,1,11.62,0,6.19,0,,,,,,,,,,,,,,,,,,,,,,,,,,,,,,,,,,,,,,,,,,,,,,,,,,,,,,,,,,,,,,,,,,,,,,,,,,,,,,,,,,,,,,,,,,,,,,,,,,
,,60ff1675f00a765cb05017e8,2022-09-08_11h07.35.618,CGTgamblingSpanTasks,2022.2.1,MacIntel,60.0024001,,,,,,,,3.0032,,,,,,,,,,,,,,1,n,0.9968,10.25,0,4.0032,1,0,24,24,46,1,0,0,10.25,1,,,,,,,,,,,,,,,,,,,,,,,,,,,,,,,,,,,,,,,,,,,,,,,,,,,,,,,,,,,,,,,,,,,,,,,,,,,,,,,,,,,,,,,,,,,,,,,,,,
,,60ff1675f00a765cb05017e8,2022-09-08_11h07.35.618,CGTgamblingSpanTasks,2022.2.1,MacIntel,60.0024001,,,,,,,,3.0169,,,,,,,,,,,,,,2,v,0.9831,6.94,0,4.5169,1.5,0,25,25,38,1,10.12,0,6.94,0,,,,,,,,,,,,,,,,,,,,,,,,,,,,,,,,,,,,,,,,,,,,,,,,,,,,,,,,,,,,,,,,,,,,,,,,,,,,,,,,,,,,,,,,,,,,,,,,,,
,,60ff1675f00a765cb05017e8,2022-09-08_11h07.35.618,CGTgamblingSpanTasks,2022.2.1,MacIntel,60.0024001,,,,,,,,2.9376,,,,,,,,,,,,,,1,n,1.0624,10.15,0,4.4376,1.5,0,26,26,33,1,15.7,0,10.15,0,,,,,,,,,,,,,,,,,,,,,,,,,,,,,,,,,,,,,,,,,,,,,,,,,,,,,,,,,,,,,,,,,,,,,,,,,,,,,,,,,,,,,,,,,,,,,,,,,,
,,60ff1675f00a765cb05017e8,2022-09-08_11h07.35.618,CGTgamblingSpanTasks,2022.2.1,MacIntel,60.0024001,,,,,,,,3.2377,,,,,,,,,,,,,,2,v,0.7623,6.29,0,4.7377,1.5,0,27,27,24,1,11.43,0,6.29,0,,,,,,,,,,,,,,,,,,,,,,,,,,,,,,,,,,,,,,,,,,,,,,,,,,,,,,,,,,,,,,,,,,,,,,,,,,,,,,,,,,,,,,,,,,,,,,,,,,
,,60ff1675f00a765cb05017e8,2022-09-08_11h07.35.618,CGTgamblingSpanTasks,2022.2.1,MacIntel,60.0024001,,,,,,,,2.8042,,,,,,,,,,,,,,1,n,1.1958,6.88,0,4.3042,1.5,0,28,28,36,1,10.24,0,6.88,0,,,,,,,,,,,,,,,,,,,,,,,,,,,,,,,,,,,,,,,,,,,,,,,,,,,,,,,,,,,,,,,,,,,,,,,,,,,,,,,,,,,,,,,,,,,,,,,,,,
,,60ff1675f00a765cb05017e8,2022-09-08_11h07.35.618,CGTgamblingSpanTasks,2022.2.1,MacIntel,60.0024001,,,,,,,,2.9523,,,,,,,,,,,,,,1,n,1.0477,7.34,0,4.4523,1.5,0,29,29,7,1,21.32,0,7.34,0,,,,,,,,,,,,,,,,,,,,,,,,,,,,,,,,,,,,,,,,,,,,,,,,,,,,,,,,,,,,,,,,,,,,,,,,,,,,,,,,,,,,,,,,,,,,,,,,,,
,,60ff1675f00a765cb05017e8,2022-09-08_11h07.35.618,CGTgamblingSpanTasks,2022.2.1,MacIntel,60.0024001,,,,,,,,2.8859,,,,,,,,,,,,,,1,v,1.1141,19.28,1,3.8859,1,0,30,30,13,1,19.28,0,8.36,0,,,,,,,,,,,,,,,,,,,,,,,,,,,,,,,,,,,,,,,,,,,,,,,,,,,,,,,,,,,,,,,,,,,,,,,,,,,,,,,,,,,,,,,,,,,,,,,,,,
,,60ff1675f00a765cb05017e8,2022-09-08_11h07.35.618,CGTgamblingSpanTasks,2022.2.1,MacIntel,60.0024001,,,,,,,,3.123,,,,,,,,,,,,,,1,n,0.877,7.55,0,4.623,1.5,0,31,31,45,1,0,0,7.55,1,,,,,,,,,,,,,,,,,,,,,,,,,,,,,,,,,,,,,,,,,,,,,,,,,,,,,,,,,,,,,,,,,,,,,,,,,,,,,,,,,,,,,,,,,,,,,,,,,,
,,60ff1675f00a765cb05017e8,2022-09-08_11h07.35.618,CGTgamblingSpanTasks,2022.2.1,MacIntel,60.0024001,,,,,,,,3.1528,,,,,,,,,,,,,,2,v,0.8472,9.7,0,4.1528,1,0,32,32,27,1,16.6,0,9.7,0,,,,,,,,,,,,,,,,,,,,,,,,,,,,,,,,,,,,,,,,,,,,,,,,,,,,,,,,,,,,,,,,,,,,,,,,,,,,,,,,,,,,,,,,,,,,,,,,,,
,,60ff1675f00a765cb05017e8,2022-09-08_11h07.35.618,CGTgamblingSpanTasks,2022.2.1,MacIntel,60.0024001,,,,,,,,2.9044,,,,,,,,,,,,,,2,n,1.0956,14.72,1,4.4044,1.5,0,33,33,6,1,14.72,0,4.64,0,,,,,,,,,,,,,,,,,,,,,,,,,,,,,,,,,,,,,,,,,,,,,,,,,,,,,,,,,,,,,,,,,,,,,,,,,,,,,,,,,,,,,,,,,,,,,,,,,,
,,60ff1675f00a765cb05017e8,2022-09-08_11h07.35.618,CGTgamblingSpanTasks,2022.2.1,MacIntel,60.0024001,,,,,,,,2.894,,,,,,,,,,,,,,1,n,1.106,6.53,0,4.394,1.5,0,34,34,28,1,10.95,0,6.53,0,,,,,,,,,,,,,,,,,,,,,,,,,,,,,,,,,,,,,,,,,,,,,,,,,,,,,,,,,,,,,,,,,,,,,,,,,,,,,,,,,,,,,,,,,,,,,,,,,,
,,60ff1675f00a765cb05017e8,2022-09-08_11h07.35.618,CGTgamblingSpanTasks,2022.2.1,MacIntel,60.0024001,,,,,,,,3.1942,,,,,,,,,,,,,,2,v,0.8058,9.2,0,4.6942,1.5,0,35,35,21,1,17.59,0,9.2,0,,,,,,,,,,,,,,,,,,,,,,,,,,,,,,,,,,,,,,,,,,,,,,,,,,,,,,,,,,,,,,,,,,,,,,,,,,,,,,,,,,,,,,,,,,,,,,,,,,
,,60ff1675f00a765cb05017e8,2022-09-08_11h07.35.618,CGTgamblingSpanTasks,2022.2.1,MacIntel,60.0024001,,,,,,,,2.9038,,,,,,,,,,,,,,1,v,1.0962,16,1,4.4038,1.5,0,36,36,4,1,16,0,4,0,,,,,,,,,,,,,,,,,,,,,,,,,,,,,,,,,,,,,,,,,,,,,,,,,,,,,,,,,,,,,,,,,,,,,,,,,,,,,,,,,,,,,,,,,,,,,,,,,,
,,60ff1675f00a765cb05017e8,2022-09-08_11h07.35.618,CGTgamblingSpanTasks,2022.2.1,MacIntel,60.0024001,,,,,,,,2.955,,,,,,,,,,,,,,1,n,1.045,6.81,0,3.955,1,0,37,37,34,1,10.39,0,6.81,0,,,,,,,,,,,,,,,,,,,,,,,,,,,,,,,,,,,,,,,,,,,,,,,,,,,,,,,,,,,,,,,,,,,,,,,,,,,,,,,,,,,,,,,,,,,,,,,,,,
,,60ff1675f00a765cb05017e8,2022-09-08_11h07.35.618,CGTgamblingSpanTasks,2022.2.1,MacIntel,60.0024001,,,,,,,,3.2588,,,,,,,,,,,,,,2,v,0.7412,4.68,0,4.2588,1,0,38,38,44,1,13.1,7.73,4.68,1,,,,,,,,,,,,,,,,,,,,,,,,,,,,,,,,,,,,,,,,,,,,,,,,,,,,,,,,,,,,,,,,,,,,,,,,,,,,,,,,,,,,,,,,,,,,,,,,,,
,,60ff1675f00a765cb05017e8,2022-09-08_11h07.35.618,CGTgamblingSpanTasks,2022.2.1,MacIntel,60.0024001,,,,,,,,3.0237,,,,,,,,,,,,,,2,n,0.9763,0,1,4.0237,1,0,39,39,42,1,19.86,0,0,1,,,,,,,,,,,,,,,,,,,,,,,,,,,,,,,,,,,,,,,,,,,,,,,,,,,,,,,,,,,,,,,,,,,,,,,,,,,,,,,,,,,,,,,,,,,,,,,,,,
,,60ff1675f00a765cb05017e8,2022-09-08_11h07.35.618,CGTgamblingSpanTasks,2022.2.1,MacIntel,60.0024001,,,,,,,,2.8219,,,,,,,,,,,,,,2,n,1.1781,25.2,1,4.3219,1.5,0,40,40,3,1,25.2,0,5.4,0,,,,,,,,,,,,,,,,,,,,,,,,,,,,,,,,,,,,,,,,,,,,,,,,,,,,,,,,,,,,,,,,,,,,,,,,,,,,,,,,,,,,,,,,,,,,,,,,,,
,,60ff1675f00a765cb05017e8,2022-09-08_11h07.35.618,CGTgamblingSpanTasks,2022.2.1,MacIntel,60.0024001,,,,,,,,2.7563,,,,,,,,,,,,,,1,v,1.2437,10.35,1,3.7563,1,0,41,41,40,1,10.35,0,0,1,,,,,,,,,,,,,,,,,,,,,,,,,,,,,,,,,,,,,,,,,,,,,,,,,,,,,,,,,,,,,,,,,,,,,,,,,,,,,,,,,,,,,,,,,,,,,,,,,,
,,60ff1675f00a765cb05017e8,2022-09-08_11h07.35.618,CGTgamblingSpanTasks,2022.2.1,MacIntel,60.0024001,,,,,,,,2.5727,,,,,,,,,,,,,,1,n,1.4273,9.36,0,3.5727,1,0,42,42,23,1,17.28,0,9.36,0,,,,,,,,,,,,,,,,,,,,,,,,,,,,,,,,,,,,,,,,,,,,,,,,,,,,,,,,,,,,,,,,,,,,,,,,,,,,,,,,,,,,,,,,,,,,,,,,,,
,,60ff1675f00a765cb05017e8,2022-09-08_11h07.35.618,CGTgamblingSpanTasks,2022.2.1,MacIntel,60.0024001,,,,,,,,2.9351,,,,,,,,,,,,,,1,n,1.0649,5.27,0,3.9351,1,0,43,43,10,1,13.45,0,5.27,0,,,,,,,,,,,,,,,,,,,,,,,,,,,,,,,,,,,,,,,,,,,,,,,,,,,,,,,,,,,,,,,,,,,,,,,,,,,,,,,,,,,,,,,,,,,,,,,,,,
,,60ff1675f00a765cb05017e8,2022-09-08_11h07.35.618,CGTgamblingSpanTasks,2022.2.1,MacIntel,60.0024001,,,,,,,,3.1274,,,,,,,,,,,,,,2,v,0.8726,8.61,0,4.1274,1,0,44,44,15,1,18.77,0,8.61,0,,,,,,,,,,,,,,,,,,,,,,,,,,,,,,,,,,,,,,,,,,,,,,,,,,,,,,,,,,,,,,,,,,,,,,,,,,,,,,,,,,,,,,,,,,,,,,,,,,
,,60ff1675f00a765cb05017e8,2022-09-08_11h07.35.618,CGTgamblingSpanTasks,2022.2.1,MacIntel,60.0024001,,,,,,,,2.9085,,,,,,,,,,,,,,1,n,1.0915,7.73,0,3.9085,1,0,45,45,9,1,20.53,0,7.73,0,,,,,,,,,,,,,,,,,,,,,,,,,,,,,,,,,,,,,,,,,,,,,,,,,,,,,,,,,,,,,,,,,,,,,,,,,,,,,,,,,,,,,,,,,,,,,,,,,,
,,60ff1675f00a765cb05017e8,2022-09-08_11h07.35.618,CGTgamblingSpanTasks,2022.2.1,MacIntel,60.0024001,,,,,,,,2.9242,,,,,,,,,,,,,,2,n,1.0758,11.2,1,4.4242,1.5,0,46,46,26,1,11.2,0,6.4,0,,,,,,,,,,,,,,,,,,,,,,,,,,,,,,,,,,,,,,,,,,,,,,,,,,,,,,,,,,,,,,,,,,,,,,,,,,,,,,,,,,,,,,,,,,,,,,,,,,
,,60ff1675f00a765cb05017e8,2022-09-08_11h07.35.618,CGTgamblingSpanTasks,2022.2.1,MacIntel,60.0024001,,,,,,,,2.8958,,,,,,,,,,,,,,1,n,1.1042,10.68,0,4.3958,1.5,0,47,47,48,1,10.68,0,10.68,1,,,,,,,,,,,,,,,,,,,,,,,,,,,,,,,,,,,,,,,,,,,,,,,,,,,,,,,,,,,,,,,,,,,,,,,,,,,,,,,,,,,,,,,,,,,,,,,,,,
,,60ff1675f00a765cb05017e8,2022-09-08_11h07.35.618,CGTgamblingSpanTasks,2022.2.1,MacIntel,60.0024001,,,,,,,,2.985,,,,,,,,,,,,,,2,v,1.015,3.13,0,4.485,1.5,0,48,48,47,1,0,0,3.13,1,,,,,,,,,,,,,,,,,,,,,,,,,,,,,,,,,,,,,,,,,,,,,,,,,,,,,,,,,,,,,,,,,,,,,,,,,,,,,,,,,,,,,,,,,,,,,,,,,,
,,60ff1675f00a765cb05017e8,2022-09-08_11h07.35.618,CGTgamblingSpanTasks,2022.2.1,MacIntel,60.0024001,,,,,,,,2.7411,,,,,,,,,,,,,,2,n,1.2589,0,1,4.2411,1.5,0,49,49,0,1,20.03,0,1.99,0,,,,,,,,,,,,,,,,,,,,,,,,,,,,,,,,,,,,,,,,,,,,,,,,,,,,,,,,,,,,,,,,,,,,,,,,,,,,,,,,,,,,,,,,,,,,,,,,,,
,,60ff1675f00a765cb05017e8,2022-09-08_11h07.35.618,CGTgamblingSpanTasks,2022.2.1,MacIntel,60.0024001,,,,,,,,,,,,,,,,,,,,,,,,,,,,,,,,,,,,,,bespoke_choiceset_rhoInd036_muInd008.csv,bespoke_choicesets/bespoke_choiceset_rhoInd036_muInd008.csv,36,8,0,0,0,0,1,,,,,,,,,,,,,,,,,,,,,,,,,,,,,,,,,,,,,,,,,,,,,,,,,,,,,,,,,,,,,,,,,,,,,,,,,,,,,,,,,,,,,,,,,
,,60ff1675f00a765cb05017e8,2022-09-08_11h07.35.618,CGTgamblingSpanTasks,2022.2.1,MacIntel,60.0024001,,,,,,,,,,,,,,,,,,,,,,,,,,,,,,,,,,,,,,,,,,,,,,,,,,,,,,,,,,,,,,,,,,,,,,,,,,,,,,,,,,,,,,,,,,,,,,,,,,,,,,,,,,,,,,,,,,,,,,,,,,,,,,,,,,,,,,,
,,60ff1675f00a765cb05017e8,2022-09-08_11h07.35.618,CGTgamblingSpanTasks,2022.2.1,MacIntel,60.0024001,,,,,,,,,,,,,,,,,,,,,,,,,,,,,,,,,,,,,,,,,,,,,,,v,12.0834,,,,,,,,,,,,,,,,,,,,,,,,,,,,,,,,,,,,,,,,,,,,,,,,,,,,,,,,,,,,,,,,,,,,,,,,,,,,,,,,,,,,,,,
,,60ff1675f00a765cb05017e8,2022-09-08_11h07.35.618,CGTgamblingSpanTasks,2022.2.1,MacIntel,60.0024001,,,,,,,,3.999,,,,,,,,,,,,,,1,n,0.001,2.320849632,0,5.499,1.5,,,,,,27.7711693,0,2.320849632,,,,,,,,,,,,,0,0,0,94,1,0.543786368,1,,,,,,,,,,,,,,,,,,,,,,,,,,,,,,,,,,,,,,,,,,,,,,,,,,,,,,,,,,,,,,,,,,,,,,,,,,,,,,,,
,,60ff1675f00a765cb05017e8,2022-09-08_11h07.35.618,CGTgamblingSpanTasks,2022.2.1,MacIntel,60.0024001,,,,,,,,2.2737,,,,,,,,,,,,,,1,v,1.7263,22.62475578,1,3.7737,1.5,,,,,,22.62475578,0,2.397643354,,,,,,,,,,,,,0,1,1,93,1,0.482527609,1,,,,,,,,,,,,,,,,,,,,,,,,,,,,,,,,,,,,,,,,,,,,,,,,,,,,,,,,,,,,,,,,,,,,,,,,,,,,,,,,
,,60ff1675f00a765cb05017e8,2022-09-08_11h07.35.618,CGTgamblingSpanTasks,2022.2.1,MacIntel,60.0024001,,,,,,,,2.975,,,,,,,,,,,,,,1,v,1.025,25.65316415,1,3.975,1,,,,,,25.65316415,0,0.079652925,,,,,,,,,,,,,0,2,2,109,1,0.90568168,0,,,,,,,,,,,,,,,,,,,,,,,,,,,,,,,,,,,,,,,,,,,,,,,,,,,,,,,,,,,,,,,,,,,,,,,,,,,,,,,,
,,60ff1675f00a765cb05017e8,2022-09-08_11h07.35.618,CGTgamblingSpanTasks,2022.2.1,MacIntel,60.0024001,,,,,,,,2.7269,,,,,,,,,,,,,,1,v,1.2731,21.16780451,1,4.2269,1.5,,,,,,21.16780451,0,2.469465385,,,,,,,,,,,,,0,3,3,32,1,0.456531699,1,,,,,,,,,,,,,,,,,,,,,,,,,,,,,,,,,,,,,,,,,,,,,,,,,,,,,,,,,,,,,,,,,,,,,,,,,,,,,,,,
,,60ff1675f00a765cb05017e8,2022-09-08_11h07.35.618,CGTgamblingSpanTasks,2022.2.1,MacIntel,60.0024001,,,,,,,,2.7442,,,,,,,,,,,,,,1,v,1.2558,0,1,3.7442,1,,,,,,13.4287264,0,1.317368801,,,,,,,,,,,,,0,4,4,100,1,0.502953125,1,,,,,,,,,,,,,,,,,,,,,,,,,,,,,,,,,,,,,,,,,,,,,,,,,,,,,,,,,,,,,,,,,,,,,,,,,,,,,,,,
,,60ff1675f00a765cb05017e8,2022-09-08_11h07.35.618,CGTgamblingSpanTasks,2022.2.1,MacIntel,60.0024001,,,,,,,,2.8524,,,,,,,,,,,,,,1,n,1.1476,9.936178001,0,3.8524,1,,,,,,19.58698544,0,9.936178001,,,,,,,,,,,,,0,5,5,77,1,0.098812204,0,,,,,,,,,,,,,,,,,,,,,,,,,,,,,,,,,,,,,,,,,,,,,,,,,,,,,,,,,,,,,,,,,,,,,,,,,,,,,,,,
,,60ff1675f00a765cb05017e8,2022-09-08_11h07.35.618,CGTgamblingSpanTasks,2022.2.1,MacIntel,60.0024001,,,,,,,,2.8754,,,,,,,,,,,,,,2,n,1.1246,0,1,4.3754,1.5,,,,,,19.3050342,0,2.030232342,,,,,,,,,,,,,0,6,6,73,1,0.484573227,1,,,,,,,,,,,,,,,,,,,,,,,,,,,,,,,,,,,,,,,,,,,,,,,,,,,,,,,,,,,,,,,,,,,,,,,,,,,,,,,,
,,60ff1675f00a765cb05017e8,2022-09-08_11h07.35.618,CGTgamblingSpanTasks,2022.2.1,MacIntel,60.0024001,,,,,,,,2.8421,,,,,,,,,,,,,,2,v,1.1579,8.42547829,0,4.3421,1.5,,,,,,15.87668502,0,8.42547829,,,,,,,,,,,,,0,7,7,56,1,0.092099462,0,,,,,,,,,,,,,,,,,,,,,,,,,,,,,,,,,,,,,,,,,,,,,,,,,,,,,,,,,,,,,,,,,,,,,,,,,,,,,,,,
,,60ff1675f00a765cb05017e8,2022-09-08_11h07.35.618,CGTgamblingSpanTasks,2022.2.1,MacIntel,60.0024001,,,,,,,,2.9045,,,,,,,,,,,,,,1,n,1.0955,5.683635938,0,3.9045,1,,,,,,4.941039335,0,5.683635938,,,,,,,,,,,,,0,8,8,9,1,0.025481984,0,,,,,,,,,,,,,,,,,,,,,,,,,,,,,,,,,,,,,,,,,,,,,,,,,,,,,,,,,,,,,,,,,,,,,,,,,,,,,,,,
,,60ff1675f00a765cb05017e8,2022-09-08_11h07.35.618,CGTgamblingSpanTasks,2022.2.1,MacIntel,60.0024001,,,,,,,,2.7517,,,,,,,,,,,,,,1,v,1.2483,24.8002852,1,4.2517,1.5,,,,,,24.8002852,0,0.071848086,,,,,,,,,,,,,0,9,9,16,1,0.90783559,0,,,,,,,,,,,,,,,,,,,,,,,,,,,,,,,,,,,,,,,,,,,,,,,,,,,,,,,,,,,,,,,,,,,,,,,,,,,,,,,,
,,60ff1675f00a765cb05017e8,2022-09-08_11h07.35.618,CGTgamblingSpanTasks,2022.2.1,MacIntel,60.0024001,,,,,,,,2.8095,,,,,,,,,,,,,,1,v,1.1905,19.36415485,1,4.3095,1.5,,,,,,19.36415485,0,1.966229494,,,,,,,,,,,,,0,10,10,96,1,0.493893111,1,,,,,,,,,,,,,,,,,,,,,,,,,,,,,,,,,,,,,,,,,,,,,,,,,,,,,,,,,,,,,,,,,,,,,,,,,,,,,,,,
,,60ff1675f00a765cb05017e8,2022-09-08_11h07.35.618,CGTgamblingSpanTasks,2022.2.1,MacIntel,60.0024001,,,,,,,,3.1218,,,,,,,,,,,,,,2,n,0.8782,21.00799273,1,4.6218,1.5,,,,,,21.00799273,0,0.067969053,,,,,,,,,,,,,0,11,11,92,1,0.904360262,0,,,,,,,,,,,,,,,,,,,,,,,,,,,,,,,,,,,,,,,,,,,,,,,,,,,,,,,,,,,,,,,,,,,,,,,,,,,,,,,,
,,60ff1675f00a765cb05017e8,2022-09-08_11h07.35.618,CGTgamblingSpanTasks,2022.2.1,MacIntel,60.0024001,,,,,,,,2.7205,,,,,,,,,,,,,,2,n,1.2795,0,1,4.2205,1.5,,,,,,29.77342428,0,2.838865588,,,,,,,,,,,,,0,12,12,57,1,0.510363415,1,,,,,,,,,,,,,,,,,,,,,,,,,,,,,,,,,,,,,,,,,,,,,,,,,,,,,,,,,,,,,,,,,,,,,,,,,,,,,,,,
,,60ff1675f00a765cb05017e8,2022-09-08_11h07.35.618,CGTgamblingSpanTasks,2022.2.1,MacIntel,60.0024001,,,,,,,,2.8246,,,,,,,,,,,,,,2,n,1.1754,0,1,4.3246,1.5,,,,,,18.51345298,0,1.932334278,,,,,,,,,,,,,0,13,13,31,1,0.48658696,1,,,,,,,,,,,,,,,,,,,,,,,,,,,,,,,,,,,,,,,,,,,,,,,,,,,,,,,,,,,,,,,,,,,,,,,,,,,,,,,,
,,60ff1675f00a765cb05017e8,2022-09-08_11h07.35.618,CGTgamblingSpanTasks,2022.2.1,MacIntel,60.0024001,,,,,,,,2.9992,,,,,,,,,,,,,,2,v,1.0008,11.61882862,0,4.4992,1.5,,,,,,4.022743614,0,11.61882862,,,,,,,,,,,,,0,14,14,38,1,0.011499376,0,,,,,,,,,,,,,,,,,,,,,,,,,,,,,,,,,,,,,,,,,,,,,,,,,,,,,,,,,,,,,,,,,,,,,,,,,,,,,,,,
,,60ff1675f00a765cb05017e8,2022-09-08_11h07.35.618,CGTgamblingSpanTasks,2022.2.1,MacIntel,60.0024001,,,,,,,,2.891,,,,,,,,,,,,,,1,v,1.109,0,1,3.891,1,,,,,,24.479109,0,0.089582697,,,,,,,,,,,,,0,15,15,89,1,0.900200232,0,,,,,,,,,,,,,,,,,,,,,,,,,,,,,,,,,,,,,,,,,,,,,,,,,,,,,,,,,,,,,,,,,,,,,,,,,,,,,,,,
,,60ff1675f00a765cb05017e8,2022-09-08_11h07.35.618,CGTgamblingSpanTasks,2022.2.1,MacIntel,60.0024001,,,,,,,,2.9227,,,,,,,,,,,,,,1,n,1.0773,1.591282699,0,4.4227,1.5,,,,,,13.96521039,0,1.591282699,,,,,,,,,,,,,0,16,16,49,1,0.462956344,1,,,,,,,,,,,,,,,,,,,,,,,,,,,,,,,,,,,,,,,,,,,,,,,,,,,,,,,,,,,,,,,,,,,,,,,,,,,,,,,,
,,60ff1675f00a765cb05017e8,2022-09-08_11h07.35.618,CGTgamblingSpanTasks,2022.2.1,MacIntel,60.0024001,,,,,,,,3.0428,,,,,,,,,,,,,,2,v,0.9572,7.850775577,0,4.5428,1.5,,,,,,4.622707531,0,7.850775577,,,,,,,,,,,,,0,17,17,6,1,0.017737407,0,,,,,,,,,,,,,,,,,,,,,,,,,,,,,,,,,,,,,,,,,,,,,,,,,,,,,,,,,,,,,,,,,,,,,,,,,,,,,,,,
,,60ff1675f00a765cb05017e8,2022-09-08_11h07.35.618,CGTgamblingSpanTasks,2022.2.1,MacIntel,60.0024001,,,,,,,,3.0346,,,,,,,,,,,,,,1,v,0.9654,3.471484939,1,4.5346,1.5,,,,,,3.471484939,0,3.877530383,,,,,,,,,,,,,0,18,18,40,1,0.02623078,0,,,,,,,,,,,,,,,,,,,,,,,,,,,,,,,,,,,,,,,,,,,,,,,,,,,,,,,,,,,,,,,,,,,,,,,,,,,,,,,,
,,60ff1675f00a765cb05017e8,2022-09-08_11h07.35.618,CGTgamblingSpanTasks,2022.2.1,MacIntel,60.0024001,,,,,,,,2.9195,,,,,,,,,,,,,,1,v,1.0805,0,1,4.4195,1.5,,,,,,21.48443242,0,2.229247341,,,,,,,,,,,,,0,19,19,63,1,0.488155912,1,,,,,,,,,,,,,,,,,,,,,,,,,,,,,,,,,,,,,,,,,,,,,,,,,,,,,,,,,,,,,,,,,,,,,,,,,,,,,,,,
,,60ff1675f00a765cb05017e8,2022-09-08_11h07.35.618,CGTgamblingSpanTasks,2022.2.1,MacIntel,60.0024001,,,,,,,,2.7753,,,,,,,,,,,,,,2,n,1.2247,0,1,3.7753,1,,,,,,23.59556381,0,2.464662219,,,,,,,,,,,,,0,20,20,22,1,0.486383205,1,,,,,,,,,,,,,,,,,,,,,,,,,,,,,,,,,,,,,,,,,,,,,,,,,,,,,,,,,,,,,,,,,,,,,,,,,,,,,,,,
,,60ff1675f00a765cb05017e8,2022-09-08_11h07.35.618,CGTgamblingSpanTasks,2022.2.1,MacIntel,60.0024001,,,,,,,,3.0974,,,,,,,,,,,,,,2,n,0.9026,21.46599803,1,4.0974,1,,,,,,21.46599803,0,0.059789256,,,,,,,,,,,,,0,21,21,8,1,0.909019081,0,,,,,,,,,,,,,,,,,,,,,,,,,,,,,,,,,,,,,,,,,,,,,,,,,,,,,,,,,,,,,,,,,,,,,,,,,,,,,,,,
,,60ff1675f00a765cb05017e8,2022-09-08_11h07.35.618,CGTgamblingSpanTasks,2022.2.1,MacIntel,60.0024001,,,,,,,,2.8734,,,,,,,,,,,,,,1,n,1.1266,10.31611309,0,4.3734,1.5,,,,,,19.30622782,0,10.31611309,,,,,,,,,,,,,0,22,22,1,1,0.091105656,0,,,,,,,,,,,,,,,,,,,,,,,,,,,,,,,,,,,,,,,,,,,,,,,,,,,,,,,,,,,,,,,,,,,,,,,,,,,,,,,,
,,60ff1675f00a765cb05017e8,2022-09-08_11h07.35.618,CGTgamblingSpanTasks,2022.2.1,MacIntel,60.0024001,,,,,,,,3.0491,,,,,,,,,,,,,,2,n,0.9509,27.60724521,1,4.5491,1.5,,,,,,27.60724521,0,0.088432325,,,,,,,,,,,,,0,23,23,17,1,0.904684186,0,,,,,,,,,,,,,,,,,,,,,,,,,,,,,,,,,,,,,,,,,,,,,,,,,,,,,,,,,,,,,,,,,,,,,,,,,,,,,,,,
,,60ff1675f00a765cb05017e8,2022-09-08_11h07.35.618,CGTgamblingSpanTasks,2022.2.1,MacIntel,60.0024001,,,,,,,,3.0065,,,,,,,,,,,,,,1,v,0.9935,0,1,4.0065,1,,,,,,27.12325385,0,0.080932047,,,,,,,,,,,,,0,24,24,14,1,0.906929184,0,,,,,,,,,,,,,,,,,,,,,,,,,,,,,,,,,,,,,,,,,,,,,,,,,,,,,,,,,,,,,,,,,,,,,,,,,,,,,,,,
,,60ff1675f00a765cb05017e8,2022-09-08_11h07.35.618,CGTgamblingSpanTasks,2022.2.1,MacIntel,60.0024001,,,,,,,,2.9508,,,,,,,,,,,,,,1,v,1.0492,0,1,4.4508,1.5,,,,,,21.2188881,0,2.067660742,,,,,,,,,,,,,0,25,25,107,1,0.50470775,1,,,,,,,,,,,,,,,,,,,,,,,,,,,,,,,,,,,,,,,,,,,,,,,,,,,,,,,,,,,,,,,,,,,,,,,,,,,,,,,,
,,60ff1675f00a765cb05017e8,2022-09-08_11h07.35.618,CGTgamblingSpanTasks,2022.2.1,MacIntel,60.0024001,,,,,,,,3.0396,,,,,,,,,,,,,,1,v,0.9604,0,1,4.0396,1,,,,,,17.23907308,0,2.055848574,,,,,,,,,,,,,0,26,26,66,1,0.450504458,1,,,,,,,,,,,,,,,,,,,,,,,,,,,,,,,,,,,,,,,,,,,,,,,,,,,,,,,,,,,,,,,,,,,,,,,,,,,,,,,,
,,60ff1675f00a765cb05017e8,2022-09-08_11h07.35.618,CGTgamblingSpanTasks,2022.2.1,MacIntel,60.0024001,,,,,,,,3.0682,,,,,,,,,,,,,,1,v,0.9318,0,1,4.5682,1.5,,,,,,21.39646914,0,0.072474078,,,,,,,,,,,,,0,27,27,3,1,0.902848133,0,,,,,,,,,,,,,,,,,,,,,,,,,,,,,,,,,,,,,,,,,,,,,,,,,,,,,,,,,,,,,,,,,,,,,,,,,,,,,,,,
,,60ff1675f00a765cb05017e8,2022-09-08_11h07.35.618,CGTgamblingSpanTasks,2022.2.1,MacIntel,60.0024001,,,,,,,,3.1067,,,,,,,,,,,,,,1,v,0.8933,0,1,4.1067,1,,,,,,27.57491653,0,2.99133314,,,,,,,,,,,,,0,28,28,10,1,0.47625893,1,,,,,,,,,,,,,,,,,,,,,,,,,,,,,,,,,,,,,,,,,,,,,,,,,,,,,,,,,,,,,,,,,,,,,,,,,,,,,,,,
,,60ff1675f00a765cb05017e8,2022-09-08_11h07.35.618,CGTgamblingSpanTasks,2022.2.1,MacIntel,60.0024001,,,,,,,,3.1443,,,,,,,,,,,,,,2,v,0.8557,11.35147481,0,4.1443,1,,,,,,17.67865084,0,11.35147481,,,,,,,,,,,,,0,29,29,91,1,0.067304606,0,,,,,,,,,,,,,,,,,,,,,,,,,,,,,,,,,,,,,,,,,,,,,,,,,,,,,,,,,,,,,,,,,,,,,,,,,,,,,,,,
,,60ff1675f00a765cb05017e8,2022-09-08_11h07.35.618,CGTgamblingSpanTasks,2022.2.1,MacIntel,60.0024001,,,,,,,,3.2099,,,,,,,,,,,,,,1,n,0.7901,6.091504705,0,4.7099,1.5,,,,,,6.662965216,0,6.091504705,,,,,,,,,,,,,0,30,30,102,1,0.035087099,0,,,,,,,,,,,,,,,,,,,,,,,,,,,,,,,,,,,,,,,,,,,,,,,,,,,,,,,,,,,,,,,,,,,,,,,,,,,,,,,,
,,60ff1675f00a765cb05017e8,2022-09-08_11h07.35.618,CGTgamblingSpanTasks,2022.2.1,MacIntel,60.0024001,,,,,,,,2.7986,,,,,,,,,,,,,,2,n,1.2014,0,1,3.7986,1,,,,,,24.35708027,0,2.738695417,,,,,,,,,,,,,0,31,31,114,1,0.466573634,1,,,,,,,,,,,,,,,,,,,,,,,,,,,,,,,,,,,,,,,,,,,,,,,,,,,,,,,,,,,,,,,,,,,,,,,,,,,,,,,,
,,60ff1675f00a765cb05017e8,2022-09-08_11h07.35.618,CGTgamblingSpanTasks,2022.2.1,MacIntel,60.0024001,,,,,,,,3.1551,,,,,,,,,,,,,,2,v,0.8449,1.870404296,0,4.1551,1,,,,,,20.31034258,0,1.870404296,,,,,,,,,,,,,0,32,32,85,1,0.519325853,1,,,,,,,,,,,,,,,,,,,,,,,,,,,,,,,,,,,,,,,,,,,,,,,,,,,,,,,,,,,,,,,,,,,,,,,,,,,,,,,,
,,60ff1675f00a765cb05017e8,2022-09-08_11h07.35.618,CGTgamblingSpanTasks,2022.2.1,MacIntel,60.0024001,,,,,,,,2.6253,,,,,,,,,,,,,,1,v,1.3747,0,1,3.6253,1,,,,,,27.88092897,0,2.771762788,,,,,,,,,,,,,0,33,33,117,1,0.499466648,1,,,,,,,,,,,,,,,,,,,,,,,,,,,,,,,,,,,,,,,,,,,,,,,,,,,,,,,,,,,,,,,,,,,,,,,,,,,,,,,,
,,60ff1675f00a765cb05017e8,2022-09-08_11h07.35.618,CGTgamblingSpanTasks,2022.2.1,MacIntel,60.0024001,,,,,,,,3.0046,,,,,,,,,,,,,,1,n,0.9954,10.68505773,0,4.5046,1.5,,,,,,17.64114152,0,10.68505773,,,,,,,,,,,,,0,34,34,98,1,0.074299362,0,,,,,,,,,,,,,,,,,,,,,,,,,,,,,,,,,,,,,,,,,,,,,,,,,,,,,,,,,,,,,,,,,,,,,,,,,,,,,,,,
,,60ff1675f00a765cb05017e8,2022-09-08_11h07.35.618,CGTgamblingSpanTasks,2022.2.1,MacIntel,60.0024001,,,,,,,,2.5901,,,,,,,,,,,,,,2,n,1.4099,0,1,4.0901,1.5,,,,,,17.5608285,0,1.825111303,,,,,,,,,,,,,0,35,35,104,1,0.487721116,1,,,,,,,,,,,,,,,,,,,,,,,,,,,,,,,,,,,,,,,,,,,,,,,,,,,,,,,,,,,,,,,,,,,,,,,,,,,,,,,,
,,60ff1675f00a765cb05017e8,2022-09-08_11h07.35.618,CGTgamblingSpanTasks,2022.2.1,MacIntel,60.0024001,,,,,,,,2.5995,,,,,,,,,,,,,,1,v,1.4005,21.17800335,1,4.0995,1.5,,,,,,21.17800335,0,0.059830985,,,,,,,,,,,,,0,36,36,67,1,0.908594974,0,,,,,,,,,,,,,,,,,,,,,,,,,,,,,,,,,,,,,,,,,,,,,,,,,,,,,,,,,,,,,,,,,,,,,,,,,,,,,,,,
,,60ff1675f00a765cb05017e8,2022-09-08_11h07.35.618,CGTgamblingSpanTasks,2022.2.1,MacIntel,60.0024001,,,,,,,,2.5392,,,,,,,,,,,,,,2,n,1.4608,0,1,4.0392,1.5,,,,,,27.2532142,0,0.08089327,,,,,,,,,,,,,0,37,37,119,1,0.907091845,0,,,,,,,,,,,,,,,,,,,,,,,,,,,,,,,,,,,,,,,,,,,,,,,,,,,,,,,,,,,,,,,,,,,,,,,,,,,,,,,,
,,60ff1675f00a765cb05017e8,2022-09-08_11h07.35.618,CGTgamblingSpanTasks,2022.2.1,MacIntel,60.0024001,,,,,,,,2.8875,,,,,,,,,,,,,,1,v,1.1125,7.534278541,1,3.8875,1,,,,,,7.534278541,0,0.747140182,,,,,,,,,,,,,0,38,38,37,1,0.50012466,1,,,,,,,,,,,,,,,,,,,,,,,,,,,,,,,,,,,,,,,,,,,,,,,,,,,,,,,,,,,,,,,,,,,,,,,,,,,,,,,,
,,60ff1675f00a765cb05017e8,2022-09-08_11h07.35.618,CGTgamblingSpanTasks,2022.2.1,MacIntel,60.0024001,,,,,,,,2.8081,,,,,,,,,,,,,,2,v,1.1919,1.540604093,0,4.3081,1.5,,,,,,18.16238569,0,1.540604093,,,,,,,,,,,,,0,39,39,34,1,0.540092491,1,,,,,,,,,,,,,,,,,,,,,,,,,,,,,,,,,,,,,,,,,,,,,,,,,,,,,,,,,,,,,,,,,,,,,,,,,,,,,,,,
,,60ff1675f00a765cb05017e8,2022-09-08_11h07.35.618,CGTgamblingSpanTasks,2022.2.1,MacIntel,60.0024001,,,,,,,,2.3334,,,,,,,,,,,,,,1,v,1.6666,0,1,3.8334,1.5,,,,,,27.77179191,0,0.074524436,,,,,,,,,,,,,0,40,40,99,1,0.910114387,0,,,,,,,,,,,,,,,,,,,,,,,,,,,,,,,,,,,,,,,,,,,,,,,,,,,,,,,,,,,,,,,,,,,,,,,,,,,,,,,,
,,60ff1675f00a765cb05017e8,2022-09-08_11h07.35.618,CGTgamblingSpanTasks,2022.2.1,MacIntel,60.0024001,,,,,,,,2.7417,,,,,,,,,,,,,,1,n,1.2583,11.19311486,0,4.2417,1.5,,,,,,8.17598802,0,11.19311486,,,,,,,,,,,,,0,41,41,110,1,0.021568003,0,,,,,,,,,,,,,,,,,,,,,,,,,,,,,,,,,,,,,,,,,,,,,,,,,,,,,,,,,,,,,,,,,,,,,,,,,,,,,,,,
,,60ff1675f00a765cb05017e8,2022-09-08_11h07.35.618,CGTgamblingSpanTasks,2022.2.1,MacIntel,60.0024001,,,,,,,,2.704,,,,,,,,,,,,,,2,n,1.296,0,1,4.204,1.5,,,,,,25.26994993,0,2.78925142,,,,,,,,,,,,,0,42,42,108,1,0.471582922,1,,,,,,,,,,,,,,,,,,,,,,,,,,,,,,,,,,,,,,,,,,,,,,,,,,,,,,,,,,,,,,,,,,,,,,,,,,,,,,,,
,,60ff1675f00a765cb05017e8,2022-09-08_11h07.35.618,CGTgamblingSpanTasks,2022.2.1,MacIntel,60.0024001,,,,,,,,2.9395,,,,,,,,,,,,,,1,v,1.0605,18.20422443,1,3.9395,1,,,,,,18.20422443,0,1.635040165,,,,,,,,,,,,,0,43,43,82,1,0.525708991,1,,,,,,,,,,,,,,,,,,,,,,,,,,,,,,,,,,,,,,,,,,,,,,,,,,,,,,,,,,,,,,,,,,,,,,,,,,,,,,,,
,,60ff1675f00a765cb05017e8,2022-09-08_11h07.35.618,CGTgamblingSpanTasks,2022.2.1,MacIntel,60.0024001,,,,,,,,2.8167,,,,,,,,,,,,,,2,v,1.1833,2.543951743,0,4.3167,1.5,,,,,,25.56803059,0,2.543951743,,,,,,,,,,,,,0,44,44,41,1,0.499247217,1,,,,,,,,,,,,,,,,,,,,,,,,,,,,,,,,,,,,,,,,,,,,,,,,,,,,,,,,,,,,,,,,,,,,,,,,,,,,,,,,
,,60ff1675f00a765cb05017e8,2022-09-08_11h07.35.618,CGTgamblingSpanTasks,2022.2.1,MacIntel,60.0024001,,,,,,,,3.0914,,,,,,,,,,,,,,1,n,0.9086,0.073558523,0,4.0914,1,,,,,,20.5726842,0,0.073558523,,,,,,,,,,,,,0,45,45,26,1,0.901008565,0,,,,,,,,,,,,,,,,,,,,,,,,,,,,,,,,,,,,,,,,,,,,,,,,,,,,,,,,,,,,,,,,,,,,,,,,,,,,,,,,
,,60ff1675f00a765cb05017e8,2022-09-08_11h07.35.618,CGTgamblingSpanTasks,2022.2.1,MacIntel,60.0024001,,,,,,,,2.9418,,,,,,,,,,,,,,1,n,1.0582,7.50753835,0,4.4418,1.5,,,,,,2.231316635,0,7.50753835,,,,,,,,,,,,,0,46,46,29,1,0.010273427,0,,,,,,,,,,,,,,,,,,,,,,,,,,,,,,,,,,,,,,,,,,,,,,,,,,,,,,,,,,,,,,,,,,,,,,,,,,,,,,,,
,,60ff1675f00a765cb05017e8,2022-09-08_11h07.35.618,CGTgamblingSpanTasks,2022.2.1,MacIntel,60.0024001,,,,,,,,2.6533,,,,,,,,,,,,,,2,n,1.3467,24.57684014,1,3.6533,1,,,,,,24.57684014,0,0.061756244,,,,,,,,,,,,,0,47,47,68,1,0.911988903,0,,,,,,,,,,,,,,,,,,,,,,,,,,,,,,,,,,,,,,,,,,,,,,,,,,,,,,,,,,,,,,,,,,,,,,,,,,,,,,,,
,,60ff1675f00a765cb05017e8,2022-09-08_11h07.35.618,CGTgamblingSpanTasks,2022.2.1,MacIntel,60.0024001,,,,,,,,3.1079,,,,,,,,,,,,,,1,v,0.8921,0,1,4.1079,1,,,,,,22.72923833,0,0.067170781,,,,,,,,,,,,,0,48,48,86,1,0.907226703,0,,,,,,,,,,,,,,,,,,,,,,,,,,,,,,,,,,,,,,,,,,,,,,,,,,,,,,,,,,,,,,,,,,,,,,,,,,,,,,,,
,,60ff1675f00a765cb05017e8,2022-09-08_11h07.35.618,CGTgamblingSpanTasks,2022.2.1,MacIntel,60.0024001,,,,,,,,2.6941,,,,,,,,,,,,,,1,v,1.3059,24.66627941,1,3.6941,1,,,,,,24.66627941,0,2.765426402,,,,,,,,,,,,,0,49,49,24,1,0.467360588,1,,,,,,,,,,,,,,,,,,,,,,,,,,,,,,,,,,,,,,,,,,,,,,,,,,,,,,,,,,,,,,,,,,,,,,,,,,,,,,,,
,,60ff1675f00a765cb05017e8,2022-09-08_11h07.35.618,CGTgamblingSpanTasks,2022.2.1,MacIntel,60.0024001,,,,,,,,2.3377,,,,,,,,,,,,,,2,v,1.6623,2.743407746,0,3.8377,1.5,,,,,,27.39221343,0,2.743407746,,,,,,,,,,,,,0,50,50,47,1,0.49752044,1,,,,,,,,,,,,,,,,,,,,,,,,,,,,,,,,,,,,,,,,,,,,,,,,,,,,,,,,,,,,,,,,,,,,,,,,,,,,,,,,
,,60ff1675f00a765cb05017e8,2022-09-08_11h07.35.618,CGTgamblingSpanTasks,2022.2.1,MacIntel,60.0024001,,,,,,,,2.4905,,,,,,,,,,,,,,2,n,1.5095,0,1,3.4905,1,,,,,,29.30724159,0,3.247012935,,,,,,,,,,,,,0,51,51,71,1,0.470571125,1,,,,,,,,,,,,,,,,,,,,,,,,,,,,,,,,,,,,,,,,,,,,,,,,,,,,,,,,,,,,,,,,,,,,,,,,,,,,,,,,
,,60ff1675f00a765cb05017e8,2022-09-08_11h07.35.618,CGTgamblingSpanTasks,2022.2.1,MacIntel,60.0024001,,,,,,,,2.813,,,,,,,,,,,,,,1,n,1.187,1.207538756,0,3.813,1,,,,,,11.08143071,0,1.207538756,,,,,,,,,,,,,0,52,52,84,1,0.475047453,1,,,,,,,,,,,,,,,,,,,,,,,,,,,,,,,,,,,,,,,,,,,,,,,,,,,,,,,,,,,,,,,,,,,,,,,,,,,,,,,,
,,60ff1675f00a765cb05017e8,2022-09-08_11h07.35.618,CGTgamblingSpanTasks,2022.2.1,MacIntel,60.0024001,,,,,,,,3.1785,,,,,,,,,,,,,,2,v,0.8215,2.768313633,0,4.1785,1,,,,,,28.33977875,0,2.768313633,,,,,,,,,,,,,0,53,53,116,1,0.50406901,1,,,,,,,,,,,,,,,,,,,,,,,,,,,,,,,,,,,,,,,,,,,,,,,,,,,,,,,,,,,,,,,,,,,,,,,,,,,,,,,,
,,60ff1675f00a765cb05017e8,2022-09-08_11h07.35.618,CGTgamblingSpanTasks,2022.2.1,MacIntel,60.0024001,,,,,,,,3.2642,,,,,,,,,,,,,,2,v,0.7358,2.502728921,0,4.2642,1,,,,,,21.7711579,0,2.502728921,,,,,,,,,,,,,0,54,54,101,1,0.460552621,1,,,,,,,,,,,,,,,,,,,,,,,,,,,,,,,,,,,,,,,,,,,,,,,,,,,,,,,,,,,,,,,,,,,,,,,,,,,,,,,,
,,60ff1675f00a765cb05017e8,2022-09-08_11h07.35.618,CGTgamblingSpanTasks,2022.2.1,MacIntel,60.0024001,,,,,,,,2.7754,,,,,,,,,,,,,,1,n,1.2246,1.716380842,0,4.2754,1.5,,,,,,17.30137174,0,1.716380842,,,,,,,,,,,,,0,55,55,20,1,0.500020285,1,,,,,,,,,,,,,,,,,,,,,,,,,,,,,,,,,,,,,,,,,,,,,,,,,,,,,,,,,,,,,,,,,,,,,,,,,,,,,,,,
,,60ff1675f00a765cb05017e8,2022-09-08_11h07.35.618,CGTgamblingSpanTasks,2022.2.1,MacIntel,60.0024001,,,,,,,,3.0255,,,,,,,,,,,,,,2,v,0.9745,1.025847652,0,4.0255,1,,,,,,8.670591867,0,1.025847652,,,,,,,,,,,,,0,56,56,18,1,0.452680459,1,,,,,,,,,,,,,,,,,,,,,,,,,,,,,,,,,,,,,,,,,,,,,,,,,,,,,,,,,,,,,,,,,,,,,,,,,,,,,,,,
,,60ff1675f00a765cb05017e8,2022-09-08_11h07.35.618,CGTgamblingSpanTasks,2022.2.1,MacIntel,60.0024001,,,,,,,,2.8401,,,,,,,,,,,,,,2,n,1.1599,0,1,4.3401,1.5,,,,,,11.16819157,0,0.941456753,,,,,,,,,,,,,0,57,57,45,1,0.54163803,1,,,,,,,,,,,,,,,,,,,,,,,,,,,,,,,,,,,,,,,,,,,,,,,,,,,,,,,,,,,,,,,,,,,,,,,,,,,,,,,,
,,60ff1675f00a765cb05017e8,2022-09-08_11h07.35.618,CGTgamblingSpanTasks,2022.2.1,MacIntel,60.0024001,,,,,,,,2.9394,,,,,,,,,,,,,,1,n,1.0606,11.39288827,0,3.9394,1,,,,,,20.97851654,0,11.39288827,,,,,,,,,,,,,0,58,58,2,1,0.088791079,0,,,,,,,,,,,,,,,,,,,,,,,,,,,,,,,,,,,,,,,,,,,,,,,,,,,,,,,,,,,,,,,,,,,,,,,,,,,,,,,,
,,60ff1675f00a765cb05017e8,2022-09-08_11h07.35.618,CGTgamblingSpanTasks,2022.2.1,MacIntel,60.0024001,,,,,,,,2.9834,,,,,,,,,,,,,,1,n,1.0166,8.653432553,0,3.9834,1,,,,,,15.13999312,0,8.653432553,,,,,,,,,,,,,0,59,59,54,1,0.081767484,0,,,,,,,,,,,,,,,,,,,,,,,,,,,,,,,,,,,,,,,,,,,,,,,,,,,,,,,,,,,,,,,,,,,,,,,,,,,,,,,,
,,60ff1675f00a765cb05017e8,2022-09-08_11h07.35.618,CGTgamblingSpanTasks,2022.2.1,MacIntel,60.0024001,,,,,,,,3.0909,,,,,,,,,,,,,,1,n,0.9091,0.065383587,0,4.5909,1.5,,,,,,22.25959835,0,0.065383587,,,,,,,,,,,,,0,60,60,97,1,0.907413875,0,,,,,,,,,,,,,,,,,,,,,,,,,,,,,,,,,,,,,,,,,,,,,,,,,,,,,,,,,,,,,,,,,,,,,,,,,,,,,,,,
,,60ff1675f00a765cb05017e8,2022-09-08_11h07.35.618,CGTgamblingSpanTasks,2022.2.1,MacIntel,60.0024001,,,,,,,,3.0744,,,,,,,,,,,,,,2,v,0.9256,1.002188111,0,4.0744,1,,,,,,9.012590634,0,1.002188111,,,,,,,,,,,,,0,61,61,12,1,0.46958041,1,,,,,,,,,,,,,,,,,,,,,,,,,,,,,,,,,,,,,,,,,,,,,,,,,,,,,,,,,,,,,,,,,,,,,,,,,,,,,,,,
,,60ff1675f00a765cb05017e8,2022-09-08_11h07.35.618,CGTgamblingSpanTasks,2022.2.1,MacIntel,60.0024001,,,,,,,,2.9363,,,,,,,,,,,,,,1,n,1.0637,1.396635362,0,4.4363,1.5,,,,,,14.3363647,0,1.396635362,,,,,,,,,,,,,0,62,62,78,1,0.504775474,1,,,,,,,,,,,,,,,,,,,,,,,,,,,,,,,,,,,,,,,,,,,,,,,,,,,,,,,,,,,,,,,,,,,,,,,,,,,,,,,,
,,60ff1675f00a765cb05017e8,2022-09-08_11h07.35.618,CGTgamblingSpanTasks,2022.2.1,MacIntel,60.0024001,,,,,,,,2.6848,,,,,,,,,,,,,,2,n,1.3152,19.68065872,1,3.6848,1,,,,,,19.68065872,0,1.843597162,,,,,,,,,,,,,0,63,63,80,1,0.514941058,1,,,,,,,,,,,,,,,,,,,,,,,,,,,,,,,,,,,,,,,,,,,,,,,,,,,,,,,,,,,,,,,,,,,,,,,,,,,,,,,,
,,60ff1675f00a765cb05017e8,2022-09-08_11h07.35.618,CGTgamblingSpanTasks,2022.2.1,MacIntel,60.0024001,,,,,,,,2.8409,,,,,,,,,,,,,,1,v,1.1591,27.38828234,1,3.8409,1,,,,,,27.38828234,0,0.0639233,,,,,,,,,,,,,0,64,64,43,1,0.914010176,0,,,,,,,,,,,,,,,,,,,,,,,,,,,,,,,,,,,,,,,,,,,,,,,,,,,,,,,,,,,,,,,,,,,,,,,,,,,,,,,,
,,60ff1675f00a765cb05017e8,2022-09-08_11h07.35.618,CGTgamblingSpanTasks,2022.2.1,MacIntel,60.0024001,,,,,,,,2.8599,,,,,,,,,,,,,,2,n,1.1401,22.86604061,1,4.3599,1.5,,,,,,22.86604061,0,2.293289792,,,,,,,,,,,,,0,65,65,51,1,0.49715382,1,,,,,,,,,,,,,,,,,,,,,,,,,,,,,,,,,,,,,,,,,,,,,,,,,,,,,,,,,,,,,,,,,,,,,,,,,,,,,,,,
,,60ff1675f00a765cb05017e8,2022-09-08_11h07.35.618,CGTgamblingSpanTasks,2022.2.1,MacIntel,60.0024001,,,,,,,,2.6342,,,,,,,,,,,,,,2,v,1.3658,2.663622024,0,3.6342,1,,,,,,28.9381277,0,2.663622024,,,,,,,,,,,,,0,66,66,103,1,0.519453367,1,,,,,,,,,,,,,,,,,,,,,,,,,,,,,,,,,,,,,,,,,,,,,,,,,,,,,,,,,,,,,,,,,,,,,,,,,,,,,,,,
,,60ff1675f00a765cb05017e8,2022-09-08_11h07.35.618,CGTgamblingSpanTasks,2022.2.1,MacIntel,60.0024001,,,,,,,,2.9625,,,,,,,,,,,,,,2,v,1.0375,8.579385201,0,4.4625,1.5,,,,,,14.11762686,0,8.579385201,,,,,,,,,,,,,0,67,67,60,1,0.073886959,0,,,,,,,,,,,,,,,,,,,,,,,,,,,,,,,,,,,,,,,,,,,,,,,,,,,,,,,,,,,,,,,,,,,,,,,,,,,,,,,,
,,60ff1675f00a765cb05017e8,2022-09-08_11h07.35.618,CGTgamblingSpanTasks,2022.2.1,MacIntel,60.0024001,,,,,,,,3.0426,,,,,,,,,,,,,,2,v,0.9574,3.117906378,0,4.5426,1.5,,,,,,28.14876717,0,3.117906378,,,,,,,,,,,,,0,68,68,76,1,0.470636736,1,,,,,,,,,,,,,,,,,,,,,,,,,,,,,,,,,,,,,,,,,,,,,,,,,,,,,,,,,,,,,,,,,,,,,,,,,,,,,,,,
,,60ff1675f00a765cb05017e8,2022-09-08_11h07.35.618,CGTgamblingSpanTasks,2022.2.1,MacIntel,60.0024001,,,,,,,,3.2909,,,,,,,,,,,,,,2,v,0.7091,6.833409611,0,4.2909,1,,,,,,6.325091157,0,6.833409611,,,,,,,,,,,,,0,69,69,58,1,0.027113638,0,,,,,,,,,,,,,,,,,,,,,,,,,,,,,,,,,,,,,,,,,,,,,,,,,,,,,,,,,,,,,,,,,,,,,,,,,,,,,,,,
,,60ff1675f00a765cb05017e8,2022-09-08_11h07.35.618,CGTgamblingSpanTasks,2022.2.1,MacIntel,60.0024001,,,,,,,,3.1423,,,,,,,,,,,,,,1,n,0.8577,2.810531415,0,4.1423,1,,,,,,29.75778644,0,2.810531415,,,,,,,,,,,,,0,70,70,113,1,0.512824233,1,,,,,,,,,,,,,,,,,,,,,,,,,,,,,,,,,,,,,,,,,,,,,,,,,,,,,,,,,,,,,,,,,,,,,,,,,,,,,,,,
,,60ff1675f00a765cb05017e8,2022-09-08_11h07.35.618,CGTgamblingSpanTasks,2022.2.1,MacIntel,60.0024001,,,,,,,,3.1893,,,,,,,,,,,,,,2,v,0.8107,2.123581464,0,4.6893,1.5,,,,,,19.5450126,0,2.123581464,,,,,,,,,,,,,0,71,71,65,1,0.475836144,1,,,,,,,,,,,,,,,,,,,,,,,,,,,,,,,,,,,,,,,,,,,,,,,,,,,,,,,,,,,,,,,,,,,,,,,,,,,,,,,,
,,60ff1675f00a765cb05017e8,2022-09-08_11h07.35.618,CGTgamblingSpanTasks,2022.2.1,MacIntel,60.0024001,,,,,,,,3.3047,,,,,,,,,,,,,,1,n,0.6953,7.646213173,0,4.3047,1,,,,,,2.042350179,0,7.646213173,,,,,,,,,,,,,0,72,72,53,1,0.009522273,0,,,,,,,,,,,,,,,,,,,,,,,,,,,,,,,,,,,,,,,,,,,,,,,,,,,,,,,,,,,,,,,,,,,,,,,,,,,,,,,,
,,60ff1675f00a765cb05017e8,2022-09-08_11h07.35.618,CGTgamblingSpanTasks,2022.2.1,MacIntel,60.0024001,,,,,,,,2.9767,,,,,,,,,,,,,,1,v,1.0233,28.68598705,1,4.4767,1.5,,,,,,28.68598705,0,0.050674956,,,,,,,,,,,,,0,73,73,62,1,0.920905497,0,,,,,,,,,,,,,,,,,,,,,,,,,,,,,,,,,,,,,,,,,,,,,,,,,,,,,,,,,,,,,,,,,,,,,,,,,,,,,,,,
,,60ff1675f00a765cb05017e8,2022-09-08_11h07.35.618,CGTgamblingSpanTasks,2022.2.1,MacIntel,60.0024001,,,,,,,,2.7342,,,,,,,,,,,,,,2,v,1.2658,2.387726776,0,3.7342,1,,,,,,23.0613391,0,2.387726776,,,,,,,,,,,,,0,74,74,69,1,0.488727763,1,,,,,,,,,,,,,,,,,,,,,,,,,,,,,,,,,,,,,,,,,,,,,,,,,,,,,,,,,,,,,,,,,,,,,,,,,,,,,,,,
,,60ff1675f00a765cb05017e8,2022-09-08_11h07.35.618,CGTgamblingSpanTasks,2022.2.1,MacIntel,60.0024001,,,,,,,,2.984,,,,,,,,,,,,,,2,n,1.016,0,1,4.484,1.5,,,,,,27.76752685,0,0.083968035,,,,,,,,,,,,,0,75,75,13,1,0.906513967,0,,,,,,,,,,,,,,,,,,,,,,,,,,,,,,,,,,,,,,,,,,,,,,,,,,,,,,,,,,,,,,,,,,,,,,,,,,,,,,,,
,,60ff1675f00a765cb05017e8,2022-09-08_11h07.35.618,CGTgamblingSpanTasks,2022.2.1,MacIntel,60.0024001,,,,,,,,3.183,,,,,,,,,,,,,,1,v,0.817,0,1,4.183,1,,,,,,7.066129113,0,0.585581699,,,,,,,,,,,,,0,76,76,19,1,0.545860632,1,,,,,,,,,,,,,,,,,,,,,,,,,,,,,,,,,,,,,,,,,,,,,,,,,,,,,,,,,,,,,,,,,,,,,,,,,,,,,,,,
,,60ff1675f00a765cb05017e8,2022-09-08_11h07.35.618,CGTgamblingSpanTasks,2022.2.1,MacIntel,60.0024001,,,,,,,,2.9742,,,,,,,,,,,,,,2,v,1.0258,2.701896413,0,3.9742,1,,,,,,28.94627214,0,2.701896413,,,,,,,,,,,,,0,77,77,111,1,0.515860759,1,,,,,,,,,,,,,,,,,,,,,,,,,,,,,,,,,,,,,,,,,,,,,,,,,,,,,,,,,,,,,,,,,,,,,,,,,,,,,,,,
,,60ff1675f00a765cb05017e8,2022-09-08_11h07.35.618,CGTgamblingSpanTasks,2022.2.1,MacIntel,60.0024001,,,,,,,,3.2419,,,,,,,,,,,,,,1,n,0.7581,10.3417501,0,4.2419,1,,,,,,15.21435748,0,10.3417501,,,,,,,,,,,,,0,78,78,72,1,0.060969226,0,,,,,,,,,,,,,,,,,,,,,,,,,,,,,,,,,,,,,,,,,,,,,,,,,,,,,,,,,,,,,,,,,,,,,,,,,,,,,,,,
,,60ff1675f00a765cb05017e8,2022-09-08_11h07.35.618,CGTgamblingSpanTasks,2022.2.1,MacIntel,60.0024001,,,,,,,,2.9177,,,,,,,,,,,,,,2,v,1.0823,4.251676631,0,4.4177,1.5,,,,,,3.395192929,0,4.251676631,,,,,,,,,,,,,0,79,79,7,1,0.023467153,0,,,,,,,,,,,,,,,,,,,,,,,,,,,,,,,,,,,,,,,,,,,,,,,,,,,,,,,,,,,,,,,,,,,,,,,,,,,,,,,,
,,60ff1675f00a765cb05017e8,2022-09-08_11h07.35.618,CGTgamblingSpanTasks,2022.2.1,MacIntel,60.0024001,,,,,,,,3.1248,,,,,,,,,,,,,,1,n,0.8752,6.781500919,0,4.6248,1.5,,,,,,8.363821911,0,6.781500919,,,,,,,,,,,,,0,80,80,61,1,0.044227959,0,,,,,,,,,,,,,,,,,,,,,,,,,,,,,,,,,,,,,,,,,,,,,,,,,,,,,,,,,,,,,,,,,,,,,,,,,,,,,,,,
,,60ff1675f00a765cb05017e8,2022-09-08_11h07.35.618,CGTgamblingSpanTasks,2022.2.1,MacIntel,60.0024001,,,,,,,,3.2441,,,,,,,,,,,,,,2,v,0.7559,2.208275162,0,4.7441,1.5,,,,,,21.03408097,0,2.208275162,,,,,,,,,,,,,0,81,81,0,1,0.485031246,1,,,,,,,,,,,,,,,,,,,,,,,,,,,,,,,,,,,,,,,,,,,,,,,,,,,,,,,,,,,,,,,,,,,,,,,,,,,,,,,,
,,60ff1675f00a765cb05017e8,2022-09-08_11h07.35.618,CGTgamblingSpanTasks,2022.2.1,MacIntel,60.0024001,,,,,,,,3.0403,,,,,,,,,,,,,,2,v,0.9597,2.201057101,0,4.5403,1.5,,,,,,26.36733703,0,2.201057101,,,,,,,,,,,,,0,82,82,90,1,0.544064207,1,,,,,,,,,,,,,,,,,,,,,,,,,,,,,,,,,,,,,,,,,,,,,,,,,,,,,,,,,,,,,,,,,,,,,,,,,,,,,,,,
,,60ff1675f00a765cb05017e8,2022-09-08_11h07.35.618,CGTgamblingSpanTasks,2022.2.1,MacIntel,60.0024001,,,,,,,,3.1265,,,,,,,,,,,,,,1,n,0.8735,11.6744431,0,4.6265,1.5,,,,,,10.43004651,0,11.6744431,,,,,,,,,,,,,0,83,83,15,1,0.026176489,0,,,,,,,,,,,,,,,,,,,,,,,,,,,,,,,,,,,,,,,,,,,,,,,,,,,,,,,,,,,,,,,,,,,,,,,,,,,,,,,,
,,60ff1675f00a765cb05017e8,2022-09-08_11h07.35.618,CGTgamblingSpanTasks,2022.2.1,MacIntel,60.0024001,,,,,,,,3.0029,,,,,,,,,,,,,,2,n,0.9971,27.93093084,1,4.5029,1.5,,,,,,27.93093084,0,0.050207531,,,,,,,,,,,,,0,84,84,83,1,0.920505936,0,,,,,,,,,,,,,,,,,,,,,,,,,,,,,,,,,,,,,,,,,,,,,,,,,,,,,,,,,,,,,,,,,,,,,,,,,,,,,,,,
,,60ff1675f00a765cb05017e8,2022-09-08_11h07.35.618,CGTgamblingSpanTasks,2022.2.1,MacIntel,60.0024001,,,,,,,,2.5814,,,,,,,,,,,,,,1,v,1.4186,18.50662664,1,3.5814,1,,,,,,18.50662664,0,0.052546026,,,,,,,,,,,,,0,85,85,112,1,0.908444837,0,,,,,,,,,,,,,,,,,,,,,,,,,,,,,,,,,,,,,,,,,,,,,,,,,,,,,,,,,,,,,,,,,,,,,,,,,,,,,,,,
,,60ff1675f00a765cb05017e8,2022-09-08_11h07.35.618,CGTgamblingSpanTasks,2022.2.1,MacIntel,60.0024001,,,,,,,,2.9024,,,,,,,,,,,,,,2,n,1.0976,0,1,3.9024,1,,,,,,28.18900855,0,0.05384276,,,,,,,,,,,,,0,86,86,55,1,0.919081308,0,,,,,,,,,,,,,,,,,,,,,,,,,,,,,,,,,,,,,,,,,,,,,,,,,,,,,,,,,,,,,,,,,,,,,,,,,,,,,,,,
,,60ff1675f00a765cb05017e8,2022-09-08_11h07.35.618,CGTgamblingSpanTasks,2022.2.1,MacIntel,60.0024001,,,,,,,,2.4731,,,,,,,,,,,,,,2,v,1.5269,11.93550497,0,3.4731,1,,,,,,14.20587264,0,11.93550497,,,,,,,,,,,,,0,87,87,21,1,0.041340301,0,,,,,,,,,,,,,,,,,,,,,,,,,,,,,,,,,,,,,,,,,,,,,,,,,,,,,,,,,,,,,,,,,,,,,,,,,,,,,,,,
,,60ff1675f00a765cb05017e8,2022-09-08_11h07.35.618,CGTgamblingSpanTasks,2022.2.1,MacIntel,60.0024001,,,,,,,,3.0844,,,,,,,,,,,,,,1,v,0.9156,0,1,4.0844,1,,,,,,26.4985979,0,0.051324376,,,,,,,,,,,,,0,88,88,106,1,0.918747215,0,,,,,,,,,,,,,,,,,,,,,,,,,,,,,,,,,,,,,,,,,,,,,,,,,,,,,,,,,,,,,,,,,,,,,,,,,,,,,,,,
,,60ff1675f00a765cb05017e8,2022-09-08_11h07.35.618,CGTgamblingSpanTasks,2022.2.1,MacIntel,60.0024001,,,,,,,,2.8568,,,,,,,,,,,,,,2,v,1.1432,2.461467004,0,3.8568,1,,,,,,27.4965044,0,2.461467004,,,,,,,,,,,,,0,89,89,36,1,0.526550878,1,,,,,,,,,,,,,,,,,,,,,,,,,,,,,,,,,,,,,,,,,,,,,,,,,,,,,,,,,,,,,,,,,,,,,,,,,,,,,,,,
,,60ff1675f00a765cb05017e8,2022-09-08_11h07.35.618,CGTgamblingSpanTasks,2022.2.1,MacIntel,60.0024001,,,,,,,,2.9311,,,,,,,,,,,,,,2,n,1.0689,0,1,4.4311,1.5,,,,,,13.84410806,0,1.535873964,,,,,,,,,,,,,0,90,90,88,1,0.470209002,1,,,,,,,,,,,,,,,,,,,,,,,,,,,,,,,,,,,,,,,,,,,,,,,,,,,,,,,,,,,,,,,,,,,,,,,,,,,,,,,,
,,60ff1675f00a765cb05017e8,2022-09-08_11h07.35.618,CGTgamblingSpanTasks,2022.2.1,MacIntel,60.0024001,,,,,,,,3.3093,,,,,,,,,,,,,,2,v,0.6907,11.42134125,0,4.8093,1.5,,,,,,12.9904115,0,11.42134125,,,,,,,,,,,,,0,91,91,118,1,0.037876033,0,,,,,,,,,,,,,,,,,,,,,,,,,,,,,,,,,,,,,,,,,,,,,,,,,,,,,,,,,,,,,,,,,,,,,,,,,,,,,,,,
,,60ff1675f00a765cb05017e8,2022-09-08_11h07.35.618,CGTgamblingSpanTasks,2022.2.1,MacIntel,60.0024001,,,,,,,,3.0983,,,,,,,,,,,,,,1,v,0.9017,17.85020524,1,4.5983,1.5,,,,,,17.85020524,0,2.058701084,,,,,,,,,,,,,0,92,92,25,1,0.459662216,1,,,,,,,,,,,,,,,,,,,,,,,,,,,,,,,,,,,,,,,,,,,,,,,,,,,,,,,,,,,,,,,,,,,,,,,,,,,,,,,,
,,60ff1675f00a765cb05017e8,2022-09-08_11h07.35.618,CGTgamblingSpanTasks,2022.2.1,MacIntel,60.0024001,,,,,,,,3.0404,,,,,,,,,,,,,,1,v,0.9596,22.87092517,1,4.5404,1.5,,,,,,22.87092517,0,0.059276504,,,,,,,,,,,,,0,93,93,27,1,0.911114935,0,,,,,,,,,,,,,,,,,,,,,,,,,,,,,,,,,,,,,,,,,,,,,,,,,,,,,,,,,,,,,,,,,,,,,,,,,,,,,,,,
,,60ff1675f00a765cb05017e8,2022-09-08_11h07.35.618,CGTgamblingSpanTasks,2022.2.1,MacIntel,60.0024001,,,,,,,,2.7361,,,,,,,,,,,,,,2,n,1.2639,0,1,3.7361,1,,,,,,4.698775357,0,4.904872644,,,,,,,,,,,,,0,94,94,75,1,0.028064484,0,,,,,,,,,,,,,,,,,,,,,,,,,,,,,,,,,,,,,,,,,,,,,,,,,,,,,,,,,,,,,,,,,,,,,,,,,,,,,,,,
,,60ff1675f00a765cb05017e8,2022-09-08_11h07.35.618,CGTgamblingSpanTasks,2022.2.1,MacIntel,60.0024001,,,,,,,,3.2411,,,,,,,,,,,,,,2,v,0.7589,2.532806323,0,4.7411,1.5,,,,,,28.13634754,0,2.532806323,,,,,,,,,,,,,0,95,95,28,1,0.525136524,1,,,,,,,,,,,,,,,,,,,,,,,,,,,,,,,,,,,,,,,,,,,,,,,,,,,,,,,,,,,,,,,,,,,,,,,,,,,,,,,,
,,60ff1675f00a765cb05017e8,2022-09-08_11h07.35.618,CGTgamblingSpanTasks,2022.2.1,MacIntel,60.0024001,,,,,,,,3.0716,,,,,,,,,,,,,,1,n,0.9284,2.003482335,0,4.5716,1.5,,,,,,23.24777057,0,2.003482335,,,,,,,,,,,,,0,96,96,59,1,0.536135174,1,,,,,,,,,,,,,,,,,,,,,,,,,,,,,,,,,,,,,,,,,,,,,,,,,,,,,,,,,,,,,,,,,,,,,,,,,,,,,,,,
,,60ff1675f00a765cb05017e8,2022-09-08_11h07.35.618,CGTgamblingSpanTasks,2022.2.1,MacIntel,60.0024001,,,,,,,,2.4526,,,,,,,,,,,,,,1,n,1.5474,11.41737518,0,3.4526,1,,,,,,18.11029021,0,11.41737518,,,,,,,,,,,,,0,97,97,48,1,0.069445859,0,,,,,,,,,,,,,,,,,,,,,,,,,,,,,,,,,,,,,,,,,,,,,,,,,,,,,,,,,,,,,,,,,,,,,,,,,,,,,,,,
,,60ff1675f00a765cb05017e8,2022-09-08_11h07.35.618,CGTgamblingSpanTasks,2022.2.1,MacIntel,60.0024001,,,,,,,,3.0259,,,,,,,,,,,,,,1,v,0.9741,25.21882231,1,4.0259,1,,,,,,25.21882231,0,0.085746782,,,,,,,,,,,,,0,98,98,64,1,0.90272076,0,,,,,,,,,,,,,,,,,,,,,,,,,,,,,,,,,,,,,,,,,,,,,,,,,,,,,,,,,,,,,,,,,,,,,,,,,,,,,,,,
,,60ff1675f00a765cb05017e8,2022-09-08_11h07.35.618,CGTgamblingSpanTasks,2022.2.1,MacIntel,60.0024001,,,,,,,,3.0231,,,,,,,,,,,,,,2,v,0.9769,10.41201161,0,4.0231,1,,,,,,6.307062696,0,10.41201161,,,,,,,,,,,,,0,99,99,23,1,0.018187109,0,,,,,,,,,,,,,,,,,,,,,,,,,,,,,,,,,,,,,,,,,,,,,,,,,,,,,,,,,,,,,,,,,,,,,,,,,,,,,,,,
,,60ff1675f00a765cb05017e8,2022-09-08_11h07.35.618,CGTgamblingSpanTasks,2022.2.1,MacIntel,60.0024001,,,,,,,,3.0596,,,,,,,,,,,,,,2,v,0.9404,2.32030209,0,4.0596,1,,,,,,27.94544945,0,2.32030209,,,,,,,,,,,,,0,100,100,115,1,0.545390564,1,,,,,,,,,,,,,,,,,,,,,,,,,,,,,,,,,,,,,,,,,,,,,,,,,,,,,,,,,,,,,,,,,,,,,,,,,,,,,,,,
,,60ff1675f00a765cb05017e8,2022-09-08_11h07.35.618,CGTgamblingSpanTasks,2022.2.1,MacIntel,60.0024001,,,,,,,,3.2551,,,,,,,,,,,,,,2,v,0.7449,5.526483034,0,4.2551,1,,,,,,9.725876653,0,5.526483034,,,,,,,,,,,,,0,101,101,44,1,0.082550696,0,,,,,,,,,,,,,,,,,,,,,,,,,,,,,,,,,,,,,,,,,,,,,,,,,,,,,,,,,,,,,,,,,,,,,,,,,,,,,,,,
,,60ff1675f00a765cb05017e8,2022-09-08_11h07.35.618,CGTgamblingSpanTasks,2022.2.1,MacIntel,60.0024001,,,,,,,,3.1056,,,,,,,,,,,,,,1,n,0.8944,1.448620949,0,4.1056,1,,,,,,17.4320197,0,1.448620949,,,,,,,,,,,,,0,102,102,30,1,0.545178213,1,,,,,,,,,,,,,,,,,,,,,,,,,,,,,,,,,,,,,,,,,,,,,,,,,,,,,,,,,,,,,,,,,,,,,,,,,,,,,,,,
,,60ff1675f00a765cb05017e8,2022-09-08_11h07.35.618,CGTgamblingSpanTasks,2022.2.1,MacIntel,60.0024001,,,,,,,,3.2416,,,,,,,,,,,,,,2,v,0.7584,1.65459324,0,4.7416,1.5,,,,,,15.43649625,0,1.65459324,,,,,,,,,,,,,0,103,103,33,1,0.479480163,1,,,,,,,,,,,,,,,,,,,,,,,,,,,,,,,,,,,,,,,,,,,,,,,,,,,,,,,,,,,,,,,,,,,,,,,,,,,,,,,,
,,60ff1675f00a765cb05017e8,2022-09-08_11h07.35.618,CGTgamblingSpanTasks,2022.2.1,MacIntel,60.0024001,,,,,,,,3.0382,,,,,,,,,,,,,,1,n,0.9618,1.878232496,0,4.0382,1,,,,,,17.92584289,0,1.878232496,,,,,,,,,,,,,0,104,104,5,1,0.485559263,1,,,,,,,,,,,,,,,,,,,,,,,,,,,,,,,,,,,,,,,,,,,,,,,,,,,,,,,,,,,,,,,,,,,,,,,,,,,,,,,,
,,60ff1675f00a765cb05017e8,2022-09-08_11h07.35.618,CGTgamblingSpanTasks,2022.2.1,MacIntel,60.0024001,,,,,,,,3.1412,,,,,,,,,,,,,,2,v,0.8588,2.393193076,0,4.1412,1,,,,,,25.76582409,0,2.393193076,,,,,,,,,,,,,0,105,105,46,1,0.517129855,1,,,,,,,,,,,,,,,,,,,,,,,,,,,,,,,,,,,,,,,,,,,,,,,,,,,,,,,,,,,,,,,,,,,,,,,,,,,,,,,,
,,60ff1675f00a765cb05017e8,2022-09-08_11h07.35.618,CGTgamblingSpanTasks,2022.2.1,MacIntel,60.0024001,,,,,,,,3.1653,,,,,,,,,,,,,,2,v,0.8347,2.860319095,0,4.1653,1,,,,,,27.37527992,0,2.860319095,,,,,,,,,,,,,0,106,106,39,1,0.486304156,1,,,,,,,,,,,,,,,,,,,,,,,,,,,,,,,,,,,,,,,,,,,,,,,,,,,,,,,,,,,,,,,,,,,,,,,,,,,,,,,,
,,60ff1675f00a765cb05017e8,2022-09-08_11h07.35.618,CGTgamblingSpanTasks,2022.2.1,MacIntel,60.0024001,,,,,,,,3.0434,,,,,,,,,,,,,,2,n,0.9566,26.11188619,1,4.5434,1.5,,,,,,26.11188619,0,0.081942421,,,,,,,,,,,,,0,107,107,105,1,0.905343856,0,,,,,,,,,,,,,,,,,,,,,,,,,,,,,,,,,,,,,,,,,,,,,,,,,,,,,,,,,,,,,,,,,,,,,,,,,,,,,,,,
,,60ff1675f00a765cb05017e8,2022-09-08_11h07.35.618,CGTgamblingSpanTasks,2022.2.1,MacIntel,60.0024001,,,,,,,,2.5844,,,,,,,,,,,,,,1,v,1.4156,0,1,3.5844,1,,,,,,8.217594828,0,0.951019374,,,,,,,,,,,,,0,108,108,87,1,0.458722936,1,,,,,,,,,,,,,,,,,,,,,,,,,,,,,,,,,,,,,,,,,,,,,,,,,,,,,,,,,,,,,,,,,,,,,,,,,,,,,,,,
,,60ff1675f00a765cb05017e8,2022-09-08_11h07.35.618,CGTgamblingSpanTasks,2022.2.1,MacIntel,60.0024001,,,,,,,,3.0048,,,,,,,,,,,,,,1,v,0.9952,25.0707644,1,4.5048,1.5,,,,,,25.0707644,0,0.067651625,,,,,,,,,,,,,0,109,109,70,1,0.909952349,0,,,,,,,,,,,,,,,,,,,,,,,,,,,,,,,,,,,,,,,,,,,,,,,,,,,,,,,,,,,,,,,,,,,,,,,,,,,,,,,,
,,60ff1675f00a765cb05017e8,2022-09-08_11h07.35.618,CGTgamblingSpanTasks,2022.2.1,MacIntel,60.0024001,,,,,,,,2.8696,,,,,,,,,,,,,,1,v,1.1304,0,1,3.8696,1,,,,,,26.16821818,0,0.093528069,,,,,,,,,,,,,0,110,110,42,1,0.901022427,0,,,,,,,,,,,,,,,,,,,,,,,,,,,,,,,,,,,,,,,,,,,,,,,,,,,,,,,,,,,,,,,,,,,,,,,,,,,,,,,,
,,60ff1675f00a765cb05017e8,2022-09-08_11h07.35.618,CGTgamblingSpanTasks,2022.2.1,MacIntel,60.0024001,,,,,,,,2.1655,,,,,,,,,,,,,,1,v,1.8345,25.54604005,1,3.1655,1,,,,,,25.54604005,0,0.088845411,,,,,,,,,,,,,0,111,111,79,1,0.901957831,0,,,,,,,,,,,,,,,,,,,,,,,,,,,,,,,,,,,,,,,,,,,,,,,,,,,,,,,,,,,,,,,,,,,,,,,,,,,,,,,,
,,60ff1675f00a765cb05017e8,2022-09-08_11h07.35.618,CGTgamblingSpanTasks,2022.2.1,MacIntel,60.0024001,,,,,,,,2.0896,,,,,,,,,,,,,,1,v,1.9104,28.9323758,1,3.0896,1,,,,,,28.9323758,0,2.893007023,,,,,,,,,,,,,0,112,112,11,1,0.497943321,1,,,,,,,,,,,,,,,,,,,,,,,,,,,,,,,,,,,,,,,,,,,,,,,,,,,,,,,,,,,,,,,,,,,,,,,,,,,,,,,,
,,60ff1675f00a765cb05017e8,2022-09-08_11h07.35.618,CGTgamblingSpanTasks,2022.2.1,MacIntel,60.0024001,,,,,,,,3.157,,,,,,,,,,,,,,1,v,0.843,27.53810185,1,4.657,1.5,,,,,,27.53810185,0,0.097022401,,,,,,,,,,,,,0,113,113,50,1,0.901515865,0,,,,,,,,,,,,,,,,,,,,,,,,,,,,,,,,,,,,,,,,,,,,,,,,,,,,,,,,,,,,,,,,,,,,,,,,,,,,,,,,
,,60ff1675f00a765cb05017e8,2022-09-08_11h07.35.618,CGTgamblingSpanTasks,2022.2.1,MacIntel,60.0024001,,,,,,,,2.2752,,,,,,,,,,,,,,1,n,1.7248,8.512335864,0,3.7752,1.5,,,,,,10.05300841,0,8.512335864,,,,,,,,,,,,,0,114,114,74,1,0.040729225,0,,,,,,,,,,,,,,,,,,,,,,,,,,,,,,,,,,,,,,,,,,,,,,,,,,,,,,,,,,,,,,,,,,,,,,,,,,,,,,,,
,,60ff1675f00a765cb05017e8,2022-09-08_11h07.35.618,CGTgamblingSpanTasks,2022.2.1,MacIntel,60.0024001,,,,,,,,2.8825,,,,,,,,,,,,,,1,v,1.1175,0,1,3.8825,1,,,,,,29.76099779,0,0.095763086,,,,,,,,,,,,,0,115,115,35,1,0.904537896,0,,,,,,,,,,,,,,,,,,,,,,,,,,,,,,,,,,,,,,,,,,,,,,,,,,,,,,,,,,,,,,,,,,,,,,,,,,,,,,,,
,,60ff1675f00a765cb05017e8,2022-09-08_11h07.35.618,CGTgamblingSpanTasks,2022.2.1,MacIntel,60.0024001,,,,,,,,3.1733,,,,,,,,,,,,,,2,v,0.8267,8.830252162,0,4.1733,1,,,,,,15.73000491,0,8.830252162,,,,,,,,,,,,,0,116,116,95,1,0.084193143,0,,,,,,,,,,,,,,,,,,,,,,,,,,,,,,,,,,,,,,,,,,,,,,,,,,,,,,,,,,,,,,,,,,,,,,,,,,,,,,,,
,,60ff1675f00a765cb05017e8,2022-09-08_11h07.35.618,CGTgamblingSpanTasks,2022.2.1,MacIntel,60.0024001,,,,,,,,3.3454,,,,,,,,,,,,,,2,v,0.6546,2.257683666,0,4.8454,1.5,,,,,,22.0050376,0,2.257683666,,,,,,,,,,,,,0,117,117,4,1,0.491147312,1,,,,,,,,,,,,,,,,,,,,,,,,,,,,,,,,,,,,,,,,,,,,,,,,,,,,,,,,,,,,,,,,,,,,,,,,,,,,,,,,
,,60ff1675f00a765cb05017e8,2022-09-08_11h07.35.618,CGTgamblingSpanTasks,2022.2.1,MacIntel,60.0024001,,,,,,,,3.3062,,,,,,,,,,,,,,2,v,0.6938,2.485985001,0,4.3062,1,,,,,,23.4214135,0,2.485985001,,,,,,,,,,,,,0,118,118,81,1,0.482105905,1,,,,,,,,,,,,,,,,,,,,,,,,,,,,,,,,,,,,,,,,,,,,,,,,,,,,,,,,,,,,,,,,,,,,,,,,,,,,,,,,
,,60ff1675f00a765cb05017e8,2022-09-08_11h07.35.618,CGTgamblingSpanTasks,2022.2.1,MacIntel,60.0024001,,,,,,,,3.2177,,,,,,,,,,,,,,1,n,0.7823,4.462262453,0,4.7177,1.5,,,,,,0.192759042,0,4.462262453,,,,,,,,,,,,,0,119,119,52,1,0.003553223,0,,,,,,,,,,,,,,,,,,,,,,,,,,,,,,,,,,,,,,,,,,,,,,,,,,,,,,,,,,,,,,,,,,,,,,,,,,,,,,,,
,,60ff1675f00a765cb05017e8,2022-09-08_11h07.35.618,CGTgamblingSpanTasks,2022.2.1,MacIntel,60.0024001,,,,,,,,,,,,,,,,,,,,,,,,,,,,,,,,,,,,,,,,,,,,,,,,,,,,,,,,return,15.3832,,,,,,,,,,,,,,,,,,,,,,,,,,,,,,,,,,,,,,,,,,,,,,,,,,,,,,,,,,,,,,,,,,,,,,,,,,,,,,
,,60ff1675f00a765cb05017e8,2022-09-08_11h07.35.618,CGTgamblingSpanTasks,2022.2.1,MacIntel,60.0024001,,,,,,,,,,,,,,,,,,,,,,,,,,,,,,,,,,,,,,,,,,,,,,,,,,,,,,,,,,return,20.291,,,,,,,,,,,,,,,,,,,,,,,,,,,,,,,,,,,,,,,,,,,,,,,,,,,,,,,,,,,,,,,,,,,,,,,,,,,,
,,60ff1675f00a765cb05017e8,2022-09-08_11h07.35.618,CGTgamblingSpanTasks,2022.2.1,MacIntel,60.0024001,,,,,,,,,,,,,,,,,,,,,,,,,,,,,,,,,,,,,,,,,,,,,,,,,,,,,,,,,,,,return,33.3233,,,,,,,,,,,,,,,,,,,,,,,,,,,,,,,,,,,,,,,,,,,,,,,,,,,,,,,,,,,,,,,,,,,,,,,,,,
,,60ff1675f00a765cb05017e8,2022-09-08_11h07.35.618,CGTgamblingSpanTasks,2022.2.1,MacIntel,60.0024001,,,,,,,,,,,,,,,,,,,,,,,,,,,,,,,,,,,,,,,,,,,,,,,,,,,,,,,,,,,,,,342,1,-0.022552083,-0.386801215,1,0,0,cont_buttonPractice,0,0,0,0,1,3,342,24,2,42,,,,,,,,,,,,,,,,,,,,,,,,,,,,,,,,,,,,,,,,,,,,,,,,,,,,,,,,
,,60ff1675f00a765cb05017e8,2022-09-08_11h07.35.618,CGTgamblingSpanTasks,2022.2.1,MacIntel,60.0024001,,,,,,,,,,,,,,,,,,,,,,,,,,,,,,,,,,,,,,,,,,,,,,,,,,,,,,,,,,,,,,937,1,-0.028207465,-0.390525174,1,0,0,cont_buttonPractice,0,1,1,1,1,3,937,73,2,37,,,,,,,,,,,,,,,,,,,,,,,,,,,,,,,,,,,,,,,,,,,,,,,,,,,,,,,,
,,60ff1675f00a765cb05017e8,2022-09-08_11h07.35.618,CGTgamblingSpanTasks,2022.2.1,MacIntel,60.0024001,,,,,,,,,,,,,,,,,,,,,,,,,,,,,,,,,,,,,,,,,,,,,,,,,,,,,,,,,,,,,,,,,,,,,,,,,,,,,,,,return,9.0361,,,,,,,,,,,,,,,,,,,,,,,,,,,,,,,,,,,,,,,,,,,,,,,,,,,,,,
,,60ff1675f00a765cb05017e8,2022-09-08_11h07.35.618,CGTgamblingSpanTasks,2022.2.1,MacIntel,60.0024001,,,,,,,,,,,,,,,,,,,,,,,,,,,,,,,,,,,,,,,,,,,,,,,,,,,,,,,,,,,,,,,,,,,,,,,,,,,,,,,,,,"[4,6,3]",0,0,0,0,1,,,,,,,,,,,,,,,,,,,,,,,,,,,,,,,,,,,,,,,,,,,,,,,,
,,60ff1675f00a765cb05017e8,2022-09-08_11h07.35.618,CGTgamblingSpanTasks,2022.2.1,MacIntel,60.0024001,,,,,,,,,,,,,,,,,,,,,,,,,,,,,,,,,,,,,,,,,,,,,,,,,,,,,,,,,,,,,,,,,,,,,,,,,,,,,,,,,,"[4,6,3]",1,0,1,0,1,,,,,,,,,,,,,,,,,,,,,,,,,,,,,,,,,,,,,,,,,,,,,,,,
,,60ff1675f00a765cb05017e8,2022-09-08_11h07.35.618,CGTgamblingSpanTasks,2022.2.1,MacIntel,60.0024001,,,,,,,,,,,,,,,,,,,,,,,,,,,,,,,,,,,,,,,,,,,,,,,,,,,,,,,,,,,,,,,,,,,,,,,,,,,,,,,,,,"[4,6,3]",2,0,2,0,1,,,,,,,,,,,,,,,,,,,,,,,,,,,,,,,,,,,,,,,,,,,,,,,,
,,60ff1675f00a765cb05017e8,2022-09-08_11h07.35.618,CGTgamblingSpanTasks,2022.2.1,MacIntel,60.0024001,,,,,,,,,,,,,,,,,,,,,,,,,,,,,,,,,,,,,,,,,,,,,,,,,,,,,,,,,,,,,,,1,,,,,,,,,,,,,,,,,,,,,,,,,463,-0.076072049,-0.389722222,1,0,0,cont_button,0,0,0,0,1,1,,,,,,,,,,,,,,,,,,,,,,,,,,,,,,,,,,,
,,60ff1675f00a765cb05017e8,2022-09-08_11h07.35.618,CGTgamblingSpanTasks,2022.2.1,MacIntel,60.0024001,,,,,,,,,,,,,,,,,,,,,,,,,,,,,,,,,,,,,,,,,,,,,,,,,,,,,,,,,,,,,,,,,,,,,,,,,,,,,,,,,,"[2,9,4,7]",0,0,0,0,1,,,,,,,,,,,,,,,,,,,,,,,,,,,,,,,,,,,,,,,,,,,,,,,,
,,60ff1675f00a765cb05017e8,2022-09-08_11h07.35.618,CGTgamblingSpanTasks,2022.2.1,MacIntel,60.0024001,,,,,,,,,,,,,,,,,,,,,,,,,,,,,,,,,,,,,,,,,,,,,,,,,,,,,,,,,,,,,,,,,,,,,,,,,,,,,,,,,,"[2,9,4,7]",1,0,1,0,1,,,,,,,,,,,,,,,,,,,,,,,,,,,,,,,,,,,,,,,,,,,,,,,,
,,60ff1675f00a765cb05017e8,2022-09-08_11h07.35.618,CGTgamblingSpanTasks,2022.2.1,MacIntel,60.0024001,,,,,,,,,,,,,,,,,,,,,,,,,,,,,,,,,,,,,,,,,,,,,,,,,,,,,,,,,,,,,,,,,,,,,,,,,,,,,,,,,,"[2,9,4,7]",2,0,2,0,1,,,,,,,,,,,,,,,,,,,,,,,,,,,,,,,,,,,,,,,,,,,,,,,,
,,60ff1675f00a765cb05017e8,2022-09-08_11h07.35.618,CGTgamblingSpanTasks,2022.2.1,MacIntel,60.0024001,,,,,,,,,,,,,,,,,,,,,,,,,,,,,,,,,,,,,,,,,,,,,,,,,,,,,,,,,,,,,,,,,,,,,,,,,,,,,,,,,,"[2,9,4,7]",3,0,3,0,1,,,,,,,,,,,,,,,,,,,,,,,,,,,,,,,,,,,,,,,,,,,,,,,,
,,60ff1675f00a765cb05017e8,2022-09-08_11h07.35.618,CGTgamblingSpanTasks,2022.2.1,MacIntel,60.0024001,,,,,,,,,,,,,,,,,,,,,,,,,,,,,,,,,,,,,,,,,,,,,,,,,,,,,,,,,,,,,,,1,,,,,,,,,,,,,,,,,,,,,,,,,2947,-0.063155382,-0.412365451,1,0,0,cont_button,0,1,1,1,1,2,,,,,,,,,,,,,,,,,,,,,,,,,,,,,,,,,,,
,,60ff1675f00a765cb05017e8,2022-09-08_11h07.35.618,CGTgamblingSpanTasks,2022.2.1,MacIntel,60.0024001,,,,,,,,,,,,,,,,,,,,,,,,,,,,,,,,,,,,,,,,,,,,,,,,,,,,,,,,,,,,,,,,,,,,,,,,,,,,,,,,,,"[5,9,6,8,1]",0,0,0,0,1,,,,,,,,,,,,,,,,,,,,,,,,,,,,,,,,,,,,,,,,,,,,,,,,
,,60ff1675f00a765cb05017e8,2022-09-08_11h07.35.618,CGTgamblingSpanTasks,2022.2.1,MacIntel,60.0024001,,,,,,,,,,,,,,,,,,,,,,,,,,,,,,,,,,,,,,,,,,,,,,,,,,,,,,,,,,,,,,,,,,,,,,,,,,,,,,,,,,"[5,9,6,8,1]",1,0,1,0,1,,,,,,,,,,,,,,,,,,,,,,,,,,,,,,,,,,,,,,,,,,,,,,,,
,,60ff1675f00a765cb05017e8,2022-09-08_11h07.35.618,CGTgamblingSpanTasks,2022.2.1,MacIntel,60.0024001,,,,,,,,,,,,,,,,,,,,,,,,,,,,,,,,,,,,,,,,,,,,,,,,,,,,,,,,,,,,,,,,,,,,,,,,,,,,,,,,,,"[5,9,6,8,1]",2,0,2,0,1,,,,,,,,,,,,,,,,,,,,,,,,,,,,,,,,,,,,,,,,,,,,,,,,
,,60ff1675f00a765cb05017e8,2022-09-08_11h07.35.618,CGTgamblingSpanTasks,2022.2.1,MacIntel,60.0024001,,,,,,,,,,,,,,,,,,,,,,,,,,,,,,,,,,,,,,,,,,,,,,,,,,,,,,,,,,,,,,,,,,,,,,,,,,,,,,,,,,"[5,9,6,8,1]",3,0,3,0,1,,,,,,,,,,,,,,,,,,,,,,,,,,,,,,,,,,,,,,,,,,,,,,,,
,,60ff1675f00a765cb05017e8,2022-09-08_11h07.35.618,CGTgamblingSpanTasks,2022.2.1,MacIntel,60.0024001,,,,,,,,,,,,,,,,,,,,,,,,,,,,,,,,,,,,,,,,,,,,,,,,,,,,,,,,,,,,,,,,,,,,,,,,,,,,,,,,,,"[5,9,6,8,1]",4,0,4,0,1,,,,,,,,,,,,,,,,,,,,,,,,,,,,,,,,,,,,,,,,,,,,,,,,
,,60ff1675f00a765cb05017e8,2022-09-08_11h07.35.618,CGTgamblingSpanTasks,2022.2.1,MacIntel,60.0024001,,,,,,,,,,,,,,,,,,,,,,,,,,,,,,,,,,,,,,,,,,,,,,,,,,,,,,,,,,,,,,,1,,,,,,,,,,,,,,,,,,,,,,,,,59681,-0.076571181,-0.412947049,1,0,0,cont_button,0,2,2,2,1,3,,,,,,,,,,,,,,,,,,,,,,,,,,,,,,,,,,,
,,60ff1675f00a765cb05017e8,2022-09-08_11h07.35.618,CGTgamblingSpanTasks,2022.2.1,MacIntel,60.0024001,,,,,,,,,,,,,,,,,,,,,,,,,,,,,,,,,,,,,,,,,,,,,,,,,,,,,,,,,,,,,,,,,,,,,,,,,,,,,,,,,,"[4,1,7,9,2,3]",0,0,0,0,1,,,,,,,,,,,,,,,,,,,,,,,,,,,,,,,,,,,,,,,,,,,,,,,,
,,60ff1675f00a765cb05017e8,2022-09-08_11h07.35.618,CGTgamblingSpanTasks,2022.2.1,MacIntel,60.0024001,,,,,,,,,,,,,,,,,,,,,,,,,,,,,,,,,,,,,,,,,,,,,,,,,,,,,,,,,,,,,,,,,,,,,,,,,,,,,,,,,,"[4,1,7,9,2,3]",1,0,1,0,1,,,,,,,,,,,,,,,,,,,,,,,,,,,,,,,,,,,,,,,,,,,,,,,,
,,60ff1675f00a765cb05017e8,2022-09-08_11h07.35.618,CGTgamblingSpanTasks,2022.2.1,MacIntel,60.0024001,,,,,,,,,,,,,,,,,,,,,,,,,,,,,,,,,,,,,,,,,,,,,,,,,,,,,,,,,,,,,,,,,,,,,,,,,,,,,,,,,,"[4,1,7,9,2,3]",2,0,2,0,1,,,,,,,,,,,,,,,,,,,,,,,,,,,,,,,,,,,,,,,,,,,,,,,,
,,60ff1675f00a765cb05017e8,2022-09-08_11h07.35.618,CGTgamblingSpanTasks,2022.2.1,MacIntel,60.0024001,,,,,,,,,,,,,,,,,,,,,,,,,,,,,,,,,,,,,,,,,,,,,,,,,,,,,,,,,,,,,,,,,,,,,,,,,,,,,,,,,,"[4,1,7,9,2,3]",3,0,3,0,1,,,,,,,,,,,,,,,,,,,,,,,,,,,,,,,,,,,,,,,,,,,,,,,,
,,60ff1675f00a765cb05017e8,2022-09-08_11h07.35.618,CGTgamblingSpanTasks,2022.2.1,MacIntel,60.0024001,,,,,,,,,,,,,,,,,,,,,,,,,,,,,,,,,,,,,,,,,,,,,,,,,,,,,,,,,,,,,,,,,,,,,,,,,,,,,,,,,,"[4,1,7,9,2,3]",4,0,4,0,1,,,,,,,,,,,,,,,,,,,,,,,,,,,,,,,,,,,,,,,,,,,,,,,,
,,60ff1675f00a765cb05017e8,2022-09-08_11h07.35.618,CGTgamblingSpanTasks,2022.2.1,MacIntel,60.0024001,,,,,,,,,,,,,,,,,,,,,,,,,,,,,,,,,,,,,,,,,,,,,,,,,,,,,,,,,,,,,,,,,,,,,,,,,,,,,,,,,,"[4,1,7,9,2,3]",5,0,5,0,1,,,,,,,,,,,,,,,,,,,,,,,,,,,,,,,,,,,,,,,,,,,,,,,,
,,60ff1675f00a765cb05017e8,2022-09-08_11h07.35.618,CGTgamblingSpanTasks,2022.2.1,MacIntel,60.0024001,,,,,,,,,,,,,,,,,,,,,,,,,,,,,,,,,,,,,,,,,,,,,,,,,,,,,,,,,,,,,,,1,,,,,,,,,,,,,,,,,,,,,,,,,417923,-0.068363715,-0.409327257,1,0,0,cont_button,0,3,3,3,1,4,,,,,,,,,,,,,,,,,,,,,,,,,,,,,,,,,,,
,,60ff1675f00a765cb05017e8,2022-09-08_11h07.35.618,CGTgamblingSpanTasks,2022.2.1,MacIntel,60.0024001,,,,,,,,,,,,,,,,,,,,,,,,,,,,,,,,,,,,,,,,,,,,,,,,,,,,,,,,,,,,,,,,,,,,,,,,,,,,,,,,,,"[5,1,8,3,9,2,4]",0,0,0,0,1,,,,,,,,,,,,,,,,,,,,,,,,,,,,,,,,,,,,,,,,,,,,,,,,
,,60ff1675f00a765cb05017e8,2022-09-08_11h07.35.618,CGTgamblingSpanTasks,2022.2.1,MacIntel,60.0024001,,,,,,,,,,,,,,,,,,,,,,,,,,,,,,,,,,,,,,,,,,,,,,,,,,,,,,,,,,,,,,,,,,,,,,,,,,,,,,,,,,"[5,1,8,3,9,2,4]",1,0,1,0,1,,,,,,,,,,,,,,,,,,,,,,,,,,,,,,,,,,,,,,,,,,,,,,,,
,,60ff1675f00a765cb05017e8,2022-09-08_11h07.35.618,CGTgamblingSpanTasks,2022.2.1,MacIntel,60.0024001,,,,,,,,,,,,,,,,,,,,,,,,,,,,,,,,,,,,,,,,,,,,,,,,,,,,,,,,,,,,,,,,,,,,,,,,,,,,,,,,,,"[5,1,8,3,9,2,4]",2,0,2,0,1,,,,,,,,,,,,,,,,,,,,,,,,,,,,,,,,,,,,,,,,,,,,,,,,
,,60ff1675f00a765cb05017e8,2022-09-08_11h07.35.618,CGTgamblingSpanTasks,2022.2.1,MacIntel,60.0024001,,,,,,,,,,,,,,,,,,,,,,,,,,,,,,,,,,,,,,,,,,,,,,,,,,,,,,,,,,,,,,,,,,,,,,,,,,,,,,,,,,"[5,1,8,3,9,2,4]",3,0,3,0,1,,,,,,,,,,,,,,,,,,,,,,,,,,,,,,,,,,,,,,,,,,,,,,,,
,,60ff1675f00a765cb05017e8,2022-09-08_11h07.35.618,CGTgamblingSpanTasks,2022.2.1,MacIntel,60.0024001,,,,,,,,,,,,,,,,,,,,,,,,,,,,,,,,,,,,,,,,,,,,,,,,,,,,,,,,,,,,,,,,,,,,,,,,,,,,,,,,,,"[5,1,8,3,9,2,4]",4,0,4,0,1,,,,,,,,,,,,,,,,,,,,,,,,,,,,,,,,,,,,,,,,,,,,,,,,
,,60ff1675f00a765cb05017e8,2022-09-08_11h07.35.618,CGTgamblingSpanTasks,2022.2.1,MacIntel,60.0024001,,,,,,,,,,,,,,,,,,,,,,,,,,,,,,,,,,,,,,,,,,,,,,,,,,,,,,,,,,,,,,,,,,,,,,,,,,,,,,,,,,"[5,1,8,3,9,2,4]",5,0,5,0,1,,,,,,,,,,,,,,,,,,,,,,,,,,,,,,,,,,,,,,,,,,,,,,,,
,,60ff1675f00a765cb05017e8,2022-09-08_11h07.35.618,CGTgamblingSpanTasks,2022.2.1,MacIntel,60.0024001,,,,,,,,,,,,,,,,,,,,,,,,,,,,,,,,,,,,,,,,,,,,,,,,,,,,,,,,,,,,,,,,,,,,,,,,,,,,,,,,,,"[5,1,8,3,9,2,4]",6,0,6,0,1,,,,,,,,,,,,,,,,,,,,,,,,,,,,,,,,,,,,,,,,,,,,,,,,
,,60ff1675f00a765cb05017e8,2022-09-08_11h07.35.618,CGTgamblingSpanTasks,2022.2.1,MacIntel,60.0024001,,,,,,,,,,,,,,,,,,,,,,,,,,,,,,,,,,,,,,,,,,,,,,,,,,,,,,,,,,,,,,,1,,,,,,,,,,,,,,,,,,,,,,,,,5183924,-0.051888021,-0.403836806,1,0,0,cont_button,0,4,4,4,1,5,,,,,,,,,,,,,,,,,,,,,,,,,,,,,,,,,,,
,,60ff1675f00a765cb05017e8,2022-09-08_11h07.35.618,CGTgamblingSpanTasks,2022.2.1,MacIntel,60.0024001,,,,,,,,,,,,,,,,,,,,,,,,,,,,,,,,,,,,,,,,,,,,,,,,,,,,,,,,,,,,,,,,,,,,,,,,,,,,,,,,,,"[7,4,3,5,1,8,2,6]",0,0,0,0,1,,,,,,,,,,,,,,,,,,,,,,,,,,,,,,,,,,,,,,,,,,,,,,,,
,,60ff1675f00a765cb05017e8,2022-09-08_11h07.35.618,CGTgamblingSpanTasks,2022.2.1,MacIntel,60.0024001,,,,,,,,,,,,,,,,,,,,,,,,,,,,,,,,,,,,,,,,,,,,,,,,,,,,,,,,,,,,,,,,,,,,,,,,,,,,,,,,,,"[7,4,3,5,1,8,2,6]",1,0,1,0,1,,,,,,,,,,,,,,,,,,,,,,,,,,,,,,,,,,,,,,,,,,,,,,,,
,,60ff1675f00a765cb05017e8,2022-09-08_11h07.35.618,CGTgamblingSpanTasks,2022.2.1,MacIntel,60.0024001,,,,,,,,,,,,,,,,,,,,,,,,,,,,,,,,,,,,,,,,,,,,,,,,,,,,,,,,,,,,,,,,,,,,,,,,,,,,,,,,,,"[7,4,3,5,1,8,2,6]",2,0,2,0,1,,,,,,,,,,,,,,,,,,,,,,,,,,,,,,,,,,,,,,,,,,,,,,,,
,,60ff1675f00a765cb05017e8,2022-09-08_11h07.35.618,CGTgamblingSpanTasks,2022.2.1,MacIntel,60.0024001,,,,,,,,,,,,,,,,,,,,,,,,,,,,,,,,,,,,,,,,,,,,,,,,,,,,,,,,,,,,,,,,,,,,,,,,,,,,,,,,,,"[7,4,3,5,1,8,2,6]",3,0,3,0,1,,,,,,,,,,,,,,,,,,,,,,,,,,,,,,,,,,,,,,,,,,,,,,,,
,,60ff1675f00a765cb05017e8,2022-09-08_11h07.35.618,CGTgamblingSpanTasks,2022.2.1,MacIntel,60.0024001,,,,,,,,,,,,,,,,,,,,,,,,,,,,,,,,,,,,,,,,,,,,,,,,,,,,,,,,,,,,,,,,,,,,,,,,,,,,,,,,,,"[7,4,3,5,1,8,2,6]",4,0,4,0,1,,,,,,,,,,,,,,,,,,,,,,,,,,,,,,,,,,,,,,,,,,,,,,,,
,,60ff1675f00a765cb05017e8,2022-09-08_11h07.35.618,CGTgamblingSpanTasks,2022.2.1,MacIntel,60.0024001,,,,,,,,,,,,,,,,,,,,,,,,,,,,,,,,,,,,,,,,,,,,,,,,,,,,,,,,,,,,,,,,,,,,,,,,,,,,,,,,,,"[7,4,3,5,1,8,2,6]",5,0,5,0,1,,,,,,,,,,,,,,,,,,,,,,,,,,,,,,,,,,,,,,,,,,,,,,,,
,,60ff1675f00a765cb05017e8,2022-09-08_11h07.35.618,CGTgamblingSpanTasks,2022.2.1,MacIntel,60.0024001,,,,,,,,,,,,,,,,,,,,,,,,,,,,,,,,,,,,,,,,,,,,,,,,,,,,,,,,,,,,,,,,,,,,,,,,,,,,,,,,,,"[7,4,3,5,1,8,2,6]",6,0,6,0,1,,,,,,,,,,,,,,,,,,,,,,,,,,,,,,,,,,,,,,,,,,,,,,,,
,,60ff1675f00a765cb05017e8,2022-09-08_11h07.35.618,CGTgamblingSpanTasks,2022.2.1,MacIntel,60.0024001,,,,,,,,,,,,,,,,,,,,,,,,,,,,,,,,,,,,,,,,,,,,,,,,,,,,,,,,,,,,,,,,,,,,,,,,,,,,,,,,,,"[7,4,3,5,1,8,2,6]",7,0,7,0,1,,,,,,,,,,,,,,,,,,,,,,,,,,,,,,,,,,,,,,,,,,,,,,,,
,,60ff1675f00a765cb05017e8,2022-09-08_11h07.35.618,CGTgamblingSpanTasks,2022.2.1,MacIntel,60.0024001,,,,,,,,,,,,,,,,,,,,,,,,,,,,,,,,,,,,,,,,,,,,,,,,,,,,,,,,,,,,,,,1,,,,,,,,,,,,,,,,,,,,,,,,,74351826,-0.052356771,-0.415998264,1,0,0,cont_button,0,5,5,5,1,6,,,,,,,,,,,,,,,,,,,,,,,,,,,,,,,,,,,
,,60ff1675f00a765cb05017e8,2022-09-08_11h07.35.618,CGTgamblingSpanTasks,2022.2.1,MacIntel,60.0024001,,,,,,,,,,,,,,,,,,,,,,,,,,,,,,,,,,,,,,,,,,,,,,,,,,,,,,,,,,,,,,,,,,,,,,,,,,,,,,,,,,"[5,6,4,9,1,8,2,3,7]",0,0,0,0,1,,,,,,,,,,,,,,,,,,,,,,,,,,,,,,,,,,,,,,,,,,,,,,,,
,,60ff1675f00a765cb05017e8,2022-09-08_11h07.35.618,CGTgamblingSpanTasks,2022.2.1,MacIntel,60.0024001,,,,,,,,,,,,,,,,,,,,,,,,,,,,,,,,,,,,,,,,,,,,,,,,,,,,,,,,,,,,,,,,,,,,,,,,,,,,,,,,,,"[5,6,4,9,1,8,2,3,7]",1,0,1,0,1,,,,,,,,,,,,,,,,,,,,,,,,,,,,,,,,,,,,,,,,,,,,,,,,
,,60ff1675f00a765cb05017e8,2022-09-08_11h07.35.618,CGTgamblingSpanTasks,2022.2.1,MacIntel,60.0024001,,,,,,,,,,,,,,,,,,,,,,,,,,,,,,,,,,,,,,,,,,,,,,,,,,,,,,,,,,,,,,,,,,,,,,,,,,,,,,,,,,"[5,6,4,9,1,8,2,3,7]",2,0,2,0,1,,,,,,,,,,,,,,,,,,,,,,,,,,,,,,,,,,,,,,,,,,,,,,,,
,,60ff1675f00a765cb05017e8,2022-09-08_11h07.35.618,CGTgamblingSpanTasks,2022.2.1,MacIntel,60.0024001,,,,,,,,,,,,,,,,,,,,,,,,,,,,,,,,,,,,,,,,,,,,,,,,,,,,,,,,,,,,,,,,,,,,,,,,,,,,,,,,,,"[5,6,4,9,1,8,2,3,7]",3,0,3,0,1,,,,,,,,,,,,,,,,,,,,,,,,,,,,,,,,,,,,,,,,,,,,,,,,
,,60ff1675f00a765cb05017e8,2022-09-08_11h07.35.618,CGTgamblingSpanTasks,2022.2.1,MacIntel,60.0024001,,,,,,,,,,,,,,,,,,,,,,,,,,,,,,,,,,,,,,,,,,,,,,,,,,,,,,,,,,,,,,,,,,,,,,,,,,,,,,,,,,"[5,6,4,9,1,8,2,3,7]",4,0,4,0,1,,,,,,,,,,,,,,,,,,,,,,,,,,,,,,,,,,,,,,,,,,,,,,,,
,,60ff1675f00a765cb05017e8,2022-09-08_11h07.35.618,CGTgamblingSpanTasks,2022.2.1,MacIntel,60.0024001,,,,,,,,,,,,,,,,,,,,,,,,,,,,,,,,,,,,,,,,,,,,,,,,,,,,,,,,,,,,,,,,,,,,,,,,,,,,,,,,,,"[5,6,4,9,1,8,2,3,7]",5,0,5,0,1,,,,,,,,,,,,,,,,,,,,,,,,,,,,,,,,,,,,,,,,,,,,,,,,
,,60ff1675f00a765cb05017e8,2022-09-08_11h07.35.618,CGTgamblingSpanTasks,2022.2.1,MacIntel,60.0024001,,,,,,,,,,,,,,,,,,,,,,,,,,,,,,,,,,,,,,,,,,,,,,,,,,,,,,,,,,,,,,,,,,,,,,,,,,,,,,,,,,"[5,6,4,9,1,8,2,3,7]",6,0,6,0,1,,,,,,,,,,,,,,,,,,,,,,,,,,,,,,,,,,,,,,,,,,,,,,,,
,,60ff1675f00a765cb05017e8,2022-09-08_11h07.35.618,CGTgamblingSpanTasks,2022.2.1,MacIntel,60.0024001,,,,,,,,,,,,,,,,,,,,,,,,,,,,,,,,,,,,,,,,,,,,,,,,,,,,,,,,,,,,,,,,,,,,,,,,,,,,,,,,,,"[5,6,4,9,1,8,2,3,7]",7,0,7,0,1,,,,,,,,,,,,,,,,,,,,,,,,,,,,,,,,,,,,,,,,,,,,,,,,
,,60ff1675f00a765cb05017e8,2022-09-08_11h07.35.618,CGTgamblingSpanTasks,2022.2.1,MacIntel,60.0024001,,,,,,,,,,,,,,,,,,,,,,,,,,,,,,,,,,,,,,,,,,,,,,,,,,,,,,,,,,,,,,,,,,,,,,,,,,,,,,,,,,"[5,6,4,9,1,8,2,3,7]",8,0,8,0,1,,,,,,,,,,,,,,,,,,,,,,,,,,,,,,,,,,,,,,,,,,,,,,,,
,,60ff1675f00a765cb05017e8,2022-09-08_11h07.35.618,CGTgamblingSpanTasks,2022.2.1,MacIntel,60.0024001,,,,,,,,,,,,,,,,,,,,,,,,,,,,,,,,,,,,,,,,,,,,,,,,,,,,,,,,,,,,,,,1,,,,,,,,,,,,,,,,,,,,,,,,,564918237,-0.012356771,-0.400351562,1,0,0,cont_button,0,6,6,6,1,7,,,,,,,,,,,,,,,,,,,,,,,,,,,,,,,,,,,
,,60ff1675f00a765cb05017e8,2022-09-08_11h07.35.618,CGTgamblingSpanTasks,2022.2.1,MacIntel,60.0024001,,,,,,,,,,,,,,,,,,,,,,,,,,,,,,,,,,,,,,,,,,,,,,,,,,,,,,,,,,,,,,,,,,,,,,,,,,,,,,,,,,"[7,3,2,9,8,5,6,1,4,4]",0,0,0,0,1,,,,,,,,,,,,,,,,,,,,,,,,,,,,,,,,,,,,,,,,,,,,,,,,
,,60ff1675f00a765cb05017e8,2022-09-08_11h07.35.618,CGTgamblingSpanTasks,2022.2.1,MacIntel,60.0024001,,,,,,,,,,,,,,,,,,,,,,,,,,,,,,,,,,,,,,,,,,,,,,,,,,,,,,,,,,,,,,,,,,,,,,,,,,,,,,,,,,"[7,3,2,9,8,5,6,1,4,4]",1,0,1,0,1,,,,,,,,,,,,,,,,,,,,,,,,,,,,,,,,,,,,,,,,,,,,,,,,
,,60ff1675f00a765cb05017e8,2022-09-08_11h07.35.618,CGTgamblingSpanTasks,2022.2.1,MacIntel,60.0024001,,,,,,,,,,,,,,,,,,,,,,,,,,,,,,,,,,,,,,,,,,,,,,,,,,,,,,,,,,,,,,,,,,,,,,,,,,,,,,,,,,"[7,3,2,9,8,5,6,1,4,4]",2,0,2,0,1,,,,,,,,,,,,,,,,,,,,,,,,,,,,,,,,,,,,,,,,,,,,,,,,
,,60ff1675f00a765cb05017e8,2022-09-08_11h07.35.618,CGTgamblingSpanTasks,2022.2.1,MacIntel,60.0024001,,,,,,,,,,,,,,,,,,,,,,,,,,,,,,,,,,,,,,,,,,,,,,,,,,,,,,,,,,,,,,,,,,,,,,,,,,,,,,,,,,"[7,3,2,9,8,5,6,1,4,4]",3,0,3,0,1,,,,,,,,,,,,,,,,,,,,,,,,,,,,,,,,,,,,,,,,,,,,,,,,
,,60ff1675f00a765cb05017e8,2022-09-08_11h07.35.618,CGTgamblingSpanTasks,2022.2.1,MacIntel,60.0024001,,,,,,,,,,,,,,,,,,,,,,,,,,,,,,,,,,,,,,,,,,,,,,,,,,,,,,,,,,,,,,,,,,,,,,,,,,,,,,,,,,"[7,3,2,9,8,5,6,1,4,4]",4,0,4,0,1,,,,,,,,,,,,,,,,,,,,,,,,,,,,,,,,,,,,,,,,,,,,,,,,
,,60ff1675f00a765cb05017e8,2022-09-08_11h07.35.618,CGTgamblingSpanTasks,2022.2.1,MacIntel,60.0024001,,,,,,,,,,,,,,,,,,,,,,,,,,,,,,,,,,,,,,,,,,,,,,,,,,,,,,,,,,,,,,,,,,,,,,,,,,,,,,,,,,"[7,3,2,9,8,5,6,1,4,4]",5,0,5,0,1,,,,,,,,,,,,,,,,,,,,,,,,,,,,,,,,,,,,,,,,,,,,,,,,
,,60ff1675f00a765cb05017e8,2022-09-08_11h07.35.618,CGTgamblingSpanTasks,2022.2.1,MacIntel,60.0024001,,,,,,,,,,,,,,,,,,,,,,,,,,,,,,,,,,,,,,,,,,,,,,,,,,,,,,,,,,,,,,,,,,,,,,,,,,,,,,,,,,"[7,3,2,9,8,5,6,1,4,4]",6,0,6,0,1,,,,,,,,,,,,,,,,,,,,,,,,,,,,,,,,,,,,,,,,,,,,,,,,
,,60ff1675f00a765cb05017e8,2022-09-08_11h07.35.618,CGTgamblingSpanTasks,2022.2.1,MacIntel,60.0024001,,,,,,,,,,,,,,,,,,,,,,,,,,,,,,,,,,,,,,,,,,,,,,,,,,,,,,,,,,,,,,,,,,,,,,,,,,,,,,,,,,"[7,3,2,9,8,5,6,1,4,4]",7,0,7,0,1,,,,,,,,,,,,,,,,,,,,,,,,,,,,,,,,,,,,,,,,,,,,,,,,
,,60ff1675f00a765cb05017e8,2022-09-08_11h07.35.618,CGTgamblingSpanTasks,2022.2.1,MacIntel,60.0024001,,,,,,,,,,,,,,,,,,,,,,,,,,,,,,,,,,,,,,,,,,,,,,,,,,,,,,,,,,,,,,,,,,,,,,,,,,,,,,,,,,"[7,3,2,9,8,5,6,1,4,4]",8,0,8,0,1,,,,,,,,,,,,,,,,,,,,,,,,,,,,,,,,,,,,,,,,,,,,,,,,
,,60ff1675f00a765cb05017e8,2022-09-08_11h07.35.618,CGTgamblingSpanTasks,2022.2.1,MacIntel,60.0024001,,,,,,,,,,,,,,,,,,,,,,,,,,,,,,,,,,,,,,,,,,,,,,,,,,,,,,,,,,,,,,,,,,,,,,,,,,,,,,,,,,"[7,3,2,9,8,5,6,1,4,4]",9,0,9,0,1,,,,,,,,,,,,,,,,,,,,,,,,,,,,,,,,,,,,,,,,,,,,,,,,
,,60ff1675f00a765cb05017e8,2022-09-08_11h07.35.618,CGTgamblingSpanTasks,2022.2.1,MacIntel,60.0024001,,,,,,,,,,,,,,,,,,,,,,,,,,,,,,,,,,,,,,,,,,,,,,,,,,,,,,,,,,,,,,,1,,,,,,,,,,,,,,,,,,,,,,,,,7329856144,0.124791667,-0.3803125,1,0,0,cont_button,0,7,7,7,1,8,,,,,,,,,,,,,,,,,,,,,,,,,,,,,,,,,,,
,,60ff1675f00a765cb05017e8,2022-09-08_11h07.35.618,CGTgamblingSpanTasks,2022.2.1,MacIntel,60.0024001,,,,,,,,,,,,,,,,,,,,,,,,,,,,,,,,,,,,,,,,,,,,,,,,,,,,,,,,,,,,,,,,,,,,,,,,,,,,,,,,,,"[8,2,7,9,6,5,3,4,1,1,6]",0,0,0,0,1,,,,,,,,,,,,,,,,,,,,,,,,,,,,,,,,,,,,,,,,,,,,,,,,
,,60ff1675f00a765cb05017e8,2022-09-08_11h07.35.618,CGTgamblingSpanTasks,2022.2.1,MacIntel,60.0024001,,,,,,,,,,,,,,,,,,,,,,,,,,,,,,,,,,,,,,,,,,,,,,,,,,,,,,,,,,,,,,,,,,,,,,,,,,,,,,,,,,"[8,2,7,9,6,5,3,4,1,1,6]",1,0,1,0,1,,,,,,,,,,,,,,,,,,,,,,,,,,,,,,,,,,,,,,,,,,,,,,,,
,,60ff1675f00a765cb05017e8,2022-09-08_11h07.35.618,CGTgamblingSpanTasks,2022.2.1,MacIntel,60.0024001,,,,,,,,,,,,,,,,,,,,,,,,,,,,,,,,,,,,,,,,,,,,,,,,,,,,,,,,,,,,,,,,,,,,,,,,,,,,,,,,,,"[8,2,7,9,6,5,3,4,1,1,6]",2,0,2,0,1,,,,,,,,,,,,,,,,,,,,,,,,,,,,,,,,,,,,,,,,,,,,,,,,
,,60ff1675f00a765cb05017e8,2022-09-08_11h07.35.618,CGTgamblingSpanTasks,2022.2.1,MacIntel,60.0024001,,,,,,,,,,,,,,,,,,,,,,,,,,,,,,,,,,,,,,,,,,,,,,,,,,,,,,,,,,,,,,,,,,,,,,,,,,,,,,,,,,"[8,2,7,9,6,5,3,4,1,1,6]",3,0,3,0,1,,,,,,,,,,,,,,,,,,,,,,,,,,,,,,,,,,,,,,,,,,,,,,,,
,,60ff1675f00a765cb05017e8,2022-09-08_11h07.35.618,CGTgamblingSpanTasks,2022.2.1,MacIntel,60.0024001,,,,,,,,,,,,,,,,,,,,,,,,,,,,,,,,,,,,,,,,,,,,,,,,,,,,,,,,,,,,,,,,,,,,,,,,,,,,,,,,,,"[8,2,7,9,6,5,3,4,1,1,6]",4,0,4,0,1,,,,,,,,,,,,,,,,,,,,,,,,,,,,,,,,,,,,,,,,,,,,,,,,
,,60ff1675f00a765cb05017e8,2022-09-08_11h07.35.618,CGTgamblingSpanTasks,2022.2.1,MacIntel,60.0024001,,,,,,,,,,,,,,,,,,,,,,,,,,,,,,,,,,,,,,,,,,,,,,,,,,,,,,,,,,,,,,,,,,,,,,,,,,,,,,,,,,"[8,2,7,9,6,5,3,4,1,1,6]",5,0,5,0,1,,,,,,,,,,,,,,,,,,,,,,,,,,,,,,,,,,,,,,,,,,,,,,,,
,,60ff1675f00a765cb05017e8,2022-09-08_11h07.35.618,CGTgamblingSpanTasks,2022.2.1,MacIntel,60.0024001,,,,,,,,,,,,,,,,,,,,,,,,,,,,,,,,,,,,,,,,,,,,,,,,,,,,,,,,,,,,,,,,,,,,,,,,,,,,,,,,,,"[8,2,7,9,6,5,3,4,1,1,6]",6,0,6,0,1,,,,,,,,,,,,,,,,,,,,,,,,,,,,,,,,,,,,,,,,,,,,,,,,
,,60ff1675f00a765cb05017e8,2022-09-08_11h07.35.618,CGTgamblingSpanTasks,2022.2.1,MacIntel,60.0024001,,,,,,,,,,,,,,,,,,,,,,,,,,,,,,,,,,,,,,,,,,,,,,,,,,,,,,,,,,,,,,,,,,,,,,,,,,,,,,,,,,"[8,2,7,9,6,5,3,4,1,1,6]",7,0,7,0,1,,,,,,,,,,,,,,,,,,,,,,,,,,,,,,,,,,,,,,,,,,,,,,,,
,,60ff1675f00a765cb05017e8,2022-09-08_11h07.35.618,CGTgamblingSpanTasks,2022.2.1,MacIntel,60.0024001,,,,,,,,,,,,,,,,,,,,,,,,,,,,,,,,,,,,,,,,,,,,,,,,,,,,,,,,,,,,,,,,,,,,,,,,,,,,,,,,,,"[8,2,7,9,6,5,3,4,1,1,6]",8,0,8,0,1,,,,,,,,,,,,,,,,,,,,,,,,,,,,,,,,,,,,,,,,,,,,,,,,
,,60ff1675f00a765cb05017e8,2022-09-08_11h07.35.618,CGTgamblingSpanTasks,2022.2.1,MacIntel,60.0024001,,,,,,,,,,,,,,,,,,,,,,,,,,,,,,,,,,,,,,,,,,,,,,,,,,,,,,,,,,,,,,,,,,,,,,,,,,,,,,,,,,"[8,2,7,9,6,5,3,4,1,1,6]",9,0,9,0,1,,,,,,,,,,,,,,,,,,,,,,,,,,,,,,,,,,,,,,,,,,,,,,,,
,,60ff1675f00a765cb05017e8,2022-09-08_11h07.35.618,CGTgamblingSpanTasks,2022.2.1,MacIntel,60.0024001,,,,,,,,,,,,,,,,,,,,,,,,,,,,,,,,,,,,,,,,,,,,,,,,,,,,,,,,,,,,,,,,,,,,,,,,,,,,,,,,,,"[8,2,7,9,6,5,3,4,1,1,6]",10,0,10,0,1,,,,,,,,,,,,,,,,,,,,,,,,,,,,,,,,,,,,,,,,,,,,,,,,
,,60ff1675f00a765cb05017e8,2022-09-08_11h07.35.618,CGTgamblingSpanTasks,2022.2.1,MacIntel,60.0024001,,,,,,,,,,,,,,,,,,,,,,,,,,,,,,,,,,,,,,,,,,,,,,,,,,,,,,,,,,,,,,,1,,,,,,,,,,,,,,,,,,,,,,,,,82796534116,0.077230903,-0.391145833,1,0,0,cont_button,0,8,8,8,1,9,,,,,,,,,,,,,,,,,,,,,,,,,,,,,,,,,,,
,,60ff1675f00a765cb05017e8,2022-09-08_11h07.35.618,CGTgamblingSpanTasks,2022.2.1,MacIntel,60.0024001,,,,,,,,,,,,,,,,,,,,,,,,,,,,,,,,,,,,,,,,,,,,,,,,,,,,,,,,,,,,,,,,,,,,,,,,,,,,,,,,,,"[6,3,7,2,1,5,8,4,9,9,8,6]",0,0,0,0,1,,,,,,,,,,,,,,,,,,,,,,,,,,,,,,,,,,,,,,,,,,,,,,,,
,,60ff1675f00a765cb05017e8,2022-09-08_11h07.35.618,CGTgamblingSpanTasks,2022.2.1,MacIntel,60.0024001,,,,,,,,,,,,,,,,,,,,,,,,,,,,,,,,,,,,,,,,,,,,,,,,,,,,,,,,,,,,,,,,,,,,,,,,,,,,,,,,,,"[6,3,7,2,1,5,8,4,9,9,8,6]",1,0,1,0,1,,,,,,,,,,,,,,,,,,,,,,,,,,,,,,,,,,,,,,,,,,,,,,,,
,,60ff1675f00a765cb05017e8,2022-09-08_11h07.35.618,CGTgamblingSpanTasks,2022.2.1,MacIntel,60.0024001,,,,,,,,,,,,,,,,,,,,,,,,,,,,,,,,,,,,,,,,,,,,,,,,,,,,,,,,,,,,,,,,,,,,,,,,,,,,,,,,,,"[6,3,7,2,1,5,8,4,9,9,8,6]",2,0,2,0,1,,,,,,,,,,,,,,,,,,,,,,,,,,,,,,,,,,,,,,,,,,,,,,,,
,,60ff1675f00a765cb05017e8,2022-09-08_11h07.35.618,CGTgamblingSpanTasks,2022.2.1,MacIntel,60.0024001,,,,,,,,,,,,,,,,,,,,,,,,,,,,,,,,,,,,,,,,,,,,,,,,,,,,,,,,,,,,,,,,,,,,,,,,,,,,,,,,,,"[6,3,7,2,1,5,8,4,9,9,8,6]",3,0,3,0,1,,,,,,,,,,,,,,,,,,,,,,,,,,,,,,,,,,,,,,,,,,,,,,,,
,,60ff1675f00a765cb05017e8,2022-09-08_11h07.35.618,CGTgamblingSpanTasks,2022.2.1,MacIntel,60.0024001,,,,,,,,,,,,,,,,,,,,,,,,,,,,,,,,,,,,,,,,,,,,,,,,,,,,,,,,,,,,,,,,,,,,,,,,,,,,,,,,,,"[6,3,7,2,1,5,8,4,9,9,8,6]",4,0,4,0,1,,,,,,,,,,,,,,,,,,,,,,,,,,,,,,,,,,,,,,,,,,,,,,,,
,,60ff1675f00a765cb05017e8,2022-09-08_11h07.35.618,CGTgamblingSpanTasks,2022.2.1,MacIntel,60.0024001,,,,,,,,,,,,,,,,,,,,,,,,,,,,,,,,,,,,,,,,,,,,,,,,,,,,,,,,,,,,,,,,,,,,,,,,,,,,,,,,,,"[6,3,7,2,1,5,8,4,9,9,8,6]",5,0,5,0,1,,,,,,,,,,,,,,,,,,,,,,,,,,,,,,,,,,,,,,,,,,,,,,,,
,,60ff1675f00a765cb05017e8,2022-09-08_11h07.35.618,CGTgamblingSpanTasks,2022.2.1,MacIntel,60.0024001,,,,,,,,,,,,,,,,,,,,,,,,,,,,,,,,,,,,,,,,,,,,,,,,,,,,,,,,,,,,,,,,,,,,,,,,,,,,,,,,,,"[6,3,7,2,1,5,8,4,9,9,8,6]",6,0,6,0,1,,,,,,,,,,,,,,,,,,,,,,,,,,,,,,,,,,,,,,,,,,,,,,,,
,,60ff1675f00a765cb05017e8,2022-09-08_11h07.35.618,CGTgamblingSpanTasks,2022.2.1,MacIntel,60.0024001,,,,,,,,,,,,,,,,,,,,,,,,,,,,,,,,,,,,,,,,,,,,,,,,,,,,,,,,,,,,,,,,,,,,,,,,,,,,,,,,,,"[6,3,7,2,1,5,8,4,9,9,8,6]",7,0,7,0,1,,,,,,,,,,,,,,,,,,,,,,,,,,,,,,,,,,,,,,,,,,,,,,,,
,,60ff1675f00a765cb05017e8,2022-09-08_11h07.35.618,CGTgamblingSpanTasks,2022.2.1,MacIntel,60.0024001,,,,,,,,,,,,,,,,,,,,,,,,,,,,,,,,,,,,,,,,,,,,,,,,,,,,,,,,,,,,,,,,,,,,,,,,,,,,,,,,,,"[6,3,7,2,1,5,8,4,9,9,8,6]",8,0,8,0,1,,,,,,,,,,,,,,,,,,,,,,,,,,,,,,,,,,,,,,,,,,,,,,,,
,,60ff1675f00a765cb05017e8,2022-09-08_11h07.35.618,CGTgamblingSpanTasks,2022.2.1,MacIntel,60.0024001,,,,,,,,,,,,,,,,,,,,,,,,,,,,,,,,,,,,,,,,,,,,,,,,,,,,,,,,,,,,,,,,,,,,,,,,,,,,,,,,,,"[6,3,7,2,1,5,8,4,9,9,8,6]",9,0,9,0,1,,,,,,,,,,,,,,,,,,,,,,,,,,,,,,,,,,,,,,,,,,,,,,,,
,,60ff1675f00a765cb05017e8,2022-09-08_11h07.35.618,CGTgamblingSpanTasks,2022.2.1,MacIntel,60.0024001,,,,,,,,,,,,,,,,,,,,,,,,,,,,,,,,,,,,,,,,,,,,,,,,,,,,,,,,,,,,,,,,,,,,,,,,,,,,,,,,,,"[6,3,7,2,1,5,8,4,9,9,8,6]",10,0,10,0,1,,,,,,,,,,,,,,,,,,,,,,,,,,,,,,,,,,,,,,,,,,,,,,,,
,,60ff1675f00a765cb05017e8,2022-09-08_11h07.35.618,CGTgamblingSpanTasks,2022.2.1,MacIntel,60.0024001,,,,,,,,,,,,,,,,,,,,,,,,,,,,,,,,,,,,,,,,,,,,,,,,,,,,,,,,,,,,,,,,,,,,,,,,,,,,,,,,,,"[6,3,7,2,1,5,8,4,9,9,8,6]",11,0,11,0,1,,,,,,,,,,,,,,,,,,,,,,,,,,,,,,,,,,,,,,,,,,,,,,,,
,,60ff1675f00a765cb05017e8,2022-09-08_11h07.35.618,CGTgamblingSpanTasks,2022.2.1,MacIntel,60.0024001,,,,,,,,,,,,,,,,,,,,,,,,,,,,,,,,,,,,,,,,,,,,,,,,,,,,,,,,,,,,,,,1,,,,,,,,,,,,,,,,,,,,,,,,,637215849986,0.043823785,-0.399596354,1,0,0,cont_button,0,9,9,9,1,10,,,,,,,,,,,,,,,,,,,,,,,,,,,,,,,,,,,
,,60ff1675f00a765cb05017e8,2022-09-08_11h07.35.618,CGTgamblingSpanTasks,2022.2.1,MacIntel,60.0024001,,,,,,,,,,,,,,,,,,,,,,,,,,,,,,,,,,,,,,,,,,,,,,,,,,,,,,,,,,,,,,,,,,,,,,,,,,,,,,,,,,"[8,3,1,2,7,4,9,6,5,5,1,2,4]",0,0,0,0,1,,,,,,,,,,,,,,,,,,,,,,,,,,,,,,,,,,,,,,,,,,,,,,,,
,,60ff1675f00a765cb05017e8,2022-09-08_11h07.35.618,CGTgamblingSpanTasks,2022.2.1,MacIntel,60.0024001,,,,,,,,,,,,,,,,,,,,,,,,,,,,,,,,,,,,,,,,,,,,,,,,,,,,,,,,,,,,,,,,,,,,,,,,,,,,,,,,,,"[8,3,1,2,7,4,9,6,5,5,1,2,4]",1,0,1,0,1,,,,,,,,,,,,,,,,,,,,,,,,,,,,,,,,,,,,,,,,,,,,,,,,
,,60ff1675f00a765cb05017e8,2022-09-08_11h07.35.618,CGTgamblingSpanTasks,2022.2.1,MacIntel,60.0024001,,,,,,,,,,,,,,,,,,,,,,,,,,,,,,,,,,,,,,,,,,,,,,,,,,,,,,,,,,,,,,,,,,,,,,,,,,,,,,,,,,"[8,3,1,2,7,4,9,6,5,5,1,2,4]",2,0,2,0,1,,,,,,,,,,,,,,,,,,,,,,,,,,,,,,,,,,,,,,,,,,,,,,,,
,,60ff1675f00a765cb05017e8,2022-09-08_11h07.35.618,CGTgamblingSpanTasks,2022.2.1,MacIntel,60.0024001,,,,,,,,,,,,,,,,,,,,,,,,,,,,,,,,,,,,,,,,,,,,,,,,,,,,,,,,,,,,,,,,,,,,,,,,,,,,,,,,,,"[8,3,1,2,7,4,9,6,5,5,1,2,4]",3,0,3,0,1,,,,,,,,,,,,,,,,,,,,,,,,,,,,,,,,,,,,,,,,,,,,,,,,
,,60ff1675f00a765cb05017e8,2022-09-08_11h07.35.618,CGTgamblingSpanTasks,2022.2.1,MacIntel,60.0024001,,,,,,,,,,,,,,,,,,,,,,,,,,,,,,,,,,,,,,,,,,,,,,,,,,,,,,,,,,,,,,,,,,,,,,,,,,,,,,,,,,"[8,3,1,2,7,4,9,6,5,5,1,2,4]",4,0,4,0,1,,,,,,,,,,,,,,,,,,,,,,,,,,,,,,,,,,,,,,,,,,,,,,,,
,,60ff1675f00a765cb05017e8,2022-09-08_11h07.35.618,CGTgamblingSpanTasks,2022.2.1,MacIntel,60.0024001,,,,,,,,,,,,,,,,,,,,,,,,,,,,,,,,,,,,,,,,,,,,,,,,,,,,,,,,,,,,,,,,,,,,,,,,,,,,,,,,,,"[8,3,1,2,7,4,9,6,5,5,1,2,4]",5,0,5,0,1,,,,,,,,,,,,,,,,,,,,,,,,,,,,,,,,,,,,,,,,,,,,,,,,
,,60ff1675f00a765cb05017e8,2022-09-08_11h07.35.618,CGTgamblingSpanTasks,2022.2.1,MacIntel,60.0024001,,,,,,,,,,,,,,,,,,,,,,,,,,,,,,,,,,,,,,,,,,,,,,,,,,,,,,,,,,,,,,,,,,,,,,,,,,,,,,,,,,"[8,3,1,2,7,4,9,6,5,5,1,2,4]",6,0,6,0,1,,,,,,,,,,,,,,,,,,,,,,,,,,,,,,,,,,,,,,,,,,,,,,,,
,,60ff1675f00a765cb05017e8,2022-09-08_11h07.35.618,CGTgamblingSpanTasks,2022.2.1,MacIntel,60.0024001,,,,,,,,,,,,,,,,,,,,,,,,,,,,,,,,,,,,,,,,,,,,,,,,,,,,,,,,,,,,,,,,,,,,,,,,,,,,,,,,,,"[8,3,1,2,7,4,9,6,5,5,1,2,4]",7,0,7,0,1,,,,,,,,,,,,,,,,,,,,,,,,,,,,,,,,,,,,,,,,,,,,,,,,
,,60ff1675f00a765cb05017e8,2022-09-08_11h07.35.618,CGTgamblingSpanTasks,2022.2.1,MacIntel,60.0024001,,,,,,,,,,,,,,,,,,,,,,,,,,,,,,,,,,,,,,,,,,,,,,,,,,,,,,,,,,,,,,,,,,,,,,,,,,,,,,,,,,"[8,3,1,2,7,4,9,6,5,5,1,2,4]",8,0,8,0,1,,,,,,,,,,,,,,,,,,,,,,,,,,,,,,,,,,,,,,,,,,,,,,,,
,,60ff1675f00a765cb05017e8,2022-09-08_11h07.35.618,CGTgamblingSpanTasks,2022.2.1,MacIntel,60.0024001,,,,,,,,,,,,,,,,,,,,,,,,,,,,,,,,,,,,,,,,,,,,,,,,,,,,,,,,,,,,,,,,,,,,,,,,,,,,,,,,,,"[8,3,1,2,7,4,9,6,5,5,1,2,4]",9,0,9,0,1,,,,,,,,,,,,,,,,,,,,,,,,,,,,,,,,,,,,,,,,,,,,,,,,
,,60ff1675f00a765cb05017e8,2022-09-08_11h07.35.618,CGTgamblingSpanTasks,2022.2.1,MacIntel,60.0024001,,,,,,,,,,,,,,,,,,,,,,,,,,,,,,,,,,,,,,,,,,,,,,,,,,,,,,,,,,,,,,,,,,,,,,,,,,,,,,,,,,"[8,3,1,2,7,4,9,6,5,5,1,2,4]",10,0,10,0,1,,,,,,,,,,,,,,,,,,,,,,,,,,,,,,,,,,,,,,,,,,,,,,,,
,,60ff1675f00a765cb05017e8,2022-09-08_11h07.35.618,CGTgamblingSpanTasks,2022.2.1,MacIntel,60.0024001,,,,,,,,,,,,,,,,,,,,,,,,,,,,,,,,,,,,,,,,,,,,,,,,,,,,,,,,,,,,,,,,,,,,,,,,,,,,,,,,,,"[8,3,1,2,7,4,9,6,5,5,1,2,4]",11,0,11,0,1,,,,,,,,,,,,,,,,,,,,,,,,,,,,,,,,,,,,,,,,,,,,,,,,
,,60ff1675f00a765cb05017e8,2022-09-08_11h07.35.618,CGTgamblingSpanTasks,2022.2.1,MacIntel,60.0024001,,,,,,,,,,,,,,,,,,,,,,,,,,,,,,,,,,,,,,,,,,,,,,,,,,,,,,,,,,,,,,,,,,,,,,,,,,,,,,,,,,"[8,3,1,2,7,4,9,6,5,5,1,2,4]",12,0,12,0,1,,,,,,,,,,,,,,,,,,,,,,,,,,,,,,,,,,,,,,,,,,,,,,,,
,,60ff1675f00a765cb05017e8,2022-09-08_11h07.35.618,CGTgamblingSpanTasks,2022.2.1,MacIntel,60.0024001,,,,,,,,,,,,,,,,,,,,,,,,,,,,,,,,,,,,,,,,,,,,,,,,,,,,,,,,,,,,,,,1,,,,,,,,,,,,,,,,,,,,,,,,,8312749655124,0.045946181,-0.398342014,1,0,0,cont_button,0,10,10,10,1,11,,,,,,,,,,,,,,,,,,,,,,,,,,,,,,,,,,,
,,60ff1675f00a765cb05017e8,2022-09-08_11h07.35.618,CGTgamblingSpanTasks,2022.2.1,MacIntel,60.0024001,,,,,,,,,,,,,,,,,,,,,,,,,,,,,,,,,,,,,,,,,,,,,,,,,,,,,,,,,,,,,,,,,,,,,,,,,,,,,,,,,,"[6,9,7,2,1,3,5,8,4,4,1,7,5,6]",0,0,0,0,1,,,,,,,,,,,,,,,,,,,,,,,,,,,,,,,,,,,,,,,,,,,,,,,,
,,60ff1675f00a765cb05017e8,2022-09-08_11h07.35.618,CGTgamblingSpanTasks,2022.2.1,MacIntel,60.0024001,,,,,,,,,,,,,,,,,,,,,,,,,,,,,,,,,,,,,,,,,,,,,,,,,,,,,,,,,,,,,,,,,,,,,,,,,,,,,,,,,,"[6,9,7,2,1,3,5,8,4,4,1,7,5,6]",1,0,1,0,1,,,,,,,,,,,,,,,,,,,,,,,,,,,,,,,,,,,,,,,,,,,,,,,,
,,60ff1675f00a765cb05017e8,2022-09-08_11h07.35.618,CGTgamblingSpanTasks,2022.2.1,MacIntel,60.0024001,,,,,,,,,,,,,,,,,,,,,,,,,,,,,,,,,,,,,,,,,,,,,,,,,,,,,,,,,,,,,,,,,,,,,,,,,,,,,,,,,,"[6,9,7,2,1,3,5,8,4,4,1,7,5,6]",2,0,2,0,1,,,,,,,,,,,,,,,,,,,,,,,,,,,,,,,,,,,,,,,,,,,,,,,,
,,60ff1675f00a765cb05017e8,2022-09-08_11h07.35.618,CGTgamblingSpanTasks,2022.2.1,MacIntel,60.0024001,,,,,,,,,,,,,,,,,,,,,,,,,,,,,,,,,,,,,,,,,,,,,,,,,,,,,,,,,,,,,,,,,,,,,,,,,,,,,,,,,,"[6,9,7,2,1,3,5,8,4,4,1,7,5,6]",3,0,3,0,1,,,,,,,,,,,,,,,,,,,,,,,,,,,,,,,,,,,,,,,,,,,,,,,,
,,60ff1675f00a765cb05017e8,2022-09-08_11h07.35.618,CGTgamblingSpanTasks,2022.2.1,MacIntel,60.0024001,,,,,,,,,,,,,,,,,,,,,,,,,,,,,,,,,,,,,,,,,,,,,,,,,,,,,,,,,,,,,,,,,,,,,,,,,,,,,,,,,,"[6,9,7,2,1,3,5,8,4,4,1,7,5,6]",4,0,4,0,1,,,,,,,,,,,,,,,,,,,,,,,,,,,,,,,,,,,,,,,,,,,,,,,,
,,60ff1675f00a765cb05017e8,2022-09-08_11h07.35.618,CGTgamblingSpanTasks,2022.2.1,MacIntel,60.0024001,,,,,,,,,,,,,,,,,,,,,,,,,,,,,,,,,,,,,,,,,,,,,,,,,,,,,,,,,,,,,,,,,,,,,,,,,,,,,,,,,,"[6,9,7,2,1,3,5,8,4,4,1,7,5,6]",5,0,5,0,1,,,,,,,,,,,,,,,,,,,,,,,,,,,,,,,,,,,,,,,,,,,,,,,,
,,60ff1675f00a765cb05017e8,2022-09-08_11h07.35.618,CGTgamblingSpanTasks,2022.2.1,MacIntel,60.0024001,,,,,,,,,,,,,,,,,,,,,,,,,,,,,,,,,,,,,,,,,,,,,,,,,,,,,,,,,,,,,,,,,,,,,,,,,,,,,,,,,,"[6,9,7,2,1,3,5,8,4,4,1,7,5,6]",6,0,6,0,1,,,,,,,,,,,,,,,,,,,,,,,,,,,,,,,,,,,,,,,,,,,,,,,,
,,60ff1675f00a765cb05017e8,2022-09-08_11h07.35.618,CGTgamblingSpanTasks,2022.2.1,MacIntel,60.0024001,,,,,,,,,,,,,,,,,,,,,,,,,,,,,,,,,,,,,,,,,,,,,,,,,,,,,,,,,,,,,,,,,,,,,,,,,,,,,,,,,,"[6,9,7,2,1,3,5,8,4,4,1,7,5,6]",7,0,7,0,1,,,,,,,,,,,,,,,,,,,,,,,,,,,,,,,,,,,,,,,,,,,,,,,,
,,60ff1675f00a765cb05017e8,2022-09-08_11h07.35.618,CGTgamblingSpanTasks,2022.2.1,MacIntel,60.0024001,,,,,,,,,,,,,,,,,,,,,,,,,,,,,,,,,,,,,,,,,,,,,,,,,,,,,,,,,,,,,,,,,,,,,,,,,,,,,,,,,,"[6,9,7,2,1,3,5,8,4,4,1,7,5,6]",8,0,8,0,1,,,,,,,,,,,,,,,,,,,,,,,,,,,,,,,,,,,,,,,,,,,,,,,,
,,60ff1675f00a765cb05017e8,2022-09-08_11h07.35.618,CGTgamblingSpanTasks,2022.2.1,MacIntel,60.0024001,,,,,,,,,,,,,,,,,,,,,,,,,,,,,,,,,,,,,,,,,,,,,,,,,,,,,,,,,,,,,,,,,,,,,,,,,,,,,,,,,,"[6,9,7,2,1,3,5,8,4,4,1,7,5,6]",9,0,9,0,1,,,,,,,,,,,,,,,,,,,,,,,,,,,,,,,,,,,,,,,,,,,,,,,,
,,60ff1675f00a765cb05017e8,2022-09-08_11h07.35.618,CGTgamblingSpanTasks,2022.2.1,MacIntel,60.0024001,,,,,,,,,,,,,,,,,,,,,,,,,,,,,,,,,,,,,,,,,,,,,,,,,,,,,,,,,,,,,,,,,,,,,,,,,,,,,,,,,,"[6,9,7,2,1,3,5,8,4,4,1,7,5,6]",10,0,10,0,1,,,,,,,,,,,,,,,,,,,,,,,,,,,,,,,,,,,,,,,,,,,,,,,,
,,60ff1675f00a765cb05017e8,2022-09-08_11h07.35.618,CGTgamblingSpanTasks,2022.2.1,MacIntel,60.0024001,,,,,,,,,,,,,,,,,,,,,,,,,,,,,,,,,,,,,,,,,,,,,,,,,,,,,,,,,,,,,,,,,,,,,,,,,,,,,,,,,,"[6,9,7,2,1,3,5,8,4,4,1,7,5,6]",11,0,11,0,1,,,,,,,,,,,,,,,,,,,,,,,,,,,,,,,,,,,,,,,,,,,,,,,,
,,60ff1675f00a765cb05017e8,2022-09-08_11h07.35.618,CGTgamblingSpanTasks,2022.2.1,MacIntel,60.0024001,,,,,,,,,,,,,,,,,,,,,,,,,,,,,,,,,,,,,,,,,,,,,,,,,,,,,,,,,,,,,,,,,,,,,,,,,,,,,,,,,,"[6,9,7,2,1,3,5,8,4,4,1,7,5,6]",12,0,12,0,1,,,,,,,,,,,,,,,,,,,,,,,,,,,,,,,,,,,,,,,,,,,,,,,,
,,60ff1675f00a765cb05017e8,2022-09-08_11h07.35.618,CGTgamblingSpanTasks,2022.2.1,MacIntel,60.0024001,,,,,,,,,,,,,,,,,,,,,,,,,,,,,,,,,,,,,,,,,,,,,,,,,,,,,,,,,,,,,,,,,,,,,,,,,,,,,,,,,,"[6,9,7,2,1,3,5,8,4,4,1,7,5,6]",13,0,13,0,1,,,,,,,,,,,,,,,,,,,,,,,,,,,,,,,,,,,,,,,,,,,,,,,,
,,60ff1675f00a765cb05017e8,2022-09-08_11h07.35.618,CGTgamblingSpanTasks,2022.2.1,MacIntel,60.0024001,,,,,,,,,,,,,,,,,,,,,,,,,,,,,,,,,,,,,,,,,,,,,,,,,,,,,,,,,,,,,,,1,,,,,,,,,,,,,,,,,,,,,,,,,69721358441756,0.009778646,-0.409796007,1,0,0,cont_button,0,11,11,11,1,12,,,,,,,,,,,,,,,,,,,,,,,,,,,,,,,,,,,
,,60ff1675f00a765cb05017e8,2022-09-08_11h07.35.618,CGTgamblingSpanTasks,2022.2.1,MacIntel,60.0024001,,,,,,,,,,,,,,,,,,,,,,,,,,,,,,,,,,,,,,,,,,,,,,,,,,,,,,,,,,,,,,,,,,,,,,,,,,,,,,,,,,"[5,1,2,4,8,6,9,3,7,7,3,8,9,1,4]",0,0,0,0,1,,,,,,,,,,,,,,,,,,,,,,,,,,,,,,,,,,,,,,,,,,,,,,,,
,,60ff1675f00a765cb05017e8,2022-09-08_11h07.35.618,CGTgamblingSpanTasks,2022.2.1,MacIntel,60.0024001,,,,,,,,,,,,,,,,,,,,,,,,,,,,,,,,,,,,,,,,,,,,,,,,,,,,,,,,,,,,,,,,,,,,,,,,,,,,,,,,,,"[5,1,2,4,8,6,9,3,7,7,3,8,9,1,4]",1,0,1,0,1,,,,,,,,,,,,,,,,,,,,,,,,,,,,,,,,,,,,,,,,,,,,,,,,
,,60ff1675f00a765cb05017e8,2022-09-08_11h07.35.618,CGTgamblingSpanTasks,2022.2.1,MacIntel,60.0024001,,,,,,,,,,,,,,,,,,,,,,,,,,,,,,,,,,,,,,,,,,,,,,,,,,,,,,,,,,,,,,,,,,,,,,,,,,,,,,,,,,"[5,1,2,4,8,6,9,3,7,7,3,8,9,1,4]",2,0,2,0,1,,,,,,,,,,,,,,,,,,,,,,,,,,,,,,,,,,,,,,,,,,,,,,,,
,,60ff1675f00a765cb05017e8,2022-09-08_11h07.35.618,CGTgamblingSpanTasks,2022.2.1,MacIntel,60.0024001,,,,,,,,,,,,,,,,,,,,,,,,,,,,,,,,,,,,,,,,,,,,,,,,,,,,,,,,,,,,,,,,,,,,,,,,,,,,,,,,,,"[5,1,2,4,8,6,9,3,7,7,3,8,9,1,4]",3,0,3,0,1,,,,,,,,,,,,,,,,,,,,,,,,,,,,,,,,,,,,,,,,,,,,,,,,
,,60ff1675f00a765cb05017e8,2022-09-08_11h07.35.618,CGTgamblingSpanTasks,2022.2.1,MacIntel,60.0024001,,,,,,,,,,,,,,,,,,,,,,,,,,,,,,,,,,,,,,,,,,,,,,,,,,,,,,,,,,,,,,,,,,,,,,,,,,,,,,,,,,"[5,1,2,4,8,6,9,3,7,7,3,8,9,1,4]",4,0,4,0,1,,,,,,,,,,,,,,,,,,,,,,,,,,,,,,,,,,,,,,,,,,,,,,,,
,,60ff1675f00a765cb05017e8,2022-09-08_11h07.35.618,CGTgamblingSpanTasks,2022.2.1,MacIntel,60.0024001,,,,,,,,,,,,,,,,,,,,,,,,,,,,,,,,,,,,,,,,,,,,,,,,,,,,,,,,,,,,,,,,,,,,,,,,,,,,,,,,,,"[5,1,2,4,8,6,9,3,7,7,3,8,9,1,4]",5,0,5,0,1,,,,,,,,,,,,,,,,,,,,,,,,,,,,,,,,,,,,,,,,,,,,,,,,
,,60ff1675f00a765cb05017e8,2022-09-08_11h07.35.618,CGTgamblingSpanTasks,2022.2.1,MacIntel,60.0024001,,,,,,,,,,,,,,,,,,,,,,,,,,,,,,,,,,,,,,,,,,,,,,,,,,,,,,,,,,,,,,,,,,,,,,,,,,,,,,,,,,"[5,1,2,4,8,6,9,3,7,7,3,8,9,1,4]",6,0,6,0,1,,,,,,,,,,,,,,,,,,,,,,,,,,,,,,,,,,,,,,,,,,,,,,,,
,,60ff1675f00a765cb05017e8,2022-09-08_11h07.35.618,CGTgamblingSpanTasks,2022.2.1,MacIntel,60.0024001,,,,,,,,,,,,,,,,,,,,,,,,,,,,,,,,,,,,,,,,,,,,,,,,,,,,,,,,,,,,,,,,,,,,,,,,,,,,,,,,,,"[5,1,2,4,8,6,9,3,7,7,3,8,9,1,4]",7,0,7,0,1,,,,,,,,,,,,,,,,,,,,,,,,,,,,,,,,,,,,,,,,,,,,,,,,
,,60ff1675f00a765cb05017e8,2022-09-08_11h07.35.618,CGTgamblingSpanTasks,2022.2.1,MacIntel,60.0024001,,,,,,,,,,,,,,,,,,,,,,,,,,,,,,,,,,,,,,,,,,,,,,,,,,,,,,,,,,,,,,,,,,,,,,,,,,,,,,,,,,"[5,1,2,4,8,6,9,3,7,7,3,8,9,1,4]",8,0,8,0,1,,,,,,,,,,,,,,,,,,,,,,,,,,,,,,,,,,,,,,,,,,,,,,,,
,,60ff1675f00a765cb05017e8,2022-09-08_11h07.35.618,CGTgamblingSpanTasks,2022.2.1,MacIntel,60.0024001,,,,,,,,,,,,,,,,,,,,,,,,,,,,,,,,,,,,,,,,,,,,,,,,,,,,,,,,,,,,,,,,,,,,,,,,,,,,,,,,,,"[5,1,2,4,8,6,9,3,7,7,3,8,9,1,4]",9,0,9,0,1,,,,,,,,,,,,,,,,,,,,,,,,,,,,,,,,,,,,,,,,,,,,,,,,
,,60ff1675f00a765cb05017e8,2022-09-08_11h07.35.618,CGTgamblingSpanTasks,2022.2.1,MacIntel,60.0024001,,,,,,,,,,,,,,,,,,,,,,,,,,,,,,,,,,,,,,,,,,,,,,,,,,,,,,,,,,,,,,,,,,,,,,,,,,,,,,,,,,"[5,1,2,4,8,6,9,3,7,7,3,8,9,1,4]",10,0,10,0,1,,,,,,,,,,,,,,,,,,,,,,,,,,,,,,,,,,,,,,,,,,,,,,,,
,,60ff1675f00a765cb05017e8,2022-09-08_11h07.35.618,CGTgamblingSpanTasks,2022.2.1,MacIntel,60.0024001,,,,,,,,,,,,,,,,,,,,,,,,,,,,,,,,,,,,,,,,,,,,,,,,,,,,,,,,,,,,,,,,,,,,,,,,,,,,,,,,,,"[5,1,2,4,8,6,9,3,7,7,3,8,9,1,4]",11,0,11,0,1,,,,,,,,,,,,,,,,,,,,,,,,,,,,,,,,,,,,,,,,,,,,,,,,
,,60ff1675f00a765cb05017e8,2022-09-08_11h07.35.618,CGTgamblingSpanTasks,2022.2.1,MacIntel,60.0024001,,,,,,,,,,,,,,,,,,,,,,,,,,,,,,,,,,,,,,,,,,,,,,,,,,,,,,,,,,,,,,,,,,,,,,,,,,,,,,,,,,"[5,1,2,4,8,6,9,3,7,7,3,8,9,1,4]",12,0,12,0,1,,,,,,,,,,,,,,,,,,,,,,,,,,,,,,,,,,,,,,,,,,,,,,,,
,,60ff1675f00a765cb05017e8,2022-09-08_11h07.35.618,CGTgamblingSpanTasks,2022.2.1,MacIntel,60.0024001,,,,,,,,,,,,,,,,,,,,,,,,,,,,,,,,,,,,,,,,,,,,,,,,,,,,,,,,,,,,,,,,,,,,,,,,,,,,,,,,,,"[5,1,2,4,8,6,9,3,7,7,3,8,9,1,4]",13,0,13,0,1,,,,,,,,,,,,,,,,,,,,,,,,,,,,,,,,,,,,,,,,,,,,,,,,
,,60ff1675f00a765cb05017e8,2022-09-08_11h07.35.618,CGTgamblingSpanTasks,2022.2.1,MacIntel,60.0024001,,,,,,,,,,,,,,,,,,,,,,,,,,,,,,,,,,,,,,,,,,,,,,,,,,,,,,,,,,,,,,,,,,,,,,,,,,,,,,,,,,"[5,1,2,4,8,6,9,3,7,7,3,8,9,1,4]",14,0,14,0,1,,,,,,,,,,,,,,,,,,,,,,,,,,,,,,,,,,,,,,,,,,,,,,,,
,,60ff1675f00a765cb05017e8,2022-09-08_11h07.35.618,CGTgamblingSpanTasks,2022.2.1,MacIntel,60.0024001,,,,,,,,,,,,,,,,,,,,,,,,,,,,,,,,,,,,,,,,,,,,,,,,,,,,,,,,,,,,,,,1,,,,,,,,,,,,,,,,,,,,,,,,,512486937738914,-0.026302083,-0.394301215,1,0,0,cont_button,0,12,12,12,1,13,,,,,,,,,,,,,,,,,,,,,,,,,,,,,,,,,,,
,,60ff1675f00a765cb05017e8,2022-09-08_11h07.35.618,CGTgamblingSpanTasks,2022.2.1,MacIntel,60.0024001,,,,,,,,,,,,,,,,,,,,,,,,,,,,,,,,,,,,,,,,,,,,,,,,,,,,,,,,,,,,,,,,,,,,,,,,,,,,,,,,,,"[3,6,5,2,9,7,8,4,1,1,4,2,7,6,8,3]",0,0,0,0,1,,,,,,,,,,,,,,,,,,,,,,,,,,,,,,,,,,,,,,,,,,,,,,,,
,,60ff1675f00a765cb05017e8,2022-09-08_11h07.35.618,CGTgamblingSpanTasks,2022.2.1,MacIntel,60.0024001,,,,,,,,,,,,,,,,,,,,,,,,,,,,,,,,,,,,,,,,,,,,,,,,,,,,,,,,,,,,,,,,,,,,,,,,,,,,,,,,,,"[3,6,5,2,9,7,8,4,1,1,4,2,7,6,8,3]",1,0,1,0,1,,,,,,,,,,,,,,,,,,,,,,,,,,,,,,,,,,,,,,,,,,,,,,,,
,,60ff1675f00a765cb05017e8,2022-09-08_11h07.35.618,CGTgamblingSpanTasks,2022.2.1,MacIntel,60.0024001,,,,,,,,,,,,,,,,,,,,,,,,,,,,,,,,,,,,,,,,,,,,,,,,,,,,,,,,,,,,,,,,,,,,,,,,,,,,,,,,,,"[3,6,5,2,9,7,8,4,1,1,4,2,7,6,8,3]",2,0,2,0,1,,,,,,,,,,,,,,,,,,,,,,,,,,,,,,,,,,,,,,,,,,,,,,,,
,,60ff1675f00a765cb05017e8,2022-09-08_11h07.35.618,CGTgamblingSpanTasks,2022.2.1,MacIntel,60.0024001,,,,,,,,,,,,,,,,,,,,,,,,,,,,,,,,,,,,,,,,,,,,,,,,,,,,,,,,,,,,,,,,,,,,,,,,,,,,,,,,,,"[3,6,5,2,9,7,8,4,1,1,4,2,7,6,8,3]",3,0,3,0,1,,,,,,,,,,,,,,,,,,,,,,,,,,,,,,,,,,,,,,,,,,,,,,,,
,,60ff1675f00a765cb05017e8,2022-09-08_11h07.35.618,CGTgamblingSpanTasks,2022.2.1,MacIntel,60.0024001,,,,,,,,,,,,,,,,,,,,,,,,,,,,,,,,,,,,,,,,,,,,,,,,,,,,,,,,,,,,,,,,,,,,,,,,,,,,,,,,,,"[3,6,5,2,9,7,8,4,1,1,4,2,7,6,8,3]",4,0,4,0,1,,,,,,,,,,,,,,,,,,,,,,,,,,,,,,,,,,,,,,,,,,,,,,,,
,,60ff1675f00a765cb05017e8,2022-09-08_11h07.35.618,CGTgamblingSpanTasks,2022.2.1,MacIntel,60.0024001,,,,,,,,,,,,,,,,,,,,,,,,,,,,,,,,,,,,,,,,,,,,,,,,,,,,,,,,,,,,,,,,,,,,,,,,,,,,,,,,,,"[3,6,5,2,9,7,8,4,1,1,4,2,7,6,8,3]",5,0,5,0,1,,,,,,,,,,,,,,,,,,,,,,,,,,,,,,,,,,,,,,,,,,,,,,,,
,,60ff1675f00a765cb05017e8,2022-09-08_11h07.35.618,CGTgamblingSpanTasks,2022.2.1,MacIntel,60.0024001,,,,,,,,,,,,,,,,,,,,,,,,,,,,,,,,,,,,,,,,,,,,,,,,,,,,,,,,,,,,,,,,,,,,,,,,,,,,,,,,,,"[3,6,5,2,9,7,8,4,1,1,4,2,7,6,8,3]",6,0,6,0,1,,,,,,,,,,,,,,,,,,,,,,,,,,,,,,,,,,,,,,,,,,,,,,,,
,,60ff1675f00a765cb05017e8,2022-09-08_11h07.35.618,CGTgamblingSpanTasks,2022.2.1,MacIntel,60.0024001,,,,,,,,,,,,,,,,,,,,,,,,,,,,,,,,,,,,,,,,,,,,,,,,,,,,,,,,,,,,,,,,,,,,,,,,,,,,,,,,,,"[3,6,5,2,9,7,8,4,1,1,4,2,7,6,8,3]",7,0,7,0,1,,,,,,,,,,,,,,,,,,,,,,,,,,,,,,,,,,,,,,,,,,,,,,,,
,,60ff1675f00a765cb05017e8,2022-09-08_11h07.35.618,CGTgamblingSpanTasks,2022.2.1,MacIntel,60.0024001,,,,,,,,,,,,,,,,,,,,,,,,,,,,,,,,,,,,,,,,,,,,,,,,,,,,,,,,,,,,,,,,,,,,,,,,,,,,,,,,,,"[3,6,5,2,9,7,8,4,1,1,4,2,7,6,8,3]",8,0,8,0,1,,,,,,,,,,,,,,,,,,,,,,,,,,,,,,,,,,,,,,,,,,,,,,,,
,,60ff1675f00a765cb05017e8,2022-09-08_11h07.35.618,CGTgamblingSpanTasks,2022.2.1,MacIntel,60.0024001,,,,,,,,,,,,,,,,,,,,,,,,,,,,,,,,,,,,,,,,,,,,,,,,,,,,,,,,,,,,,,,,,,,,,,,,,,,,,,,,,,"[3,6,5,2,9,7,8,4,1,1,4,2,7,6,8,3]",9,0,9,0,1,,,,,,,,,,,,,,,,,,,,,,,,,,,,,,,,,,,,,,,,,,,,,,,,
,,60ff1675f00a765cb05017e8,2022-09-08_11h07.35.618,CGTgamblingSpanTasks,2022.2.1,MacIntel,60.0024001,,,,,,,,,,,,,,,,,,,,,,,,,,,,,,,,,,,,,,,,,,,,,,,,,,,,,,,,,,,,,,,,,,,,,,,,,,,,,,,,,,"[3,6,5,2,9,7,8,4,1,1,4,2,7,6,8,3]",10,0,10,0,1,,,,,,,,,,,,,,,,,,,,,,,,,,,,,,,,,,,,,,,,,,,,,,,,
,,60ff1675f00a765cb05017e8,2022-09-08_11h07.35.618,CGTgamblingSpanTasks,2022.2.1,MacIntel,60.0024001,,,,,,,,,,,,,,,,,,,,,,,,,,,,,,,,,,,,,,,,,,,,,,,,,,,,,,,,,,,,,,,,,,,,,,,,,,,,,,,,,,"[3,6,5,2,9,7,8,4,1,1,4,2,7,6,8,3]",11,0,11,0,1,,,,,,,,,,,,,,,,,,,,,,,,,,,,,,,,,,,,,,,,,,,,,,,,
,,60ff1675f00a765cb05017e8,2022-09-08_11h07.35.618,CGTgamblingSpanTasks,2022.2.1,MacIntel,60.0024001,,,,,,,,,,,,,,,,,,,,,,,,,,,,,,,,,,,,,,,,,,,,,,,,,,,,,,,,,,,,,,,,,,,,,,,,,,,,,,,,,,"[3,6,5,2,9,7,8,4,1,1,4,2,7,6,8,3]",12,0,12,0,1,,,,,,,,,,,,,,,,,,,,,,,,,,,,,,,,,,,,,,,,,,,,,,,,
,,60ff1675f00a765cb05017e8,2022-09-08_11h07.35.618,CGTgamblingSpanTasks,2022.2.1,MacIntel,60.0024001,,,,,,,,,,,,,,,,,,,,,,,,,,,,,,,,,,,,,,,,,,,,,,,,,,,,,,,,,,,,,,,,,,,,,,,,,,,,,,,,,,"[3,6,5,2,9,7,8,4,1,1,4,2,7,6,8,3]",13,0,13,0,1,,,,,,,,,,,,,,,,,,,,,,,,,,,,,,,,,,,,,,,,,,,,,,,,
,,60ff1675f00a765cb05017e8,2022-09-08_11h07.35.618,CGTgamblingSpanTasks,2022.2.1,MacIntel,60.0024001,,,,,,,,,,,,,,,,,,,,,,,,,,,,,,,,,,,,,,,,,,,,,,,,,,,,,,,,,,,,,,,,,,,,,,,,,,,,,,,,,,"[3,6,5,2,9,7,8,4,1,1,4,2,7,6,8,3]",14,0,14,0,1,,,,,,,,,,,,,,,,,,,,,,,,,,,,,,,,,,,,,,,,,,,,,,,,
,,60ff1675f00a765cb05017e8,2022-09-08_11h07.35.618,CGTgamblingSpanTasks,2022.2.1,MacIntel,60.0024001,,,,,,,,,,,,,,,,,,,,,,,,,,,,,,,,,,,,,,,,,,,,,,,,,,,,,,,,,,,,,,,,,,,,,,,,,,,,,,,,,,"[3,6,5,2,9,7,8,4,1,1,4,2,7,6,8,3]",15,0,15,0,1,,,,,,,,,,,,,,,,,,,,,,,,,,,,,,,,,,,,,,,,,,,,,,,,
,,60ff1675f00a765cb05017e8,2022-09-08_11h07.35.618,CGTgamblingSpanTasks,2022.2.1,MacIntel,60.0024001,,,,,,,,,,,,,,,,,,,,,,,,,,,,,,,,,,,,,,,,,,,,,,,,,,,,,,,,,,,,,,,1,,,,,,,,,,,,,,,,,,,,,,,,,3652978411427683,-0.011141493,-0.391731771,1,0,0,cont_button,0,13,13,13,1,14,,,,,,,,,,,,,,,,,,,,,,,,,,,,,,,,,,,
,,60ff1675f00a765cb05017e8,2022-09-08_11h07.35.618,CGTgamblingSpanTasks,2022.2.1,MacIntel,60.0024001,,,,,,,,,,,,,,,,,,,,,,,,,,,,,,,,,,,,,,,,,,,,,,,,,,,,,,,,,,,,,,,,,,,,,,,,,,,,,,,,,,,,,,,,,,,,,,,,,,,,,return,8.3816,,,,,,,,,,,,,,,,,,,,,,,,,,,,,,,,,
,,60ff1675f00a765cb05017e8,2022-09-08_11h07.35.618,CGTgamblingSpanTasks,2022.2.1,MacIntel,60.0024001,,,,,,,,,,,,,,,,,,,,,,,,,,,,,,,,,,,,,,,,,,,,,,,,,,,,,,,,,,,,,,,,,,,,,,,,,,,,,,,,,,,,,,,,,,,,,,,,,,,,,,,return,34.856,,,,,,,,,,,,,,,,,,,,,,,,,,,,,,,
,,60ff1675f00a765cb05017e8,2022-09-08_11h07.35.618,CGTgamblingSpanTasks,2022.2.1,MacIntel,60.0024001,,,,,,,,,,,,,,,,,,,,,,,,,,,,,,,,,,,,,,,,,,,,,,,,,,,,,,,,,,,,,,,1,,,,,,,,,,,,3,342,24,2,42,,,,,,,,,,,,,,,,,,,,,,,,,,42,0.089309896,-0.426310764,1,0,0,cont_buttonPractice_2,0,0,0,0,1,,,,,,,,,,,,,,,,,,,
,,60ff1675f00a765cb05017e8,2022-09-08_11h07.35.618,CGTgamblingSpanTasks,2022.2.1,MacIntel,60.0024001,,,,,,,,,,,,,,,,,,,,,,,,,,,,,,,,,,,,,,,,,,,,,,,,,,,,,,,,,,,,,,,1,,,,,,,,,,,,3,937,73,2,37,,,,,,,,,,,,,,,,,,,,,,,,,,37,0.032452257,-0.415434028,1,0,0,cont_buttonPractice_2,0,1,1,1,1,,,,,,,,,,,,,,,,,,,
