initITIstatic,initITIdynamic,participant,date,expName,psychopyVersion,OS,frameRate,inst1.keys,inst1.rt,startPracResp.keys,startPracResp.rt,choice1.keys,choice1.rt,outcome,extraITI,trials.thisRepN,trials.thisTrialN,trials.thisN,trials.thisIndex,trials.ran,riskyGain,riskyLoss,alternative,isi,iti,loc,postPractResp.keys,postPractResp.rt,realloc,realChoice.keys,realChoice.rt,outcomes,choices,actualITI,init ITI,staticRDM.thisRepN,staticRDM.thisTrialN,staticRDM.thisN,staticRDM.thisIndex,staticRDM.ran,riskyoption1,riskyoption2,safeoption,ischecktrial,dynamicChoiceSetName,dynamicChoiceSetPath,bestRho,bestMu,trials_2.thisRepN,trials_2.thisTrialN,trials_2.thisN,trials_2.thisIndex,trials_2.ran,key_resp.keys,key_resp.rt,dynamicRDM.thisRepN,dynamicRDM.thisTrialN,dynamicRDM.thisN,dynamicRDM.thisIndex,dynamicRDM.ran,choiceP,easy0difficult1,stopBreak.keys,stopBreak.rt,movealong.keys,movealong.rt,startPractice.keys,startPractice.rt,textboxPractice.text,correct,mousePractice.x,mousePractice.y,mousePractice.leftButton,mousePractice.midButton,mousePractice.rightButton,mousePractice.clicked_name,trialFSPractice.thisRepN,trialFSPractice.thisTrialN,trialFSPractice.thisN,trialFSPractice.thisIndex,trialFSPractice.ran,digitSpanForward,digits,digitsReverse,digitSpanReverse,digitsReverseCorrAnswer,startFSreal.keys,startFSreal.rt,digitsForTrial,digitLoop.thisRepN,digitLoop.thisTrialN,digitLoop.thisN,digitLoop.thisIndex,digitLoop.ran,textbox.text,mouse_3.x,mouse_3.y,mouse_3.leftButton,mouse_3.midButton,mouse_3.rightButton,mouse_3.clicked_name,trialsFS.thisRepN,trialsFS.thisTrialN,trialsFS.thisN,trialsFS.thisIndex,trialsFS.ran,trialNumber,moveToBS.keys,moveToBS.rt,startBSprac.keys,startBSprac.rt,textboxPractice_2.text,mousePractice_2.x,mousePractice_2.y,mousePractice_2.leftButton,mousePractice_2.midButton,mousePractice_2.rightButton,mousePractice_2.clicked_name,trialsPracticeBS.thisRepN,trialsPracticeBS.thisTrialN,trialsPracticeBS.thisN,trialsPracticeBS.thisIndex,trialsPracticeBS.ran,startBSreal.keys,startBSreal.rt,digitLoopBS.thisRepN,digitLoopBS.thisTrialN,digitLoopBS.thisN,digitLoopBS.thisIndex,digitLoopBS.ran,textboxBS.text,mouseBS.x,mouseBS.y,mouseBS.leftButton,mouseBS.midButton,mouseBS.rightButton,mouseBS.clicked_name,trialsBS.thisRepN,trialsBS.thisTrialN,trialsBS.thisN,trialsBS.thisIndex,trialsBS.ran
"[1,1.5,1.5,1,1.5,1.5,1.5,1.5,1,1.5,1.5,1,1.5,1.5,1.5,1.5,1.5,1,1.5,1,1,1,1.5,1.5,1,1,1,1.5,1,1,1,1,1,1,1,1,1.5,1,1.5,1,1,1.5,1,1.5,1.5,1.5,1,1.5,1,1.5]","[1,1.5,1,1,1.5,1,1.5,1.5,1,1,1,1,1,1,1.5,1.5,1.5,1,1,1,1.5,1.5,1.5,1.5,1,1.5,1,1.5,1,1,1,1.5,1.5,1,1.5,1,1,1,1.5,1.5,1,1,1,1.5,1,1,1.5,1,1,1,1,1,1.5,1.5,1.5,1,1,1.5,1,1.5,1,1,1.5,1,1.5,1.5,1.5,1,1,1.5,1,1,1.5,1.5,1.5,1.5,1,1.5,1.5,1.5,1.5,1.5,1,1.5,1,1,1.5,1.5,1,1.5,1,1,1,1,1.5,1.5,1.5,1,1,1.5,1.5,1,1,1.5,1.5,1.5,1.5,1.5,1,1.5,1.5,1,1.5,1,1.5,1.5,1.5,1,1,1.5]",56514c84715ff50011a43878,2022-09-08_13h56.18.623,CGTgamblingSpanTasks,2022.2.1,Linux x86_64,60.04924038,,,,,,,,,,,,,,,,,,,,,,,,,,,,,,,,,,,,,,,,,,,,,,,,,,,,,,,,,,,,,,,,,,,,,,,,,,,,,,,,,,,,,,,,,,,,,,,,,,,,,,,,,,,,,,,,,,,,,,,,,,,,,,,,,,,,,,,
,,56514c84715ff50011a43878,2022-09-08_13h56.18.623,CGTgamblingSpanTasks,2022.2.1,Linux x86_64,60.04924038,return,2.0176,,,,,,,,,,,,,,,,,,,,,,,,,,,,,,,,,,,,,,,,,,,,,,,,,,,,,,,,,,,,,,,,,,,,,,,,,,,,,,,,,,,,,,,,,,,,,,,,,,,,,,,,,,,,,,,,,,,,,,,,,,,,,,,,,,,,,
,,56514c84715ff50011a43878,2022-09-08_13h56.18.623,CGTgamblingSpanTasks,2022.2.1,Linux x86_64,60.04924038,,,v,1.0494,,,,,,,,,,,,,,,,,,,,,,,,,,,,,,,,,,,,,,,,,,,,,,,,,,,,,,,,,,,,,,,,,,,,,,,,,,,,,,,,,,,,,,,,,,,,,,,,,,,,,,,,,,,,,,,,,,,,,,,,,,,,,,,,,,,
,,56514c84715ff50011a43878,2022-09-08_13h56.18.623,CGTgamblingSpanTasks,2022.2.1,Linux x86_64,60.04924038,,,,,n,1.6192,9.45,2.3808,0,0,0,0,1,18.23,0,9.45,2,1,1,,,,,,,,,,,,,,,,,,,,,,,,,,,,,,,,,,,,,,,,,,,,,,,,,,,,,,,,,,,,,,,,,,,,,,,,,,,,,,,,,,,,,,,,,,,,,,,,,,,,,,,,,,,,,,,,,,,,
,,56514c84715ff50011a43878,2022-09-08_13h56.18.623,CGTgamblingSpanTasks,2022.2.1,Linux x86_64,60.04924038,,,,,n,1.4011,35.16,2.5989,0,1,1,1,1,53.27,0,35.16,1,1.5,1,,,,,,,,,,,,,,,,,,,,,,,,,,,,,,,,,,,,,,,,,,,,,,,,,,,,,,,,,,,,,,,,,,,,,,,,,,,,,,,,,,,,,,,,,,,,,,,,,,,,,,,,,,,,,,,,,,,,
,,56514c84715ff50011a43878,2022-09-08_13h56.18.623,CGTgamblingSpanTasks,2022.2.1,Linux x86_64,60.04924038,,,,,n,1.9828,8.27,2.0172,0,2,2,2,1,8.27,0,1.15,1,1.5,2,,,,,,,,,,,,,,,,,,,,,,,,,,,,,,,,,,,,,,,,,,,,,,,,,,,,,,,,,,,,,,,,,,,,,,,,,,,,,,,,,,,,,,,,,,,,,,,,,,,,,,,,,,,,,,,,,,,,
,,56514c84715ff50011a43878,2022-09-08_13h56.18.623,CGTgamblingSpanTasks,2022.2.1,Linux x86_64,60.04924038,,,,,n,1.2405,40.41,2.7595,0,3,3,3,1,45.88,0,40.41,3,1,1,,,,,,,,,,,,,,,,,,,,,,,,,,,,,,,,,,,,,,,,,,,,,,,,,,,,,,,,,,,,,,,,,,,,,,,,,,,,,,,,,,,,,,,,,,,,,,,,,,,,,,,,,,,,,,,,,,,,
,,56514c84715ff50011a43878,2022-09-08_13h56.18.623,CGTgamblingSpanTasks,2022.2.1,Linux x86_64,60.04924038,,,,,v,1.1998,11.96,2.8002,0,4,4,4,1,21.56,0,11.96,1,1.5,2,,,,,,,,,,,,,,,,,,,,,,,,,,,,,,,,,,,,,,,,,,,,,,,,,,,,,,,,,,,,,,,,,,,,,,,,,,,,,,,,,,,,,,,,,,,,,,,,,,,,,,,,,,,,,,,,,,,,
,,56514c84715ff50011a43878,2022-09-08_13h56.18.623,CGTgamblingSpanTasks,2022.2.1,Linux x86_64,60.04924038,,,,,,,,,,,,,,,,,,,,v,3.7517,,,,,,,,,,,,,,,,,,,,,,,,,,,,,,,,,,,,,,,,,,,,,,,,,,,,,,,,,,,,,,,,,,,,,,,,,,,,,,,,,,,,,,,,,,,,,,,,,,,,,,,,,,,,,,,,,,
,,56514c84715ff50011a43878,2022-09-08_13h56.18.623,CGTgamblingSpanTasks,2022.2.1,Linux x86_64,60.04924038,,,,,,,,2.9271,,,,,,,,,,,,,,1,v,1.0729,10.35,1,3.9271,1,0,0,0,40,1,10.35,0,0,1,,,,,,,,,,,,,,,,,,,,,,,,,,,,,,,,,,,,,,,,,,,,,,,,,,,,,,,,,,,,,,,,,,,,,,,,,,,,,,,,,,,,,,,,,,,,,,,,,,
,,56514c84715ff50011a43878,2022-09-08_13h56.18.623,CGTgamblingSpanTasks,2022.2.1,Linux x86_64,60.04924038,,,,,,,,2.7825,,,,,,,,,,,,,,2,v,1.2175,6.53,0,4.2825,1.5,0,1,1,28,1,10.95,0,6.53,0,,,,,,,,,,,,,,,,,,,,,,,,,,,,,,,,,,,,,,,,,,,,,,,,,,,,,,,,,,,,,,,,,,,,,,,,,,,,,,,,,,,,,,,,,,,,,,,,,,
,,56514c84715ff50011a43878,2022-09-08_13h56.18.623,CGTgamblingSpanTasks,2022.2.1,Linux x86_64,60.04924038,,,,,,,,2.3826,,,,,,,,,,,,,,1,v,1.6174,0,1,3.8826,1.5,0,2,2,18,1,12.08,0,5.96,0,,,,,,,,,,,,,,,,,,,,,,,,,,,,,,,,,,,,,,,,,,,,,,,,,,,,,,,,,,,,,,,,,,,,,,,,,,,,,,,,,,,,,,,,,,,,,,,,,,
,,56514c84715ff50011a43878,2022-09-08_13h56.18.623,CGTgamblingSpanTasks,2022.2.1,Linux x86_64,60.04924038,,,,,,,,2.852,,,,,,,,,,,,,,2,v,1.148,6.81,0,3.852,1,0,3,3,34,1,10.39,0,6.81,0,,,,,,,,,,,,,,,,,,,,,,,,,,,,,,,,,,,,,,,,,,,,,,,,,,,,,,,,,,,,,,,,,,,,,,,,,,,,,,,,,,,,,,,,,,,,,,,,,,
,,56514c84715ff50011a43878,2022-09-08_13h56.18.623,CGTgamblingSpanTasks,2022.2.1,Linux x86_64,60.04924038,,,,,,,,2.7829,,,,,,,,,,,,,,2,n,1.2171,0,1,4.2829,1.5,0,4,4,12,1,13.04,0,5.48,0,,,,,,,,,,,,,,,,,,,,,,,,,,,,,,,,,,,,,,,,,,,,,,,,,,,,,,,,,,,,,,,,,,,,,,,,,,,,,,,,,,,,,,,,,,,,,,,,,,
,,56514c84715ff50011a43878,2022-09-08_13h56.18.623,CGTgamblingSpanTasks,2022.2.1,Linux x86_64,60.04924038,,,,,,,,3.0247,,,,,,,,,,,,,,2,n,0.9753,13.94,1,4.5247,1.5,0,5,5,8,1,13.94,0,5.03,0,,,,,,,,,,,,,,,,,,,,,,,,,,,,,,,,,,,,,,,,,,,,,,,,,,,,,,,,,,,,,,,,,,,,,,,,,,,,,,,,,,,,,,,,,,,,,,,,,,
,,56514c84715ff50011a43878,2022-09-08_13h56.18.623,CGTgamblingSpanTasks,2022.2.1,Linux x86_64,60.04924038,,,,,,,,2.9552,,,,,,,,,,,,,,1,v,1.0448,28.21,1,4.4552,1.5,0,6,6,1,1,28.21,0,3.89,0,,,,,,,,,,,,,,,,,,,,,,,,,,,,,,,,,,,,,,,,,,,,,,,,,,,,,,,,,,,,,,,,,,,,,,,,,,,,,,,,,,,,,,,,,,,,,,,,,,
,,56514c84715ff50011a43878,2022-09-08_13h56.18.623,CGTgamblingSpanTasks,2022.2.1,Linux x86_64,60.04924038,,,,,,,,2.9995,,,,,,,,,,,,,,1,v,1.0005,0,1,4.4995,1.5,0,7,7,5,1,22.97,0,6.51,0,,,,,,,,,,,,,,,,,,,,,,,,,,,,,,,,,,,,,,,,,,,,,,,,,,,,,,,,,,,,,,,,,,,,,,,,,,,,,,,,,,,,,,,,,,,,,,,,,,
,,56514c84715ff50011a43878,2022-09-08_13h56.18.623,CGTgamblingSpanTasks,2022.2.1,Linux x86_64,60.04924038,,,,,,,,2.8996,,,,,,,,,,,,,,1,n,1.1004,5.82,0,3.8996,1,0,8,8,16,1,12.36,0,5.82,0,,,,,,,,,,,,,,,,,,,,,,,,,,,,,,,,,,,,,,,,,,,,,,,,,,,,,,,,,,,,,,,,,,,,,,,,,,,,,,,,,,,,,,,,,,,,,,,,,,
,,56514c84715ff50011a43878,2022-09-08_13h56.18.623,CGTgamblingSpanTasks,2022.2.1,Linux x86_64,60.04924038,,,,,,,,3.232,,,,,,,,,,,,,,2,n,0.768,0,1,4.732,1.5,0,9,9,41,1,14.26,0,0,1,,,,,,,,,,,,,,,,,,,,,,,,,,,,,,,,,,,,,,,,,,,,,,,,,,,,,,,,,,,,,,,,,,,,,,,,,,,,,,,,,,,,,,,,,,,,,,,,,,
,,56514c84715ff50011a43878,2022-09-08_13h56.18.623,CGTgamblingSpanTasks,2022.2.1,Linux x86_64,60.04924038,,,,,,,,3.0312,,,,,,,,,,,,,,2,n,0.9688,15.96,1,4.5312,1.5,0,10,10,31,1,15.96,0,10.02,0,,,,,,,,,,,,,,,,,,,,,,,,,,,,,,,,,,,,,,,,,,,,,,,,,,,,,,,,,,,,,,,,,,,,,,,,,,,,,,,,,,,,,,,,,,,,,,,,,,
,,56514c84715ff50011a43878,2022-09-08_13h56.18.623,CGTgamblingSpanTasks,2022.2.1,Linux x86_64,60.04924038,,,,,,,,3.1334,,,,,,,,,,,,,,1,n,0.8666,9.7,0,4.1334,1,0,11,11,27,1,16.6,0,9.7,0,,,,,,,,,,,,,,,,,,,,,,,,,,,,,,,,,,,,,,,,,,,,,,,,,,,,,,,,,,,,,,,,,,,,,,,,,,,,,,,,,,,,,,,,,,,,,,,,,,
,,56514c84715ff50011a43878,2022-09-08_13h56.18.623,CGTgamblingSpanTasks,2022.2.1,Linux x86_64,60.04924038,,,,,,,,3.0308,,,,,,,,,,,,,,1,v,0.9692,0,1,4.5308,1.5,0,12,12,20,1,11.84,0,6.08,0,,,,,,,,,,,,,,,,,,,,,,,,,,,,,,,,,,,,,,,,,,,,,,,,,,,,,,,,,,,,,,,,,,,,,,,,,,,,,,,,,,,,,,,,,,,,,,,,,,
,,56514c84715ff50011a43878,2022-09-08_13h56.18.623,CGTgamblingSpanTasks,2022.2.1,Linux x86_64,60.04924038,,,,,,,,2.9684,,,,,,,,,,,,,,1,v,1.0316,0,1,4.4684,1.5,0,13,13,9,1,20.53,0,7.73,0,,,,,,,,,,,,,,,,,,,,,,,,,,,,,,,,,,,,,,,,,,,,,,,,,,,,,,,,,,,,,,,,,,,,,,,,,,,,,,,,,,,,,,,,,,,,,,,,,,
,,56514c84715ff50011a43878,2022-09-08_13h56.18.623,CGTgamblingSpanTasks,2022.2.1,Linux x86_64,60.04924038,,,,,,,,2.9942,,,,,,,,,,,,,,1,n,1.0058,6.63,0,4.4942,1.5,0,14,14,30,1,10.73,0,6.63,0,,,,,,,,,,,,,,,,,,,,,,,,,,,,,,,,,,,,,,,,,,,,,,,,,,,,,,,,,,,,,,,,,,,,,,,,,,,,,,,,,,,,,,,,,,,,,,,,,,
,,56514c84715ff50011a43878,2022-09-08_13h56.18.623,CGTgamblingSpanTasks,2022.2.1,Linux x86_64,60.04924038,,,,,,,,3.3419,,,,,,,,,,,,,,1,n,0.6581,10.25,0,4.8419,1.5,0,15,15,46,1,0,0,10.25,1,,,,,,,,,,,,,,,,,,,,,,,,,,,,,,,,,,,,,,,,,,,,,,,,,,,,,,,,,,,,,,,,,,,,,,,,,,,,,,,,,,,,,,,,,,,,,,,,,,
,,56514c84715ff50011a43878,2022-09-08_13h56.18.623,CGTgamblingSpanTasks,2022.2.1,Linux x86_64,60.04924038,,,,,,,,3.1813,,,,,,,,,,,,,,1,n,0.8187,6.29,0,4.6813,1.5,0,16,16,24,1,11.43,0,6.29,0,,,,,,,,,,,,,,,,,,,,,,,,,,,,,,,,,,,,,,,,,,,,,,,,,,,,,,,,,,,,,,,,,,,,,,,,,,,,,,,,,,,,,,,,,,,,,,,,,,
,,56514c84715ff50011a43878,2022-09-08_13h56.18.623,CGTgamblingSpanTasks,2022.2.1,Linux x86_64,60.04924038,,,,,,,,3.1147,,,,,,,,,,,,,,1,n,0.8853,9.92,0,4.1147,1,0,17,17,49,1,6.79,0,9.92,1,,,,,,,,,,,,,,,,,,,,,,,,,,,,,,,,,,,,,,,,,,,,,,,,,,,,,,,,,,,,,,,,,,,,,,,,,,,,,,,,,,,,,,,,,,,,,,,,,,
,,56514c84715ff50011a43878,2022-09-08_13h56.18.623,CGTgamblingSpanTasks,2022.2.1,Linux x86_64,60.04924038,,,,,,,,3.2648,,,,,,,,,,,,,,1,v,0.7352,17.94,1,4.7648,1.5,0,18,18,19,1,17.94,0,9.03,0,,,,,,,,,,,,,,,,,,,,,,,,,,,,,,,,,,,,,,,,,,,,,,,,,,,,,,,,,,,,,,,,,,,,,,,,,,,,,,,,,,,,,,,,,,,,,,,,,,
,,56514c84715ff50011a43878,2022-09-08_13h56.18.623,CGTgamblingSpanTasks,2022.2.1,Linux x86_64,60.04924038,,,,,,,,3.2834,,,,,,,,,,,,,,2,n,0.7166,15.27,1,4.2834,1,0,19,19,37,1,15.27,0,10.37,0,,,,,,,,,,,,,,,,,,,,,,,,,,,,,,,,,,,,,,,,,,,,,,,,,,,,,,,,,,,,,,,,,,,,,,,,,,,,,,,,,,,,,,,,,,,,,,,,,,
,,56514c84715ff50011a43878,2022-09-08_13h56.18.623,CGTgamblingSpanTasks,2022.2.1,Linux x86_64,60.04924038,,,,,,,,3.1429,,,,,,,,,,,,,,2,n,0.8571,11.2,1,4.1429,1,0,20,20,26,1,11.2,0,6.4,0,,,,,,,,,,,,,,,,,,,,,,,,,,,,,,,,,,,,,,,,,,,,,,,,,,,,,,,,,,,,,,,,,,,,,,,,,,,,,,,,,,,,,,,,,,,,,,,,,,
,,56514c84715ff50011a43878,2022-09-08_13h56.18.623,CGTgamblingSpanTasks,2022.2.1,Linux x86_64,60.04924038,,,,,,,,3.2096,,,,,,,,,,,,,,2,n,0.7904,0,1,4.2096,1,0,21,21,33,1,15.7,0,10.15,0,,,,,,,,,,,,,,,,,,,,,,,,,,,,,,,,,,,,,,,,,,,,,,,,,,,,,,,,,,,,,,,,,,,,,,,,,,,,,,,,,,,,,,,,,,,,,,,,,,
,,56514c84715ff50011a43878,2022-09-08_13h56.18.623,CGTgamblingSpanTasks,2022.2.1,Linux x86_64,60.04924038,,,,,,,,3.1985,,,,,,,,,,,,,,1,v,0.8015,21.32,1,4.6985,1.5,0,22,22,7,1,21.32,0,7.34,0,,,,,,,,,,,,,,,,,,,,,,,,,,,,,,,,,,,,,,,,,,,,,,,,,,,,,,,,,,,,,,,,,,,,,,,,,,,,,,,,,,,,,,,,,,,,,,,,,,
,,56514c84715ff50011a43878,2022-09-08_13h56.18.623,CGTgamblingSpanTasks,2022.2.1,Linux x86_64,60.04924038,,,,,,,,3.1672,,,,,,,,,,,,,,1,v,0.8328,16.11,1,4.6672,1.5,0,23,23,43,1,16.11,6.99,6.99,1,,,,,,,,,,,,,,,,,,,,,,,,,,,,,,,,,,,,,,,,,,,,,,,,,,,,,,,,,,,,,,,,,,,,,,,,,,,,,,,,,,,,,,,,,,,,,,,,,,
,,56514c84715ff50011a43878,2022-09-08_13h56.18.623,CGTgamblingSpanTasks,2022.2.1,Linux x86_64,60.04924038,,,,,,,,3.0095,,,,,,,,,,,,,,1,v,0.9905,12.68,1,4.0095,1,0,24,24,14,1,12.68,0,5.66,0,,,,,,,,,,,,,,,,,,,,,,,,,,,,,,,,,,,,,,,,,,,,,,,,,,,,,,,,,,,,,,,,,,,,,,,,,,,,,,,,,,,,,,,,,,,,,,,,,,
,,56514c84715ff50011a43878,2022-09-08_13h56.18.623,CGTgamblingSpanTasks,2022.2.1,Linux x86_64,60.04924038,,,,,,,,3.2694,,,,,,,,,,,,,,2,n,0.7306,16,1,4.2694,1,0,25,25,4,1,16,0,4,0,,,,,,,,,,,,,,,,,,,,,,,,,,,,,,,,,,,,,,,,,,,,,,,,,,,,,,,,,,,,,,,,,,,,,,,,,,,,,,,,,,,,,,,,,,,,,,,,,,
,,56514c84715ff50011a43878,2022-09-08_13h56.18.623,CGTgamblingSpanTasks,2022.2.1,Linux x86_64,60.04924038,,,,,,,,3.1133,,,,,,,,,,,,,,1,v,0.8867,15.47,1,4.1133,1,0,26,26,35,1,15.47,0,10.27,0,,,,,,,,,,,,,,,,,,,,,,,,,,,,,,,,,,,,,,,,,,,,,,,,,,,,,,,,,,,,,,,,,,,,,,,,,,,,,,,,,,,,,,,,,,,,,,,,,,
,,56514c84715ff50011a43878,2022-09-08_13h56.18.623,CGTgamblingSpanTasks,2022.2.1,Linux x86_64,60.04924038,,,,,,,,3.2414,,,,,,,,,,,,,,2,n,0.7586,0,1,4.7414,1.5,0,27,27,10,1,13.45,0,5.27,0,,,,,,,,,,,,,,,,,,,,,,,,,,,,,,,,,,,,,,,,,,,,,,,,,,,,,,,,,,,,,,,,,,,,,,,,,,,,,,,,,,,,,,,,,,,,,,,,,,
,,56514c84715ff50011a43878,2022-09-08_13h56.18.623,CGTgamblingSpanTasks,2022.2.1,Linux x86_64,60.04924038,,,,,,,,3.2444,,,,,,,,,,,,,,2,n,0.7556,10.55,1,4.2444,1,0,28,28,32,1,10.55,0,6.73,0,,,,,,,,,,,,,,,,,,,,,,,,,,,,,,,,,,,,,,,,,,,,,,,,,,,,,,,,,,,,,,,,,,,,,,,,,,,,,,,,,,,,,,,,,,,,,,,,,,
,,56514c84715ff50011a43878,2022-09-08_13h56.18.623,CGTgamblingSpanTasks,2022.2.1,Linux x86_64,60.04924038,,,,,,,,3.2325,,,,,,,,,,,,,,2,n,0.7675,0,1,4.2325,1,0,29,29,29,1,16.26,0,9.87,0,,,,,,,,,,,,,,,,,,,,,,,,,,,,,,,,,,,,,,,,,,,,,,,,,,,,,,,,,,,,,,,,,,,,,,,,,,,,,,,,,,,,,,,,,,,,,,,,,,
,,56514c84715ff50011a43878,2022-09-08_13h56.18.623,CGTgamblingSpanTasks,2022.2.1,Linux x86_64,60.04924038,,,,,,,,3.2431,,,,,,,,,,,,,,2,n,0.7569,20.03,1,4.2431,1,0,30,30,0,1,20.03,0,1.99,0,,,,,,,,,,,,,,,,,,,,,,,,,,,,,,,,,,,,,,,,,,,,,,,,,,,,,,,,,,,,,,,,,,,,,,,,,,,,,,,,,,,,,,,,,,,,,,,,,,
,,56514c84715ff50011a43878,2022-09-08_13h56.18.623,CGTgamblingSpanTasks,2022.2.1,Linux x86_64,60.04924038,,,,,,,,3.0492,,,,,,,,,,,,,,1,v,0.9508,0,1,4.0492,1,0,31,31,39,1,15.09,0,10.46,0,,,,,,,,,,,,,,,,,,,,,,,,,,,,,,,,,,,,,,,,,,,,,,,,,,,,,,,,,,,,,,,,,,,,,,,,,,,,,,,,,,,,,,,,,,,,,,,,,,
,,56514c84715ff50011a43878,2022-09-08_13h56.18.623,CGTgamblingSpanTasks,2022.2.1,Linux x86_64,60.04924038,,,,,,,,3.2122,,,,,,,,,,,,,,2,n,0.7878,19.28,1,4.2122,1,0,32,32,13,1,19.28,0,8.36,0,,,,,,,,,,,,,,,,,,,,,,,,,,,,,,,,,,,,,,,,,,,,,,,,,,,,,,,,,,,,,,,,,,,,,,,,,,,,,,,,,,,,,,,,,,,,,,,,,,
,,56514c84715ff50011a43878,2022-09-08_13h56.18.623,CGTgamblingSpanTasks,2022.2.1,Linux x86_64,60.04924038,,,,,,,,3.2744,,,,,,,,,,,,,,2,n,0.7256,25.2,1,4.2744,1,0,33,33,3,1,25.2,0,5.4,0,,,,,,,,,,,,,,,,,,,,,,,,,,,,,,,,,,,,,,,,,,,,,,,,,,,,,,,,,,,,,,,,,,,,,,,,,,,,,,,,,,,,,,,,,,,,,,,,,,
,,56514c84715ff50011a43878,2022-09-08_13h56.18.623,CGTgamblingSpanTasks,2022.2.1,Linux x86_64,60.04924038,,,,,,,,3.2705,,,,,,,,,,,,,,2,n,0.7295,10.12,1,4.2705,1,0,34,34,38,1,10.12,0,6.94,0,,,,,,,,,,,,,,,,,,,,,,,,,,,,,,,,,,,,,,,,,,,,,,,,,,,,,,,,,,,,,,,,,,,,,,,,,,,,,,,,,,,,,,,,,,,,,,,,,,
,,56514c84715ff50011a43878,2022-09-08_13h56.18.623,CGTgamblingSpanTasks,2022.2.1,Linux x86_64,60.04924038,,,,,,,,3.042,,,,,,,,,,,,,,2,v,0.958,7.55,0,4.042,1,0,35,35,45,1,0,0,7.55,1,,,,,,,,,,,,,,,,,,,,,,,,,,,,,,,,,,,,,,,,,,,,,,,,,,,,,,,,,,,,,,,,,,,,,,,,,,,,,,,,,,,,,,,,,,,,,,,,,,
,,56514c84715ff50011a43878,2022-09-08_13h56.18.623,CGTgamblingSpanTasks,2022.2.1,Linux x86_64,60.04924038,,,,,,,,3.1653,,,,,,,,,,,,,,2,n,0.8347,17.28,1,4.6653,1.5,0,36,36,23,1,17.28,0,9.36,0,,,,,,,,,,,,,,,,,,,,,,,,,,,,,,,,,,,,,,,,,,,,,,,,,,,,,,,,,,,,,,,,,,,,,,,,,,,,,,,,,,,,,,,,,,,,,,,,,,
,,56514c84715ff50011a43878,2022-09-08_13h56.18.623,CGTgamblingSpanTasks,2022.2.1,Linux x86_64,60.04924038,,,,,,,,3.1169,,,,,,,,,,,,,,1,v,0.8831,17.59,1,4.1169,1,0,37,37,21,1,17.59,0,9.2,0,,,,,,,,,,,,,,,,,,,,,,,,,,,,,,,,,,,,,,,,,,,,,,,,,,,,,,,,,,,,,,,,,,,,,,,,,,,,,,,,,,,,,,,,,,,,,,,,,,
,,56514c84715ff50011a43878,2022-09-08_13h56.18.623,CGTgamblingSpanTasks,2022.2.1,Linux x86_64,60.04924038,,,,,,,,3.2481,,,,,,,,,,,,,,2,n,0.7519,17,1,4.7481,1.5,0,38,38,25,1,17,0,9.5,0,,,,,,,,,,,,,,,,,,,,,,,,,,,,,,,,,,,,,,,,,,,,,,,,,,,,,,,,,,,,,,,,,,,,,,,,,,,,,,,,,,,,,,,,,,,,,,,,,,
,,56514c84715ff50011a43878,2022-09-08_13h56.18.623,CGTgamblingSpanTasks,2022.2.1,Linux x86_64,60.04924038,,,,,,,,3.2757,,,,,,,,,,,,,,2,n,0.7243,11.62,1,4.2757,1,0,39,39,22,1,11.62,0,6.19,0,,,,,,,,,,,,,,,,,,,,,,,,,,,,,,,,,,,,,,,,,,,,,,,,,,,,,,,,,,,,,,,,,,,,,,,,,,,,,,,,,,,,,,,,,,,,,,,,,,
,,56514c84715ff50011a43878,2022-09-08_13h56.18.623,CGTgamblingSpanTasks,2022.2.1,Linux x86_64,60.04924038,,,,,,,,3.3672,,,,,,,,,,,,,,2,v,0.6328,10.68,0,4.3672,1,0,40,40,48,1,10.68,0,10.68,1,,,,,,,,,,,,,,,,,,,,,,,,,,,,,,,,,,,,,,,,,,,,,,,,,,,,,,,,,,,,,,,,,,,,,,,,,,,,,,,,,,,,,,,,,,,,,,,,,,
,,56514c84715ff50011a43878,2022-09-08_13h56.18.623,CGTgamblingSpanTasks,2022.2.1,Linux x86_64,60.04924038,,,,,,,,3.3485,,,,,,,,,,,,,,2,n,0.6515,13.1,1,4.8485,1.5,0,41,41,44,1,13.1,7.73,4.68,1,,,,,,,,,,,,,,,,,,,,,,,,,,,,,,,,,,,,,,,,,,,,,,,,,,,,,,,,,,,,,,,,,,,,,,,,,,,,,,,,,,,,,,,,,,,,,,,,,,
,,56514c84715ff50011a43878,2022-09-08_13h56.18.623,CGTgamblingSpanTasks,2022.2.1,Linux x86_64,60.04924038,,,,,,,,3.3676,,,,,,,,,,,,,,2,n,0.6324,19.86,1,4.3676,1,0,42,42,42,1,19.86,0,0,1,,,,,,,,,,,,,,,,,,,,,,,,,,,,,,,,,,,,,,,,,,,,,,,,,,,,,,,,,,,,,,,,,,,,,,,,,,,,,,,,,,,,,,,,,,,,,,,,,,
,,56514c84715ff50011a43878,2022-09-08_13h56.18.623,CGTgamblingSpanTasks,2022.2.1,Linux x86_64,60.04924038,,,,,,,,3.3087,,,,,,,,,,,,,,2,n,0.6913,0,1,4.8087,1.5,0,43,43,2,1,17.73,0,3.13,0,,,,,,,,,,,,,,,,,,,,,,,,,,,,,,,,,,,,,,,,,,,,,,,,,,,,,,,,,,,,,,,,,,,,,,,,,,,,,,,,,,,,,,,,,,,,,,,,,,
,,56514c84715ff50011a43878,2022-09-08_13h56.18.623,CGTgamblingSpanTasks,2022.2.1,Linux x86_64,60.04924038,,,,,,,,3.1091,,,,,,,,,,,,,,2,n,0.8909,18.33,1,4.6091,1.5,0,44,44,17,1,18.33,0,8.84,0,,,,,,,,,,,,,,,,,,,,,,,,,,,,,,,,,,,,,,,,,,,,,,,,,,,,,,,,,,,,,,,,,,,,,,,,,,,,,,,,,,,,,,,,,,,,,,,,,,
,,56514c84715ff50011a43878,2022-09-08_13h56.18.623,CGTgamblingSpanTasks,2022.2.1,Linux x86_64,60.04924038,,,,,,,,3.0816,,,,,,,,,,,,,,2,v,0.9184,3.13,0,4.5816,1.5,0,45,45,47,1,0,0,3.13,1,,,,,,,,,,,,,,,,,,,,,,,,,,,,,,,,,,,,,,,,,,,,,,,,,,,,,,,,,,,,,,,,,,,,,,,,,,,,,,,,,,,,,,,,,,,,,,,,,,
,,56514c84715ff50011a43878,2022-09-08_13h56.18.623,CGTgamblingSpanTasks,2022.2.1,Linux x86_64,60.04924038,,,,,,,,3.3087,,,,,,,,,,,,,,1,v,0.6913,0,1,4.3087,1,0,46,46,11,1,19.86,0,8.07,0,,,,,,,,,,,,,,,,,,,,,,,,,,,,,,,,,,,,,,,,,,,,,,,,,,,,,,,,,,,,,,,,,,,,,,,,,,,,,,,,,,,,,,,,,,,,,,,,,,
,,56514c84715ff50011a43878,2022-09-08_13h56.18.623,CGTgamblingSpanTasks,2022.2.1,Linux x86_64,60.04924038,,,,,,,,3.2246,,,,,,,,,,,,,,2,n,0.7754,0,1,4.7246,1.5,0,47,47,36,1,10.24,0,6.88,0,,,,,,,,,,,,,,,,,,,,,,,,,,,,,,,,,,,,,,,,,,,,,,,,,,,,,,,,,,,,,,,,,,,,,,,,,,,,,,,,,,,,,,,,,,,,,,,,,,
,,56514c84715ff50011a43878,2022-09-08_13h56.18.623,CGTgamblingSpanTasks,2022.2.1,Linux x86_64,60.04924038,,,,,,,,3.2806,,,,,,,,,,,,,,1,v,0.7194,0,1,4.2806,1,0,48,48,6,1,14.72,0,4.64,0,,,,,,,,,,,,,,,,,,,,,,,,,,,,,,,,,,,,,,,,,,,,,,,,,,,,,,,,,,,,,,,,,,,,,,,,,,,,,,,,,,,,,,,,,,,,,,,,,,
,,56514c84715ff50011a43878,2022-09-08_13h56.18.623,CGTgamblingSpanTasks,2022.2.1,Linux x86_64,60.04924038,,,,,,,,3.327,,,,,,,,,,,,,,1,v,0.673,18.77,1,4.827,1.5,0,49,49,15,1,18.77,0,8.61,0,,,,,,,,,,,,,,,,,,,,,,,,,,,,,,,,,,,,,,,,,,,,,,,,,,,,,,,,,,,,,,,,,,,,,,,,,,,,,,,,,,,,,,,,,,,,,,,,,,
,,56514c84715ff50011a43878,2022-09-08_13h56.18.623,CGTgamblingSpanTasks,2022.2.1,Linux x86_64,60.04924038,,,,,,,,,,,,,,,,,,,,,,,,,,,,,,,,,,,,,,bespoke_choiceset_rhoInd200_muInd083.csv,bespoke_choicesets/bespoke_choiceset_rhoInd200_muInd083.csv,200,83,0,0,0,0,1,,,,,,,,,,,,,,,,,,,,,,,,,,,,,,,,,,,,,,,,,,,,,,,,,,,,,,,,,,,,,,,,,,,,,,,,,,,,,,,,,,,,,,,,,
,,56514c84715ff50011a43878,2022-09-08_13h56.18.623,CGTgamblingSpanTasks,2022.2.1,Linux x86_64,60.04924038,,,,,,,,,,,,,,,,,,,,,,,,,,,,,,,,,,,,,,,,,,,,,,,,,,,,,,,,,,,,,,,,,,,,,,,,,,,,,,,,,,,,,,,,,,,,,,,,,,,,,,,,,,,,,,,,,,,,,,,,,,,,,,,,,,,,,,,
,,56514c84715ff50011a43878,2022-09-08_13h56.18.623,CGTgamblingSpanTasks,2022.2.1,Linux x86_64,60.04924038,,,,,,,,,,,,,,,,,,,,,,,,,,,,,,,,,,,,,,,,,,,,,,,v,4.4987,,,,,,,,,,,,,,,,,,,,,,,,,,,,,,,,,,,,,,,,,,,,,,,,,,,,,,,,,,,,,,,,,,,,,,,,,,,,,,,,,,,,,,,
,,56514c84715ff50011a43878,2022-09-08_13h56.18.623,CGTgamblingSpanTasks,2022.2.1,Linux x86_64,60.04924038,,,,,,,,2.9422,,,,,,,,,,,,,,2,n,1.0578,15.87668502,1,3.9422,1,,,,,,15.87668502,0,8.42547829,,,,,,,,,,,,,0,0,0,56,1,0.092099462,0,,,,,,,,,,,,,,,,,,,,,,,,,,,,,,,,,,,,,,,,,,,,,,,,,,,,,,,,,,,,,,,,,,,,,,,,,,,,,,,,
,,56514c84715ff50011a43878,2022-09-08_13h56.18.623,CGTgamblingSpanTasks,2022.2.1,Linux x86_64,60.04924038,,,,,,,,3.2132,,,,,,,,,,,,,,2,n,0.7868,27.88092897,1,4.7132,1.5,,,,,,27.88092897,0,2.771762788,,,,,,,,,,,,,0,1,1,117,1,0.499466648,1,,,,,,,,,,,,,,,,,,,,,,,,,,,,,,,,,,,,,,,,,,,,,,,,,,,,,,,,,,,,,,,,,,,,,,,,,,,,,,,,
,,56514c84715ff50011a43878,2022-09-08_13h56.18.623,CGTgamblingSpanTasks,2022.2.1,Linux x86_64,60.04924038,,,,,,,,3.3461,,,,,,,,,,,,,,1,v,0.6539,22.62475578,1,4.3461,1,,,,,,22.62475578,0,2.397643354,,,,,,,,,,,,,0,2,2,93,1,0.482527609,1,,,,,,,,,,,,,,,,,,,,,,,,,,,,,,,,,,,,,,,,,,,,,,,,,,,,,,,,,,,,,,,,,,,,,,,,,,,,,,,,
,,56514c84715ff50011a43878,2022-09-08_13h56.18.623,CGTgamblingSpanTasks,2022.2.1,Linux x86_64,60.04924038,,,,,,,,3.1989,,,,,,,,,,,,,,2,n,0.8011,0,1,4.1989,1,,,,,,21.03408097,0,2.208275162,,,,,,,,,,,,,0,3,3,0,1,0.485031246,1,,,,,,,,,,,,,,,,,,,,,,,,,,,,,,,,,,,,,,,,,,,,,,,,,,,,,,,,,,,,,,,,,,,,,,,,,,,,,,,,
,,56514c84715ff50011a43878,2022-09-08_13h56.18.623,CGTgamblingSpanTasks,2022.2.1,Linux x86_64,60.04924038,,,,,,,,3.1455,,,,,,,,,,,,,,2,n,0.8545,27.38828234,1,4.6455,1.5,,,,,,27.38828234,0,0.0639233,,,,,,,,,,,,,0,4,4,43,1,0.914010176,0,,,,,,,,,,,,,,,,,,,,,,,,,,,,,,,,,,,,,,,,,,,,,,,,,,,,,,,,,,,,,,,,,,,,,,,,,,,,,,,,
,,56514c84715ff50011a43878,2022-09-08_13h56.18.623,CGTgamblingSpanTasks,2022.2.1,Linux x86_64,60.04924038,,,,,,,,3.2314,,,,,,,,,,,,,,1,v,0.7686,11.08143071,1,4.2314,1,,,,,,11.08143071,0,1.207538756,,,,,,,,,,,,,0,5,5,84,1,0.475047453,1,,,,,,,,,,,,,,,,,,,,,,,,,,,,,,,,,,,,,,,,,,,,,,,,,,,,,,,,,,,,,,,,,,,,,,,,,,,,,,,,
,,56514c84715ff50011a43878,2022-09-08_13h56.18.623,CGTgamblingSpanTasks,2022.2.1,Linux x86_64,60.04924038,,,,,,,,3.0711,,,,,,,,,,,,,,2,n,0.9289,0,1,4.5711,1.5,,,,,,25.65316415,0,0.079652925,,,,,,,,,,,,,0,6,6,109,1,0.90568168,0,,,,,,,,,,,,,,,,,,,,,,,,,,,,,,,,,,,,,,,,,,,,,,,,,,,,,,,,,,,,,,,,,,,,,,,,,,,,,,,,
,,56514c84715ff50011a43878,2022-09-08_13h56.18.623,CGTgamblingSpanTasks,2022.2.1,Linux x86_64,60.04924038,,,,,,,,3.1753,,,,,,,,,,,,,,2,n,0.8247,0,1,4.6753,1.5,,,,,,26.16821818,0,0.093528069,,,,,,,,,,,,,0,7,7,42,1,0.901022427,0,,,,,,,,,,,,,,,,,,,,,,,,,,,,,,,,,,,,,,,,,,,,,,,,,,,,,,,,,,,,,,,,,,,,,,,,,,,,,,,,
,,56514c84715ff50011a43878,2022-09-08_13h56.18.623,CGTgamblingSpanTasks,2022.2.1,Linux x86_64,60.04924038,,,,,,,,3.1334,,,,,,,,,,,,,,1,n,0.8666,11.61882862,0,4.1334,1,,,,,,4.022743614,0,11.61882862,,,,,,,,,,,,,0,8,8,38,1,0.011499376,0,,,,,,,,,,,,,,,,,,,,,,,,,,,,,,,,,,,,,,,,,,,,,,,,,,,,,,,,,,,,,,,,,,,,,,,,,,,,,,,,
,,56514c84715ff50011a43878,2022-09-08_13h56.18.623,CGTgamblingSpanTasks,2022.2.1,Linux x86_64,60.04924038,,,,,,,,3.1414,,,,,,,,,,,,,,2,n,0.8586,0,1,4.1414,1,,,,,,8.363821911,0,6.781500919,,,,,,,,,,,,,0,9,9,61,1,0.044227959,0,,,,,,,,,,,,,,,,,,,,,,,,,,,,,,,,,,,,,,,,,,,,,,,,,,,,,,,,,,,,,,,,,,,,,,,,,,,,,,,,
,,56514c84715ff50011a43878,2022-09-08_13h56.18.623,CGTgamblingSpanTasks,2022.2.1,Linux x86_64,60.04924038,,,,,,,,3.1652,,,,,,,,,,,,,,1,v,0.8348,8.670591867,1,4.1652,1,,,,,,8.670591867,0,1.025847652,,,,,,,,,,,,,0,10,10,18,1,0.452680459,1,,,,,,,,,,,,,,,,,,,,,,,,,,,,,,,,,,,,,,,,,,,,,,,,,,,,,,,,,,,,,,,,,,,,,,,,,,,,,,,,
,,56514c84715ff50011a43878,2022-09-08_13h56.18.623,CGTgamblingSpanTasks,2022.2.1,Linux x86_64,60.04924038,,,,,,,,3.3011,,,,,,,,,,,,,,2,n,0.6989,0,1,4.3011,1,,,,,,22.86604061,0,2.293289792,,,,,,,,,,,,,0,11,11,51,1,0.49715382,1,,,,,,,,,,,,,,,,,,,,,,,,,,,,,,,,,,,,,,,,,,,,,,,,,,,,,,,,,,,,,,,,,,,,,,,,,,,,,,,,
,,56514c84715ff50011a43878,2022-09-08_13h56.18.623,CGTgamblingSpanTasks,2022.2.1,Linux x86_64,60.04924038,,,,,,,,3.3964,,,,,,,,,,,,,,1,v,0.6036,0,1,4.3964,1,,,,,,27.4965044,0,2.461467004,,,,,,,,,,,,,0,12,12,36,1,0.526550878,1,,,,,,,,,,,,,,,,,,,,,,,,,,,,,,,,,,,,,,,,,,,,,,,,,,,,,,,,,,,,,,,,,,,,,,,,,,,,,,,,
,,56514c84715ff50011a43878,2022-09-08_13h56.18.623,CGTgamblingSpanTasks,2022.2.1,Linux x86_64,60.04924038,,,,,,,,3.2802,,,,,,,,,,,,,,2,n,0.7198,7.534278541,1,4.2802,1,,,,,,7.534278541,0,0.747140182,,,,,,,,,,,,,0,13,13,37,1,0.50012466,1,,,,,,,,,,,,,,,,,,,,,,,,,,,,,,,,,,,,,,,,,,,,,,,,,,,,,,,,,,,,,,,,,,,,,,,,,,,,,,,,
,,56514c84715ff50011a43878,2022-09-08_13h56.18.623,CGTgamblingSpanTasks,2022.2.1,Linux x86_64,60.04924038,,,,,,,,3.3274,,,,,,,,,,,,,,2,n,0.6726,28.68598705,1,4.8274,1.5,,,,,,28.68598705,0,0.050674956,,,,,,,,,,,,,0,14,14,62,1,0.920905497,0,,,,,,,,,,,,,,,,,,,,,,,,,,,,,,,,,,,,,,,,,,,,,,,,,,,,,,,,,,,,,,,,,,,,,,,,,,,,,,,,
,,56514c84715ff50011a43878,2022-09-08_13h56.18.623,CGTgamblingSpanTasks,2022.2.1,Linux x86_64,60.04924038,,,,,,,,3.2627,,,,,,,,,,,,,,2,n,0.7373,23.59556381,1,4.7627,1.5,,,,,,23.59556381,0,2.464662219,,,,,,,,,,,,,0,15,15,22,1,0.486383205,1,,,,,,,,,,,,,,,,,,,,,,,,,,,,,,,,,,,,,,,,,,,,,,,,,,,,,,,,,,,,,,,,,,,,,,,,,,,,,,,,
,,56514c84715ff50011a43878,2022-09-08_13h56.18.623,CGTgamblingSpanTasks,2022.2.1,Linux x86_64,60.04924038,,,,,,,,3.3936,,,,,,,,,,,,,,2,n,0.6064,27.93093084,1,4.8936,1.5,,,,,,27.93093084,0,0.050207531,,,,,,,,,,,,,0,16,16,83,1,0.920505936,0,,,,,,,,,,,,,,,,,,,,,,,,,,,,,,,,,,,,,,,,,,,,,,,,,,,,,,,,,,,,,,,,,,,,,,,,,,,,,,,,
,,56514c84715ff50011a43878,2022-09-08_13h56.18.623,CGTgamblingSpanTasks,2022.2.1,Linux x86_64,60.04924038,,,,,,,,3.2666,,,,,,,,,,,,,,1,v,0.7334,15.73000491,1,4.2666,1,,,,,,15.73000491,0,8.830252162,,,,,,,,,,,,,0,17,17,95,1,0.084193143,0,,,,,,,,,,,,,,,,,,,,,,,,,,,,,,,,,,,,,,,,,,,,,,,,,,,,,,,,,,,,,,,,,,,,,,,,,,,,,,,,
,,56514c84715ff50011a43878,2022-09-08_13h56.18.623,CGTgamblingSpanTasks,2022.2.1,Linux x86_64,60.04924038,,,,,,,,3.3647,,,,,,,,,,,,,,1,v,0.6353,23.0613391,1,4.3647,1,,,,,,23.0613391,0,2.387726776,,,,,,,,,,,,,0,18,18,69,1,0.488727763,1,,,,,,,,,,,,,,,,,,,,,,,,,,,,,,,,,,,,,,,,,,,,,,,,,,,,,,,,,,,,,,,,,,,,,,,,,,,,,,,,
,,56514c84715ff50011a43878,2022-09-08_13h56.18.623,CGTgamblingSpanTasks,2022.2.1,Linux x86_64,60.04924038,,,,,,,,3.3902,,,,,,,,,,,,,,2,n,0.6098,0,1,4.3902,1,,,,,,18.50662664,0,0.052546026,,,,,,,,,,,,,0,19,19,112,1,0.908444837,0,,,,,,,,,,,,,,,,,,,,,,,,,,,,,,,,,,,,,,,,,,,,,,,,,,,,,,,,,,,,,,,,,,,,,,,,,,,,,,,,
,,56514c84715ff50011a43878,2022-09-08_13h56.18.623,CGTgamblingSpanTasks,2022.2.1,Linux x86_64,60.04924038,,,,,,,,3.3666,,,,,,,,,,,,,,1,v,0.6334,21.7711579,1,4.8666,1.5,,,,,,21.7711579,0,2.502728921,,,,,,,,,,,,,0,20,20,101,1,0.460552621,1,,,,,,,,,,,,,,,,,,,,,,,,,,,,,,,,,,,,,,,,,,,,,,,,,,,,,,,,,,,,,,,,,,,,,,,,,,,,,,,,
,,56514c84715ff50011a43878,2022-09-08_13h56.18.623,CGTgamblingSpanTasks,2022.2.1,Linux x86_64,60.04924038,,,,,,,,3.3481,,,,,,,,,,,,,,1,v,0.6519,0,1,4.8481,1.5,,,,,,21.46599803,0,0.059789256,,,,,,,,,,,,,0,21,21,8,1,0.909019081,0,,,,,,,,,,,,,,,,,,,,,,,,,,,,,,,,,,,,,,,,,,,,,,,,,,,,,,,,,,,,,,,,,,,,,,,,,,,,,,,,
,,56514c84715ff50011a43878,2022-09-08_13h56.18.623,CGTgamblingSpanTasks,2022.2.1,Linux x86_64,60.04924038,,,,,,,,3.3139,,,,,,,,,,,,,,1,v,0.6861,0,1,4.8139,1.5,,,,,,25.56803059,0,2.543951743,,,,,,,,,,,,,0,22,22,41,1,0.499247217,1,,,,,,,,,,,,,,,,,,,,,,,,,,,,,,,,,,,,,,,,,,,,,,,,,,,,,,,,,,,,,,,,,,,,,,,,,,,,,,,,
,,56514c84715ff50011a43878,2022-09-08_13h56.18.623,CGTgamblingSpanTasks,2022.2.1,Linux x86_64,60.04924038,,,,,,,,3.3976,,,,,,,,,,,,,,2,n,0.6024,0,1,4.8976,1.5,,,,,,27.57491653,0,2.99133314,,,,,,,,,,,,,0,23,23,10,1,0.47625893,1,,,,,,,,,,,,,,,,,,,,,,,,,,,,,,,,,,,,,,,,,,,,,,,,,,,,,,,,,,,,,,,,,,,,,,,,,,,,,,,,
,,56514c84715ff50011a43878,2022-09-08_13h56.18.623,CGTgamblingSpanTasks,2022.2.1,Linux x86_64,60.04924038,,,,,,,,3.0639,,,,,,,,,,,,,,1,n,0.9361,11.19311486,0,4.0639,1,,,,,,8.17598802,0,11.19311486,,,,,,,,,,,,,0,24,24,110,1,0.021568003,0,,,,,,,,,,,,,,,,,,,,,,,,,,,,,,,,,,,,,,,,,,,,,,,,,,,,,,,,,,,,,,,,,,,,,,,,,,,,,,,,
,,56514c84715ff50011a43878,2022-09-08_13h56.18.623,CGTgamblingSpanTasks,2022.2.1,Linux x86_64,60.04924038,,,,,,,,3.2988,,,,,,,,,,,,,,1,v,0.7012,19.68065872,1,4.7988,1.5,,,,,,19.68065872,0,1.843597162,,,,,,,,,,,,,0,25,25,80,1,0.514941058,1,,,,,,,,,,,,,,,,,,,,,,,,,,,,,,,,,,,,,,,,,,,,,,,,,,,,,,,,,,,,,,,,,,,,,,,,,,,,,,,,
,,56514c84715ff50011a43878,2022-09-08_13h56.18.623,CGTgamblingSpanTasks,2022.2.1,Linux x86_64,60.04924038,,,,,,,,3.3127,,,,,,,,,,,,,,1,v,0.6873,0,1,4.3127,1,,,,,,24.8002852,0,0.071848086,,,,,,,,,,,,,0,26,26,16,1,0.90783559,0,,,,,,,,,,,,,,,,,,,,,,,,,,,,,,,,,,,,,,,,,,,,,,,,,,,,,,,,,,,,,,,,,,,,,,,,,,,,,,,,
,,56514c84715ff50011a43878,2022-09-08_13h56.18.623,CGTgamblingSpanTasks,2022.2.1,Linux x86_64,60.04924038,,,,,,,,3.2317,,,,,,,,,,,,,,2,n,0.7683,29.30724159,1,4.7317,1.5,,,,,,29.30724159,0,3.247012935,,,,,,,,,,,,,0,27,27,71,1,0.470571125,1,,,,,,,,,,,,,,,,,,,,,,,,,,,,,,,,,,,,,,,,,,,,,,,,,,,,,,,,,,,,,,,,,,,,,,,,,,,,,,,,
,,56514c84715ff50011a43878,2022-09-08_13h56.18.623,CGTgamblingSpanTasks,2022.2.1,Linux x86_64,60.04924038,,,,,,,,3.3487,,,,,,,,,,,,,,1,v,0.6513,0,1,4.3487,1,,,,,,28.33977875,0,2.768313633,,,,,,,,,,,,,0,28,28,116,1,0.50406901,1,,,,,,,,,,,,,,,,,,,,,,,,,,,,,,,,,,,,,,,,,,,,,,,,,,,,,,,,,,,,,,,,,,,,,,,,,,,,,,,,
,,56514c84715ff50011a43878,2022-09-08_13h56.18.623,CGTgamblingSpanTasks,2022.2.1,Linux x86_64,60.04924038,,,,,,,,3.2803,,,,,,,,,,,,,,2,n,0.7197,0,1,4.2803,1,,,,,,21.48443242,0,2.229247341,,,,,,,,,,,,,0,29,29,63,1,0.488155912,1,,,,,,,,,,,,,,,,,,,,,,,,,,,,,,,,,,,,,,,,,,,,,,,,,,,,,,,,,,,,,,,,,,,,,,,,,,,,,,,,
,,56514c84715ff50011a43878,2022-09-08_13h56.18.623,CGTgamblingSpanTasks,2022.2.1,Linux x86_64,60.04924038,,,,,,,,3.4975,,,,,,,,,,,,,,1,v,0.5025,0,1,4.4975,1,,,,,,21.16780451,0,2.469465385,,,,,,,,,,,,,0,30,30,32,1,0.456531699,1,,,,,,,,,,,,,,,,,,,,,,,,,,,,,,,,,,,,,,,,,,,,,,,,,,,,,,,,,,,,,,,,,,,,,,,,,,,,,,,,
,,56514c84715ff50011a43878,2022-09-08_13h56.18.623,CGTgamblingSpanTasks,2022.2.1,Linux x86_64,60.04924038,,,,,,,,3.3583,,,,,,,,,,,,,,2,n,0.6417,18.20422443,1,4.8583,1.5,,,,,,18.20422443,0,1.635040165,,,,,,,,,,,,,0,31,31,82,1,0.525708991,1,,,,,,,,,,,,,,,,,,,,,,,,,,,,,,,,,,,,,,,,,,,,,,,,,,,,,,,,,,,,,,,,,,,,,,,,,,,,,,,,
,,56514c84715ff50011a43878,2022-09-08_13h56.18.623,CGTgamblingSpanTasks,2022.2.1,Linux x86_64,60.04924038,,,,,,,,3.4079,,,,,,,,,,,,,,1,v,0.5921,0,1,4.9079,1.5,,,,,,19.36415485,0,1.966229494,,,,,,,,,,,,,0,32,32,96,1,0.493893111,1,,,,,,,,,,,,,,,,,,,,,,,,,,,,,,,,,,,,,,,,,,,,,,,,,,,,,,,,,,,,,,,,,,,,,,,,,,,,,,,,
,,56514c84715ff50011a43878,2022-09-08_13h56.18.623,CGTgamblingSpanTasks,2022.2.1,Linux x86_64,60.04924038,,,,,,,,2.7985,,,,,,,,,,,,,,1,v,1.2015,17.67865084,1,3.7985,1,,,,,,17.67865084,0,11.35147481,,,,,,,,,,,,,0,33,33,91,1,0.067304606,0,,,,,,,,,,,,,,,,,,,,,,,,,,,,,,,,,,,,,,,,,,,,,,,,,,,,,,,,,,,,,,,,,,,,,,,,,,,,,,,,
,,56514c84715ff50011a43878,2022-09-08_13h56.18.623,CGTgamblingSpanTasks,2022.2.1,Linux x86_64,60.04924038,,,,,,,,3.2585,,,,,,,,,,,,,,2,n,0.7415,24.35708027,1,4.7585,1.5,,,,,,24.35708027,0,2.738695417,,,,,,,,,,,,,0,34,34,114,1,0.466573634,1,,,,,,,,,,,,,,,,,,,,,,,,,,,,,,,,,,,,,,,,,,,,,,,,,,,,,,,,,,,,,,,,,,,,,,,,,,,,,,,,
,,56514c84715ff50011a43878,2022-09-08_13h56.18.623,CGTgamblingSpanTasks,2022.2.1,Linux x86_64,60.04924038,,,,,,,,3.3149,,,,,,,,,,,,,,2,n,0.6851,22.0050376,1,4.3149,1,,,,,,22.0050376,0,2.257683666,,,,,,,,,,,,,0,35,35,4,1,0.491147312,1,,,,,,,,,,,,,,,,,,,,,,,,,,,,,,,,,,,,,,,,,,,,,,,,,,,,,,,,,,,,,,,,,,,,,,,,,,,,,,,,
,,56514c84715ff50011a43878,2022-09-08_13h56.18.623,CGTgamblingSpanTasks,2022.2.1,Linux x86_64,60.04924038,,,,,,,,2.9934,,,,,,,,,,,,,,2,v,1.0066,6.833409611,0,3.9934,1,,,,,,6.325091157,0,6.833409611,,,,,,,,,,,,,0,36,36,58,1,0.027113638,0,,,,,,,,,,,,,,,,,,,,,,,,,,,,,,,,,,,,,,,,,,,,,,,,,,,,,,,,,,,,,,,,,,,,,,,,,,,,,,,,
,,56514c84715ff50011a43878,2022-09-08_13h56.18.623,CGTgamblingSpanTasks,2022.2.1,Linux x86_64,60.04924038,,,,,,,,3.2654,,,,,,,,,,,,,,1,v,0.7346,22.25959835,1,4.2654,1,,,,,,22.25959835,0,0.065383587,,,,,,,,,,,,,0,37,37,97,1,0.907413875,0,,,,,,,,,,,,,,,,,,,,,,,,,,,,,,,,,,,,,,,,,,,,,,,,,,,,,,,,,,,,,,,,,,,,,,,,,,,,,,,,
,,56514c84715ff50011a43878,2022-09-08_13h56.18.623,CGTgamblingSpanTasks,2022.2.1,Linux x86_64,60.04924038,,,,,,,,3.3588,,,,,,,,,,,,,,1,v,0.6412,23.24777057,1,4.8588,1.5,,,,,,23.24777057,0,2.003482335,,,,,,,,,,,,,0,38,38,59,1,0.536135174,1,,,,,,,,,,,,,,,,,,,,,,,,,,,,,,,,,,,,,,,,,,,,,,,,,,,,,,,,,,,,,,,,,,,,,,,,,,,,,,,,
,,56514c84715ff50011a43878,2022-09-08_13h56.18.623,CGTgamblingSpanTasks,2022.2.1,Linux x86_64,60.04924038,,,,,,,,3.2319,,,,,,,,,,,,,,2,n,0.7681,0,1,4.7319,1.5,,,,,,19.30622782,0,10.31611309,,,,,,,,,,,,,0,39,39,1,1,0.091105656,0,,,,,,,,,,,,,,,,,,,,,,,,,,,,,,,,,,,,,,,,,,,,,,,,,,,,,,,,,,,,,,,,,,,,,,,,,,,,,,,,
,,56514c84715ff50011a43878,2022-09-08_13h56.18.623,CGTgamblingSpanTasks,2022.2.1,Linux x86_64,60.04924038,,,,,,,,3.3245,,,,,,,,,,,,,,2,n,0.6755,0,1,4.3245,1,,,,,,21.17800335,0,0.059830985,,,,,,,,,,,,,0,40,40,67,1,0.908594974,0,,,,,,,,,,,,,,,,,,,,,,,,,,,,,,,,,,,,,,,,,,,,,,,,,,,,,,,,,,,,,,,,,,,,,,,,,,,,,,,,
,,56514c84715ff50011a43878,2022-09-08_13h56.18.623,CGTgamblingSpanTasks,2022.2.1,Linux x86_64,60.04924038,,,,,,,,3.2978,,,,,,,,,,,,,,2,n,0.7022,0,1,4.2978,1,,,,,,25.76582409,0,2.393193076,,,,,,,,,,,,,0,41,41,46,1,0.517129855,1,,,,,,,,,,,,,,,,,,,,,,,,,,,,,,,,,,,,,,,,,,,,,,,,,,,,,,,,,,,,,,,,,,,,,,,,,,,,,,,,
,,56514c84715ff50011a43878,2022-09-08_13h56.18.623,CGTgamblingSpanTasks,2022.2.1,Linux x86_64,60.04924038,,,,,,,,3.4157,,,,,,,,,,,,,,2,n,0.5843,0,1,4.4157,1,,,,,,11.16819157,0,0.941456753,,,,,,,,,,,,,0,42,42,45,1,0.54163803,1,,,,,,,,,,,,,,,,,,,,,,,,,,,,,,,,,,,,,,,,,,,,,,,,,,,,,,,,,,,,,,,,,,,,,,,,,,,,,,,,
,,56514c84715ff50011a43878,2022-09-08_13h56.18.623,CGTgamblingSpanTasks,2022.2.1,Linux x86_64,60.04924038,,,,,,,,3.2503,,,,,,,,,,,,,,1,n,0.7497,7.850775577,0,4.7503,1.5,,,,,,4.622707531,0,7.850775577,,,,,,,,,,,,,0,43,43,6,1,0.017737407,0,,,,,,,,,,,,,,,,,,,,,,,,,,,,,,,,,,,,,,,,,,,,,,,,,,,,,,,,,,,,,,,,,,,,,,,,,,,,,,,,
,,56514c84715ff50011a43878,2022-09-08_13h56.18.623,CGTgamblingSpanTasks,2022.2.1,Linux x86_64,60.04924038,,,,,,,,3.4568,,,,,,,,,,,,,,2,n,0.5432,27.77179191,1,4.4568,1,,,,,,27.77179191,0,0.074524436,,,,,,,,,,,,,0,44,44,99,1,0.910114387,0,,,,,,,,,,,,,,,,,,,,,,,,,,,,,,,,,,,,,,,,,,,,,,,,,,,,,,,,,,,,,,,,,,,,,,,,,,,,,,,,
,,56514c84715ff50011a43878,2022-09-08_13h56.18.623,CGTgamblingSpanTasks,2022.2.1,Linux x86_64,60.04924038,,,,,,,,3.4329,,,,,,,,,,,,,,1,v,0.5671,27.94544945,1,4.4329,1,,,,,,27.94544945,0,2.32030209,,,,,,,,,,,,,0,45,45,115,1,0.545390564,1,,,,,,,,,,,,,,,,,,,,,,,,,,,,,,,,,,,,,,,,,,,,,,,,,,,,,,,,,,,,,,,,,,,,,,,,,,,,,,,,
,,56514c84715ff50011a43878,2022-09-08_13h56.18.623,CGTgamblingSpanTasks,2022.2.1,Linux x86_64,60.04924038,,,,,,,,2.9467,,,,,,,,,,,,,,1,v,1.0533,14.3363647,1,4.4467,1.5,,,,,,14.3363647,0,1.396635362,,,,,,,,,,,,,0,46,46,78,1,0.504775474,1,,,,,,,,,,,,,,,,,,,,,,,,,,,,,,,,,,,,,,,,,,,,,,,,,,,,,,,,,,,,,,,,,,,,,,,,,,,,,,,,
,,56514c84715ff50011a43878,2022-09-08_13h56.18.623,CGTgamblingSpanTasks,2022.2.1,Linux x86_64,60.04924038,,,,,,,,3.4213,,,,,,,,,,,,,,2,n,0.5787,26.11188619,1,4.4213,1,,,,,,26.11188619,0,0.081942421,,,,,,,,,,,,,0,47,47,105,1,0.905343856,0,,,,,,,,,,,,,,,,,,,,,,,,,,,,,,,,,,,,,,,,,,,,,,,,,,,,,,,,,,,,,,,,,,,,,,,,,,,,,,,,
,,56514c84715ff50011a43878,2022-09-08_13h56.18.623,CGTgamblingSpanTasks,2022.2.1,Linux x86_64,60.04924038,,,,,,,,3.0916,,,,,,,,,,,,,,2,n,0.9084,17.23907308,1,4.0916,1,,,,,,17.23907308,0,2.055848574,,,,,,,,,,,,,0,48,48,66,1,0.450504458,1,,,,,,,,,,,,,,,,,,,,,,,,,,,,,,,,,,,,,,,,,,,,,,,,,,,,,,,,,,,,,,,,,,,,,,,,,,,,,,,,
,,56514c84715ff50011a43878,2022-09-08_13h56.18.623,CGTgamblingSpanTasks,2022.2.1,Linux x86_64,60.04924038,,,,,,,,3.2917,,,,,,,,,,,,,,1,v,0.7083,15.21435748,1,4.2917,1,,,,,,15.21435748,0,10.3417501,,,,,,,,,,,,,0,49,49,72,1,0.060969226,0,,,,,,,,,,,,,,,,,,,,,,,,,,,,,,,,,,,,,,,,,,,,,,,,,,,,,,,,,,,,,,,,,,,,,,,,,,,,,,,,
,,56514c84715ff50011a43878,2022-09-08_13h56.18.623,CGTgamblingSpanTasks,2022.2.1,Linux x86_64,60.04924038,,,,,,,,3.2151,,,,,,,,,,,,,,2,n,0.7849,0,1,4.2151,1,,,,,,19.5450126,0,2.123581464,,,,,,,,,,,,,0,50,50,65,1,0.475836144,1,,,,,,,,,,,,,,,,,,,,,,,,,,,,,,,,,,,,,,,,,,,,,,,,,,,,,,,,,,,,,,,,,,,,,,,,,,,,,,,,
,,56514c84715ff50011a43878,2022-09-08_13h56.18.623,CGTgamblingSpanTasks,2022.2.1,Linux x86_64,60.04924038,,,,,,,,3.339,,,,,,,,,,,,,,1,v,0.661,0,1,4.339,1,,,,,,18.16238569,0,1.540604093,,,,,,,,,,,,,0,51,51,34,1,0.540092491,1,,,,,,,,,,,,,,,,,,,,,,,,,,,,,,,,,,,,,,,,,,,,,,,,,,,,,,,,,,,,,,,,,,,,,,,,,,,,,,,,
,,56514c84715ff50011a43878,2022-09-08_13h56.18.623,CGTgamblingSpanTasks,2022.2.1,Linux x86_64,60.04924038,,,,,,,,3.1128,,,,,,,,,,,,,,1,v,0.8872,0,1,4.6128,1.5,,,,,,8.217594828,0,0.951019374,,,,,,,,,,,,,0,52,52,87,1,0.458722936,1,,,,,,,,,,,,,,,,,,,,,,,,,,,,,,,,,,,,,,,,,,,,,,,,,,,,,,,,,,,,,,,,,,,,,,,,,,,,,,,,
,,56514c84715ff50011a43878,2022-09-08_13h56.18.623,CGTgamblingSpanTasks,2022.2.1,Linux x86_64,60.04924038,,,,,,,,3.2624,,,,,,,,,,,,,,1,v,0.7376,27.76752685,1,4.7624,1.5,,,,,,27.76752685,0,0.083968035,,,,,,,,,,,,,0,53,53,13,1,0.906513967,0,,,,,,,,,,,,,,,,,,,,,,,,,,,,,,,,,,,,,,,,,,,,,,,,,,,,,,,,,,,,,,,,,,,,,,,,,,,,,,,,
,,56514c84715ff50011a43878,2022-09-08_13h56.18.623,CGTgamblingSpanTasks,2022.2.1,Linux x86_64,60.04924038,,,,,,,,3.3164,,,,,,,,,,,,,,2,n,0.6836,25.54604005,1,4.8164,1.5,,,,,,25.54604005,0,0.088845411,,,,,,,,,,,,,0,54,54,79,1,0.901957831,0,,,,,,,,,,,,,,,,,,,,,,,,,,,,,,,,,,,,,,,,,,,,,,,,,,,,,,,,,,,,,,,,,,,,,,,,,,,,,,,,
,,56514c84715ff50011a43878,2022-09-08_13h56.18.623,CGTgamblingSpanTasks,2022.2.1,Linux x86_64,60.04924038,,,,,,,,3.1445,,,,,,,,,,,,,,2,n,0.8555,0,1,4.1445,1,,,,,,19.58698544,0,9.936178001,,,,,,,,,,,,,0,55,55,77,1,0.098812204,0,,,,,,,,,,,,,,,,,,,,,,,,,,,,,,,,,,,,,,,,,,,,,,,,,,,,,,,,,,,,,,,,,,,,,,,,,,,,,,,,
,,56514c84715ff50011a43878,2022-09-08_13h56.18.623,CGTgamblingSpanTasks,2022.2.1,Linux x86_64,60.04924038,,,,,,,,2.8337,,,,,,,,,,,,,,1,n,1.1663,6.091504705,0,3.8337,1,,,,,,6.662965216,0,6.091504705,,,,,,,,,,,,,0,56,56,102,1,0.035087099,0,,,,,,,,,,,,,,,,,,,,,,,,,,,,,,,,,,,,,,,,,,,,,,,,,,,,,,,,,,,,,,,,,,,,,,,,,,,,,,,,
,,56514c84715ff50011a43878,2022-09-08_13h56.18.623,CGTgamblingSpanTasks,2022.2.1,Linux x86_64,60.04924038,,,,,,,,3.1632,,,,,,,,,,,,,,1,v,0.8368,15.13999312,1,4.6632,1.5,,,,,,15.13999312,0,8.653432553,,,,,,,,,,,,,0,57,57,54,1,0.081767484,0,,,,,,,,,,,,,,,,,,,,,,,,,,,,,,,,,,,,,,,,,,,,,,,,,,,,,,,,,,,,,,,,,,,,,,,,,,,,,,,,
,,56514c84715ff50011a43878,2022-09-08_13h56.18.623,CGTgamblingSpanTasks,2022.2.1,Linux x86_64,60.04924038,,,,,,,,3.1494,,,,,,,,,,,,,,1,v,0.8506,9.012590634,1,4.1494,1,,,,,,9.012590634,0,1.002188111,,,,,,,,,,,,,0,58,58,12,1,0.46958041,1,,,,,,,,,,,,,,,,,,,,,,,,,,,,,,,,,,,,,,,,,,,,,,,,,,,,,,,,,,,,,,,,,,,,,,,,,,,,,,,,
,,56514c84715ff50011a43878,2022-09-08_13h56.18.623,CGTgamblingSpanTasks,2022.2.1,Linux x86_64,60.04924038,,,,,,,,3.1927,,,,,,,,,,,,,,2,n,0.8073,26.36733703,1,4.6927,1.5,,,,,,26.36733703,0,2.201057101,,,,,,,,,,,,,0,59,59,90,1,0.544064207,1,,,,,,,,,,,,,,,,,,,,,,,,,,,,,,,,,,,,,,,,,,,,,,,,,,,,,,,,,,,,,,,,,,,,,,,,,,,,,,,,
,,56514c84715ff50011a43878,2022-09-08_13h56.18.623,CGTgamblingSpanTasks,2022.2.1,Linux x86_64,60.04924038,,,,,,,,3.2795,,,,,,,,,,,,,,2,n,0.7205,21.39646914,1,4.2795,1,,,,,,21.39646914,0,0.072474078,,,,,,,,,,,,,0,60,60,3,1,0.902848133,0,,,,,,,,,,,,,,,,,,,,,,,,,,,,,,,,,,,,,,,,,,,,,,,,,,,,,,,,,,,,,,,,,,,,,,,,,,,,,,,,
,,56514c84715ff50011a43878,2022-09-08_13h56.18.623,CGTgamblingSpanTasks,2022.2.1,Linux x86_64,60.04924038,,,,,,,,3.1429,,,,,,,,,,,,,,2,n,0.8571,0,1,4.1429,1,,,,,,27.37527992,0,2.860319095,,,,,,,,,,,,,0,61,61,39,1,0.486304156,1,,,,,,,,,,,,,,,,,,,,,,,,,,,,,,,,,,,,,,,,,,,,,,,,,,,,,,,,,,,,,,,,,,,,,,,,,,,,,,,,
,,56514c84715ff50011a43878,2022-09-08_13h56.18.623,CGTgamblingSpanTasks,2022.2.1,Linux x86_64,60.04924038,,,,,,,,3.2,,,,,,,,,,,,,,1,v,0.8,0,1,4.7,1.5,,,,,,17.5608285,0,1.825111303,,,,,,,,,,,,,0,62,62,104,1,0.487721116,1,,,,,,,,,,,,,,,,,,,,,,,,,,,,,,,,,,,,,,,,,,,,,,,,,,,,,,,,,,,,,,,,,,,,,,,,,,,,,,,,
,,56514c84715ff50011a43878,2022-09-08_13h56.18.623,CGTgamblingSpanTasks,2022.2.1,Linux x86_64,60.04924038,,,,,,,,3.232,,,,,,,,,,,,,,2,n,0.768,0,1,4.232,1,,,,,,18.51345298,0,1.932334278,,,,,,,,,,,,,0,63,63,31,1,0.48658696,1,,,,,,,,,,,,,,,,,,,,,,,,,,,,,,,,,,,,,,,,,,,,,,,,,,,,,,,,,,,,,,,,,,,,,,,,,,,,,,,,
,,56514c84715ff50011a43878,2022-09-08_13h56.18.623,CGTgamblingSpanTasks,2022.2.1,Linux x86_64,60.04924038,,,,,,,,3.3817,,,,,,,,,,,,,,1,v,0.6183,27.2532142,1,4.8817,1.5,,,,,,27.2532142,0,0.08089327,,,,,,,,,,,,,0,64,64,119,1,0.907091845,0,,,,,,,,,,,,,,,,,,,,,,,,,,,,,,,,,,,,,,,,,,,,,,,,,,,,,,,,,,,,,,,,,,,,,,,,,,,,,,,,
,,56514c84715ff50011a43878,2022-09-08_13h56.18.623,CGTgamblingSpanTasks,2022.2.1,Linux x86_64,60.04924038,,,,,,,,3.3474,,,,,,,,,,,,,,1,v,0.6526,0,1,4.8474,1.5,,,,,,27.39221343,0,2.743407746,,,,,,,,,,,,,0,65,65,47,1,0.49752044,1,,,,,,,,,,,,,,,,,,,,,,,,,,,,,,,,,,,,,,,,,,,,,,,,,,,,,,,,,,,,,,,,,,,,,,,,,,,,,,,,
,,56514c84715ff50011a43878,2022-09-08_13h56.18.623,CGTgamblingSpanTasks,2022.2.1,Linux x86_64,60.04924038,,,,,,,,3.0983,,,,,,,,,,,,,,2,v,0.9017,3.877530383,0,4.5983,1.5,,,,,,3.471484939,0,3.877530383,,,,,,,,,,,,,0,66,66,40,1,0.02623078,0,,,,,,,,,,,,,,,,,,,,,,,,,,,,,,,,,,,,,,,,,,,,,,,,,,,,,,,,,,,,,,,,,,,,,,,,,,,,,,,,
,,56514c84715ff50011a43878,2022-09-08_13h56.18.623,CGTgamblingSpanTasks,2022.2.1,Linux x86_64,60.04924038,,,,,,,,2.9675,,,,,,,,,,,,,,2,v,1.0325,11.42134125,0,3.9675,1,,,,,,12.9904115,0,11.42134125,,,,,,,,,,,,,0,67,67,118,1,0.037876033,0,,,,,,,,,,,,,,,,,,,,,,,,,,,,,,,,,,,,,,,,,,,,,,,,,,,,,,,,,,,,,,,,,,,,,,,,,,,,,,,,
,,56514c84715ff50011a43878,2022-09-08_13h56.18.623,CGTgamblingSpanTasks,2022.2.1,Linux x86_64,60.04924038,,,,,,,,3.2993,,,,,,,,,,,,,,2,n,0.7007,14.11762686,1,4.2993,1,,,,,,14.11762686,0,8.579385201,,,,,,,,,,,,,0,68,68,60,1,0.073886959,0,,,,,,,,,,,,,,,,,,,,,,,,,,,,,,,,,,,,,,,,,,,,,,,,,,,,,,,,,,,,,,,,,,,,,,,,,,,,,,,,
,,56514c84715ff50011a43878,2022-09-08_13h56.18.623,CGTgamblingSpanTasks,2022.2.1,Linux x86_64,60.04924038,,,,,,,,3.0647,,,,,,,,,,,,,,2,v,0.9353,8.512335864,0,4.5647,1.5,,,,,,10.05300841,0,8.512335864,,,,,,,,,,,,,0,69,69,74,1,0.040729225,0,,,,,,,,,,,,,,,,,,,,,,,,,,,,,,,,,,,,,,,,,,,,,,,,,,,,,,,,,,,,,,,,,,,,,,,,,,,,,,,,
,,56514c84715ff50011a43878,2022-09-08_13h56.18.623,CGTgamblingSpanTasks,2022.2.1,Linux x86_64,60.04924038,,,,,,,,3.1773,,,,,,,,,,,,,,1,v,0.8227,22.72923833,1,4.1773,1,,,,,,22.72923833,0,0.067170781,,,,,,,,,,,,,0,70,70,86,1,0.907226703,0,,,,,,,,,,,,,,,,,,,,,,,,,,,,,,,,,,,,,,,,,,,,,,,,,,,,,,,,,,,,,,,,,,,,,,,,,,,,,,,,
,,56514c84715ff50011a43878,2022-09-08_13h56.18.623,CGTgamblingSpanTasks,2022.2.1,Linux x86_64,60.04924038,,,,,,,,3.2804,,,,,,,,,,,,,,2,n,0.7196,29.75778644,1,4.2804,1,,,,,,29.75778644,0,2.810531415,,,,,,,,,,,,,0,71,71,113,1,0.512824233,1,,,,,,,,,,,,,,,,,,,,,,,,,,,,,,,,,,,,,,,,,,,,,,,,,,,,,,,,,,,,,,,,,,,,,,,,,,,,,,,,
,,56514c84715ff50011a43878,2022-09-08_13h56.18.623,CGTgamblingSpanTasks,2022.2.1,Linux x86_64,60.04924038,,,,,,,,3.2985,,,,,,,,,,,,,,2,n,0.7015,0,1,4.7985,1.5,,,,,,19.3050342,0,2.030232342,,,,,,,,,,,,,0,72,72,73,1,0.484573227,1,,,,,,,,,,,,,,,,,,,,,,,,,,,,,,,,,,,,,,,,,,,,,,,,,,,,,,,,,,,,,,,,,,,,,,,,,,,,,,,,
,,56514c84715ff50011a43878,2022-09-08_13h56.18.623,CGTgamblingSpanTasks,2022.2.1,Linux x86_64,60.04924038,,,,,,,,3.3505,,,,,,,,,,,,,,1,v,0.6495,0,1,4.8505,1.5,,,,,,20.97851654,0,11.39288827,,,,,,,,,,,,,0,73,73,2,1,0.088791079,0,,,,,,,,,,,,,,,,,,,,,,,,,,,,,,,,,,,,,,,,,,,,,,,,,,,,,,,,,,,,,,,,,,,,,,,,,,,,,,,,
,,56514c84715ff50011a43878,2022-09-08_13h56.18.623,CGTgamblingSpanTasks,2022.2.1,Linux x86_64,60.04924038,,,,,,,,3.2979,,,,,,,,,,,,,,2,n,0.7021,0,1,4.7979,1.5,,,,,,27.60724521,0,0.088432325,,,,,,,,,,,,,0,74,74,17,1,0.904684186,0,,,,,,,,,,,,,,,,,,,,,,,,,,,,,,,,,,,,,,,,,,,,,,,,,,,,,,,,,,,,,,,,,,,,,,,,,,,,,,,,
,,56514c84715ff50011a43878,2022-09-08_13h56.18.623,CGTgamblingSpanTasks,2022.2.1,Linux x86_64,60.04924038,,,,,,,,3.3862,,,,,,,,,,,,,,1,v,0.6138,24.479109,1,4.8862,1.5,,,,,,24.479109,0,0.089582697,,,,,,,,,,,,,0,75,75,89,1,0.900200232,0,,,,,,,,,,,,,,,,,,,,,,,,,,,,,,,,,,,,,,,,,,,,,,,,,,,,,,,,,,,,,,,,,,,,,,,,,,,,,,,,
,,56514c84715ff50011a43878,2022-09-08_13h56.18.623,CGTgamblingSpanTasks,2022.2.1,Linux x86_64,60.04924038,,,,,,,,3.3463,,,,,,,,,,,,,,2,n,0.6537,13.96521039,1,4.3463,1,,,,,,13.96521039,0,1.591282699,,,,,,,,,,,,,0,76,76,49,1,0.462956344,1,,,,,,,,,,,,,,,,,,,,,,,,,,,,,,,,,,,,,,,,,,,,,,,,,,,,,,,,,,,,,,,,,,,,,,,,,,,,,,,,
,,56514c84715ff50011a43878,2022-09-08_13h56.18.623,CGTgamblingSpanTasks,2022.2.1,Linux x86_64,60.04924038,,,,,,,,3.1306,,,,,,,,,,,,,,1,n,0.8694,4.904872644,0,4.6306,1.5,,,,,,4.698775357,0,4.904872644,,,,,,,,,,,,,0,77,77,75,1,0.028064484,0,,,,,,,,,,,,,,,,,,,,,,,,,,,,,,,,,,,,,,,,,,,,,,,,,,,,,,,,,,,,,,,,,,,,,,,,,,,,,,,,
,,56514c84715ff50011a43878,2022-09-08_13h56.18.623,CGTgamblingSpanTasks,2022.2.1,Linux x86_64,60.04924038,,,,,,,,3.3171,,,,,,,,,,,,,,2,n,0.6829,0,1,4.8171,1.5,,,,,,27.53810185,0,0.097022401,,,,,,,,,,,,,0,78,78,50,1,0.901515865,0,,,,,,,,,,,,,,,,,,,,,,,,,,,,,,,,,,,,,,,,,,,,,,,,,,,,,,,,,,,,,,,,,,,,,,,,,,,,,,,,
,,56514c84715ff50011a43878,2022-09-08_13h56.18.623,CGTgamblingSpanTasks,2022.2.1,Linux x86_64,60.04924038,,,,,,,,2.9992,,,,,,,,,,,,,,1,v,1.0008,9.725876653,1,4.4992,1.5,,,,,,9.725876653,0,5.526483034,,,,,,,,,,,,,0,79,79,44,1,0.082550696,0,,,,,,,,,,,,,,,,,,,,,,,,,,,,,,,,,,,,,,,,,,,,,,,,,,,,,,,,,,,,,,,,,,,,,,,,,,,,,,,,
,,56514c84715ff50011a43878,2022-09-08_13h56.18.623,CGTgamblingSpanTasks,2022.2.1,Linux x86_64,60.04924038,,,,,,,,3.3737,,,,,,,,,,,,,,2,n,0.6263,0,1,4.8737,1.5,,,,,,29.76099779,0,0.095763086,,,,,,,,,,,,,0,80,80,35,1,0.904537896,0,,,,,,,,,,,,,,,,,,,,,,,,,,,,,,,,,,,,,,,,,,,,,,,,,,,,,,,,,,,,,,,,,,,,,,,,,,,,,,,,
,,56514c84715ff50011a43878,2022-09-08_13h56.18.623,CGTgamblingSpanTasks,2022.2.1,Linux x86_64,60.04924038,,,,,,,,3.1836,,,,,,,,,,,,,,2,n,0.8164,0,1,4.6836,1.5,,,,,,17.4320197,0,1.448620949,,,,,,,,,,,,,0,81,81,30,1,0.545178213,1,,,,,,,,,,,,,,,,,,,,,,,,,,,,,,,,,,,,,,,,,,,,,,,,,,,,,,,,,,,,,,,,,,,,,,,,,,,,,,,,
,,56514c84715ff50011a43878,2022-09-08_13h56.18.623,CGTgamblingSpanTasks,2022.2.1,Linux x86_64,60.04924038,,,,,,,,3.3326,,,,,,,,,,,,,,2,n,0.6674,0,1,4.3326,1,,,,,,21.00799273,0,0.067969053,,,,,,,,,,,,,0,82,82,92,1,0.904360262,0,,,,,,,,,,,,,,,,,,,,,,,,,,,,,,,,,,,,,,,,,,,,,,,,,,,,,,,,,,,,,,,,,,,,,,,,,,,,,,,,
,,56514c84715ff50011a43878,2022-09-08_13h56.18.623,CGTgamblingSpanTasks,2022.2.1,Linux x86_64,60.04924038,,,,,,,,3.4811,,,,,,,,,,,,,,1,v,0.5189,28.9323758,1,4.9811,1.5,,,,,,28.9323758,0,2.893007023,,,,,,,,,,,,,0,83,83,11,1,0.497943321,1,,,,,,,,,,,,,,,,,,,,,,,,,,,,,,,,,,,,,,,,,,,,,,,,,,,,,,,,,,,,,,,,,,,,,,,,,,,,,,,,
,,56514c84715ff50011a43878,2022-09-08_13h56.18.623,CGTgamblingSpanTasks,2022.2.1,Linux x86_64,60.04924038,,,,,,,,3.3227,,,,,,,,,,,,,,1,v,0.6773,0,1,4.3227,1,,,,,,17.30137174,0,1.716380842,,,,,,,,,,,,,0,84,84,20,1,0.500020285,1,,,,,,,,,,,,,,,,,,,,,,,,,,,,,,,,,,,,,,,,,,,,,,,,,,,,,,,,,,,,,,,,,,,,,,,,,,,,,,,,
,,56514c84715ff50011a43878,2022-09-08_13h56.18.623,CGTgamblingSpanTasks,2022.2.1,Linux x86_64,60.04924038,,,,,,,,3.2105,,,,,,,,,,,,,,2,v,0.7895,4.462262453,0,4.2105,1,,,,,,0.192759042,0,4.462262453,,,,,,,,,,,,,0,85,85,52,1,0.003553223,0,,,,,,,,,,,,,,,,,,,,,,,,,,,,,,,,,,,,,,,,,,,,,,,,,,,,,,,,,,,,,,,,,,,,,,,,,,,,,,,,
,,56514c84715ff50011a43878,2022-09-08_13h56.18.623,CGTgamblingSpanTasks,2022.2.1,Linux x86_64,60.04924038,,,,,,,,3.3647,,,,,,,,,,,,,,1,v,0.6353,26.4985979,1,4.8647,1.5,,,,,,26.4985979,0,0.051324376,,,,,,,,,,,,,0,86,86,106,1,0.918747215,0,,,,,,,,,,,,,,,,,,,,,,,,,,,,,,,,,,,,,,,,,,,,,,,,,,,,,,,,,,,,,,,,,,,,,,,,,,,,,,,,
,,56514c84715ff50011a43878,2022-09-08_13h56.18.623,CGTgamblingSpanTasks,2022.2.1,Linux x86_64,60.04924038,,,,,,,,3.3145,,,,,,,,,,,,,,2,n,0.6855,25.26994993,1,4.8145,1.5,,,,,,25.26994993,0,2.78925142,,,,,,,,,,,,,0,87,87,108,1,0.471582922,1,,,,,,,,,,,,,,,,,,,,,,,,,,,,,,,,,,,,,,,,,,,,,,,,,,,,,,,,,,,,,,,,,,,,,,,,,,,,,,,,
,,56514c84715ff50011a43878,2022-09-08_13h56.18.623,CGTgamblingSpanTasks,2022.2.1,Linux x86_64,60.04924038,,,,,,,,3.3307,,,,,,,,,,,,,,2,v,0.6693,4.251676631,0,4.3307,1,,,,,,3.395192929,0,4.251676631,,,,,,,,,,,,,0,88,88,7,1,0.023467153,0,,,,,,,,,,,,,,,,,,,,,,,,,,,,,,,,,,,,,,,,,,,,,,,,,,,,,,,,,,,,,,,,,,,,,,,,,,,,,,,,
,,56514c84715ff50011a43878,2022-09-08_13h56.18.623,CGTgamblingSpanTasks,2022.2.1,Linux x86_64,60.04924038,,,,,,,,3.0992,,,,,,,,,,,,,,1,n,0.9008,10.41201161,0,4.5992,1.5,,,,,,6.307062696,0,10.41201161,,,,,,,,,,,,,0,89,89,23,1,0.018187109,0,,,,,,,,,,,,,,,,,,,,,,,,,,,,,,,,,,,,,,,,,,,,,,,,,,,,,,,,,,,,,,,,,,,,,,,,,,,,,,,,
,,56514c84715ff50011a43878,2022-09-08_13h56.18.623,CGTgamblingSpanTasks,2022.2.1,Linux x86_64,60.04924038,,,,,,,,3.2469,,,,,,,,,,,,,,1,n,0.7531,7.646213173,0,4.2469,1,,,,,,2.042350179,0,7.646213173,,,,,,,,,,,,,0,90,90,53,1,0.009522273,0,,,,,,,,,,,,,,,,,,,,,,,,,,,,,,,,,,,,,,,,,,,,,,,,,,,,,,,,,,,,,,,,,,,,,,,,,,,,,,,,
,,56514c84715ff50011a43878,2022-09-08_13h56.18.623,CGTgamblingSpanTasks,2022.2.1,Linux x86_64,60.04924038,,,,,,,,3.2252,,,,,,,,,,,,,,2,v,0.7748,11.6744431,0,4.2252,1,,,,,,10.43004651,0,11.6744431,,,,,,,,,,,,,0,91,91,15,1,0.026176489,0,,,,,,,,,,,,,,,,,,,,,,,,,,,,,,,,,,,,,,,,,,,,,,,,,,,,,,,,,,,,,,,,,,,,,,,,,,,,,,,,
,,56514c84715ff50011a43878,2022-09-08_13h56.18.623,CGTgamblingSpanTasks,2022.2.1,Linux x86_64,60.04924038,,,,,,,,3.296,,,,,,,,,,,,,,2,n,0.704,17.85020524,1,4.296,1,,,,,,17.85020524,0,2.058701084,,,,,,,,,,,,,0,92,92,25,1,0.459662216,1,,,,,,,,,,,,,,,,,,,,,,,,,,,,,,,,,,,,,,,,,,,,,,,,,,,,,,,,,,,,,,,,,,,,,,,,,,,,,,,,
,,56514c84715ff50011a43878,2022-09-08_13h56.18.623,CGTgamblingSpanTasks,2022.2.1,Linux x86_64,60.04924038,,,,,,,,3.0269,,,,,,,,,,,,,,2,n,0.9731,0,1,4.0269,1,,,,,,17.92584289,0,1.878232496,,,,,,,,,,,,,0,93,93,5,1,0.485559263,1,,,,,,,,,,,,,,,,,,,,,,,,,,,,,,,,,,,,,,,,,,,,,,,,,,,,,,,,,,,,,,,,,,,,,,,,,,,,,,,,
,,56514c84715ff50011a43878,2022-09-08_13h56.18.623,CGTgamblingSpanTasks,2022.2.1,Linux x86_64,60.04924038,,,,,,,,3.3472,,,,,,,,,,,,,,2,n,0.6528,0,1,4.8472,1.5,,,,,,13.4287264,0,1.317368801,,,,,,,,,,,,,0,94,94,100,1,0.502953125,1,,,,,,,,,,,,,,,,,,,,,,,,,,,,,,,,,,,,,,,,,,,,,,,,,,,,,,,,,,,,,,,,,,,,,,,,,,,,,,,,
,,56514c84715ff50011a43878,2022-09-08_13h56.18.623,CGTgamblingSpanTasks,2022.2.1,Linux x86_64,60.04924038,,,,,,,,3.31,,,,,,,,,,,,,,2,v,0.69,11.41737518,0,4.81,1.5,,,,,,18.11029021,0,11.41737518,,,,,,,,,,,,,0,95,95,48,1,0.069445859,0,,,,,,,,,,,,,,,,,,,,,,,,,,,,,,,,,,,,,,,,,,,,,,,,,,,,,,,,,,,,,,,,,,,,,,,,,,,,,,,,
,,56514c84715ff50011a43878,2022-09-08_13h56.18.623,CGTgamblingSpanTasks,2022.2.1,Linux x86_64,60.04924038,,,,,,,,3.273,,,,,,,,,,,,,,2,v,0.727,5.683635938,0,4.773,1.5,,,,,,4.941039335,0,5.683635938,,,,,,,,,,,,,0,96,96,9,1,0.025481984,0,,,,,,,,,,,,,,,,,,,,,,,,,,,,,,,,,,,,,,,,,,,,,,,,,,,,,,,,,,,,,,,,,,,,,,,,,,,,,,,,
,,56514c84715ff50011a43878,2022-09-08_13h56.18.623,CGTgamblingSpanTasks,2022.2.1,Linux x86_64,60.04924038,,,,,,,,3.331,,,,,,,,,,,,,,1,v,0.669,28.94627214,1,4.331,1,,,,,,28.94627214,0,2.701896413,,,,,,,,,,,,,0,97,97,111,1,0.515860759,1,,,,,,,,,,,,,,,,,,,,,,,,,,,,,,,,,,,,,,,,,,,,,,,,,,,,,,,,,,,,,,,,,,,,,,,,,,,,,,,,
,,56514c84715ff50011a43878,2022-09-08_13h56.18.623,CGTgamblingSpanTasks,2022.2.1,Linux x86_64,60.04924038,,,,,,,,3.3819,,,,,,,,,,,,,,1,v,0.6181,0,1,4.3819,1,,,,,,24.57684014,0,0.061756244,,,,,,,,,,,,,0,98,98,68,1,0.911988903,0,,,,,,,,,,,,,,,,,,,,,,,,,,,,,,,,,,,,,,,,,,,,,,,,,,,,,,,,,,,,,,,,,,,,,,,,,,,,,,,,
,,56514c84715ff50011a43878,2022-09-08_13h56.18.623,CGTgamblingSpanTasks,2022.2.1,Linux x86_64,60.04924038,,,,,,,,3.3344,,,,,,,,,,,,,,2,v,0.6656,7.50753835,0,4.8344,1.5,,,,,,2.231316635,0,7.50753835,,,,,,,,,,,,,0,99,99,29,1,0.010273427,0,,,,,,,,,,,,,,,,,,,,,,,,,,,,,,,,,,,,,,,,,,,,,,,,,,,,,,,,,,,,,,,,,,,,,,,,,,,,,,,,
,,56514c84715ff50011a43878,2022-09-08_13h56.18.623,CGTgamblingSpanTasks,2022.2.1,Linux x86_64,60.04924038,,,,,,,,3.4457,,,,,,,,,,,,,,1,v,0.5543,22.87092517,1,4.9457,1.5,,,,,,22.87092517,0,0.059276504,,,,,,,,,,,,,0,100,100,27,1,0.911114935,0,,,,,,,,,,,,,,,,,,,,,,,,,,,,,,,,,,,,,,,,,,,,,,,,,,,,,,,,,,,,,,,,,,,,,,,,,,,,,,,,
,,56514c84715ff50011a43878,2022-09-08_13h56.18.623,CGTgamblingSpanTasks,2022.2.1,Linux x86_64,60.04924038,,,,,,,,3.3509,,,,,,,,,,,,,,1,v,0.6491,14.20587264,1,4.3509,1,,,,,,14.20587264,0,11.93550497,,,,,,,,,,,,,0,101,101,21,1,0.041340301,0,,,,,,,,,,,,,,,,,,,,,,,,,,,,,,,,,,,,,,,,,,,,,,,,,,,,,,,,,,,,,,,,,,,,,,,,,,,,,,,,
,,56514c84715ff50011a43878,2022-09-08_13h56.18.623,CGTgamblingSpanTasks,2022.2.1,Linux x86_64,60.04924038,,,,,,,,3.2482,,,,,,,,,,,,,,1,v,0.7518,28.9381277,1,4.2482,1,,,,,,28.9381277,0,2.663622024,,,,,,,,,,,,,0,102,102,103,1,0.519453367,1,,,,,,,,,,,,,,,,,,,,,,,,,,,,,,,,,,,,,,,,,,,,,,,,,,,,,,,,,,,,,,,,,,,,,,,,,,,,,,,,
,,56514c84715ff50011a43878,2022-09-08_13h56.18.623,CGTgamblingSpanTasks,2022.2.1,Linux x86_64,60.04924038,,,,,,,,3.3765,,,,,,,,,,,,,,2,n,0.6235,0,1,4.8765,1.5,,,,,,20.5726842,0,0.073558523,,,,,,,,,,,,,0,103,103,26,1,0.901008565,0,,,,,,,,,,,,,,,,,,,,,,,,,,,,,,,,,,,,,,,,,,,,,,,,,,,,,,,,,,,,,,,,,,,,,,,,,,,,,,,,
,,56514c84715ff50011a43878,2022-09-08_13h56.18.623,CGTgamblingSpanTasks,2022.2.1,Linux x86_64,60.04924038,,,,,,,,3.2917,,,,,,,,,,,,,,2,n,0.7083,13.84410806,1,4.7917,1.5,,,,,,13.84410806,0,1.535873964,,,,,,,,,,,,,0,104,104,88,1,0.470209002,1,,,,,,,,,,,,,,,,,,,,,,,,,,,,,,,,,,,,,,,,,,,,,,,,,,,,,,,,,,,,,,,,,,,,,,,,,,,,,,,,
,,56514c84715ff50011a43878,2022-09-08_13h56.18.623,CGTgamblingSpanTasks,2022.2.1,Linux x86_64,60.04924038,,,,,,,,3.2631,,,,,,,,,,,,,,2,n,0.7369,28.13634754,1,4.7631,1.5,,,,,,28.13634754,0,2.532806323,,,,,,,,,,,,,0,105,105,28,1,0.525136524,1,,,,,,,,,,,,,,,,,,,,,,,,,,,,,,,,,,,,,,,,,,,,,,,,,,,,,,,,,,,,,,,,,,,,,,,,,,,,,,,,
,,56514c84715ff50011a43878,2022-09-08_13h56.18.623,CGTgamblingSpanTasks,2022.2.1,Linux x86_64,60.04924038,,,,,,,,3.3111,,,,,,,,,,,,,,2,n,0.6889,0,1,4.8111,1.5,,,,,,25.0707644,0,0.067651625,,,,,,,,,,,,,0,106,106,70,1,0.909952349,0,,,,,,,,,,,,,,,,,,,,,,,,,,,,,,,,,,,,,,,,,,,,,,,,,,,,,,,,,,,,,,,,,,,,,,,,,,,,,,,,
,,56514c84715ff50011a43878,2022-09-08_13h56.18.623,CGTgamblingSpanTasks,2022.2.1,Linux x86_64,60.04924038,,,,,,,,3.2633,,,,,,,,,,,,,,1,v,0.7367,0,1,4.7633,1.5,,,,,,27.7711693,0,2.320849632,,,,,,,,,,,,,0,107,107,94,1,0.543786368,1,,,,,,,,,,,,,,,,,,,,,,,,,,,,,,,,,,,,,,,,,,,,,,,,,,,,,,,,,,,,,,,,,,,,,,,,,,,,,,,,
,,56514c84715ff50011a43878,2022-09-08_13h56.18.623,CGTgamblingSpanTasks,2022.2.1,Linux x86_64,60.04924038,,,,,,,,3.4431,,,,,,,,,,,,,,2,n,0.5569,27.12325385,1,4.4431,1,,,,,,27.12325385,0,0.080932047,,,,,,,,,,,,,0,108,108,14,1,0.906929184,0,,,,,,,,,,,,,,,,,,,,,,,,,,,,,,,,,,,,,,,,,,,,,,,,,,,,,,,,,,,,,,,,,,,,,,,,,,,,,,,,
,,56514c84715ff50011a43878,2022-09-08_13h56.18.623,CGTgamblingSpanTasks,2022.2.1,Linux x86_64,60.04924038,,,,,,,,3.3482,,,,,,,,,,,,,,2,n,0.6518,0,1,4.8482,1.5,,,,,,15.43649625,0,1.65459324,,,,,,,,,,,,,0,109,109,33,1,0.479480163,1,,,,,,,,,,,,,,,,,,,,,,,,,,,,,,,,,,,,,,,,,,,,,,,,,,,,,,,,,,,,,,,,,,,,,,,,,,,,,,,,
,,56514c84715ff50011a43878,2022-09-08_13h56.18.623,CGTgamblingSpanTasks,2022.2.1,Linux x86_64,60.04924038,,,,,,,,3.3321,,,,,,,,,,,,,,2,n,0.6679,29.77342428,1,4.8321,1.5,,,,,,29.77342428,0,2.838865588,,,,,,,,,,,,,0,110,110,57,1,0.510363415,1,,,,,,,,,,,,,,,,,,,,,,,,,,,,,,,,,,,,,,,,,,,,,,,,,,,,,,,,,,,,,,,,,,,,,,,,,,,,,,,,
,,56514c84715ff50011a43878,2022-09-08_13h56.18.623,CGTgamblingSpanTasks,2022.2.1,Linux x86_64,60.04924038,,,,,,,,3.1632,,,,,,,,,,,,,,1,v,0.8368,0,1,4.1632,1,,,,,,20.31034258,0,1.870404296,,,,,,,,,,,,,0,111,111,85,1,0.519325853,1,,,,,,,,,,,,,,,,,,,,,,,,,,,,,,,,,,,,,,,,,,,,,,,,,,,,,,,,,,,,,,,,,,,,,,,,,,,,,,,,
,,56514c84715ff50011a43878,2022-09-08_13h56.18.623,CGTgamblingSpanTasks,2022.2.1,Linux x86_64,60.04924038,,,,,,,,3.1062,,,,,,,,,,,,,,1,v,0.8938,7.066129113,1,4.6062,1.5,,,,,,7.066129113,0,0.585581699,,,,,,,,,,,,,0,112,112,19,1,0.545860632,1,,,,,,,,,,,,,,,,,,,,,,,,,,,,,,,,,,,,,,,,,,,,,,,,,,,,,,,,,,,,,,,,,,,,,,,,,,,,,,,,
,,56514c84715ff50011a43878,2022-09-08_13h56.18.623,CGTgamblingSpanTasks,2022.2.1,Linux x86_64,60.04924038,,,,,,,,3.1942,,,,,,,,,,,,,,2,v,0.8058,2.067660742,0,4.1942,1,,,,,,21.2188881,0,2.067660742,,,,,,,,,,,,,0,113,113,107,1,0.50470775,1,,,,,,,,,,,,,,,,,,,,,,,,,,,,,,,,,,,,,,,,,,,,,,,,,,,,,,,,,,,,,,,,,,,,,,,,,,,,,,,,
,,56514c84715ff50011a43878,2022-09-08_13h56.18.623,CGTgamblingSpanTasks,2022.2.1,Linux x86_64,60.04924038,,,,,,,,2.6992,,,,,,,,,,,,,,2,v,1.3008,10.68505773,0,4.1992,1.5,,,,,,17.64114152,0,10.68505773,,,,,,,,,,,,,0,114,114,98,1,0.074299362,0,,,,,,,,,,,,,,,,,,,,,,,,,,,,,,,,,,,,,,,,,,,,,,,,,,,,,,,,,,,,,,,,,,,,,,,,,,,,,,,,
,,56514c84715ff50011a43878,2022-09-08_13h56.18.623,CGTgamblingSpanTasks,2022.2.1,Linux x86_64,60.04924038,,,,,,,,3.1318,,,,,,,,,,,,,,1,v,0.8682,0,1,4.6318,1.5,,,,,,28.18900855,0,0.05384276,,,,,,,,,,,,,0,115,115,55,1,0.919081308,0,,,,,,,,,,,,,,,,,,,,,,,,,,,,,,,,,,,,,,,,,,,,,,,,,,,,,,,,,,,,,,,,,,,,,,,,,,,,,,,,
,,56514c84715ff50011a43878,2022-09-08_13h56.18.623,CGTgamblingSpanTasks,2022.2.1,Linux x86_64,60.04924038,,,,,,,,3.0164,,,,,,,,,,,,,,2,n,0.9836,28.14876717,1,4.5164,1.5,,,,,,28.14876717,0,3.117906378,,,,,,,,,,,,,0,116,116,76,1,0.470636736,1,,,,,,,,,,,,,,,,,,,,,,,,,,,,,,,,,,,,,,,,,,,,,,,,,,,,,,,,,,,,,,,,,,,,,,,,,,,,,,,,
,,56514c84715ff50011a43878,2022-09-08_13h56.18.623,CGTgamblingSpanTasks,2022.2.1,Linux x86_64,60.04924038,,,,,,,,2.9826,,,,,,,,,,,,,,1,v,1.0174,0,1,3.9826,1,,,,,,24.66627941,0,2.765426402,,,,,,,,,,,,,0,117,117,24,1,0.467360588,1,,,,,,,,,,,,,,,,,,,,,,,,,,,,,,,,,,,,,,,,,,,,,,,,,,,,,,,,,,,,,,,,,,,,,,,,,,,,,,,,
,,56514c84715ff50011a43878,2022-09-08_13h56.18.623,CGTgamblingSpanTasks,2022.2.1,Linux x86_64,60.04924038,,,,,,,,3.1956,,,,,,,,,,,,,,2,n,0.8044,0,1,4.1956,1,,,,,,23.4214135,0,2.485985001,,,,,,,,,,,,,0,118,118,81,1,0.482105905,1,,,,,,,,,,,,,,,,,,,,,,,,,,,,,,,,,,,,,,,,,,,,,,,,,,,,,,,,,,,,,,,,,,,,,,,,,,,,,,,,
,,56514c84715ff50011a43878,2022-09-08_13h56.18.623,CGTgamblingSpanTasks,2022.2.1,Linux x86_64,60.04924038,,,,,,,,2.9982,,,,,,,,,,,,,,1,v,1.0018,0,1,4.4982,1.5,,,,,,25.21882231,0,0.085746782,,,,,,,,,,,,,0,119,119,64,1,0.90272076,0,,,,,,,,,,,,,,,,,,,,,,,,,,,,,,,,,,,,,,,,,,,,,,,,,,,,,,,,,,,,,,,,,,,,,,,,,,,,,,,,
,,56514c84715ff50011a43878,2022-09-08_13h56.18.623,CGTgamblingSpanTasks,2022.2.1,Linux x86_64,60.04924038,,,,,,,,,,,,,,,,,,,,,,,,,,,,,,,,,,,,,,,,,,,,,,,,,,,,,,,,return,14.0765,,,,,,,,,,,,,,,,,,,,,,,,,,,,,,,,,,,,,,,,,,,,,,,,,,,,,,,,,,,,,,,,,,,,,,,,,,,,,,
,,56514c84715ff50011a43878,2022-09-08_13h56.18.623,CGTgamblingSpanTasks,2022.2.1,Linux x86_64,60.04924038,,,,,,,,,,,,,,,,,,,,,,,,,,,,,,,,,,,,,,,,,,,,,,,,,,,,,,,,,,return,10.0465,,,,,,,,,,,,,,,,,,,,,,,,,,,,,,,,,,,,,,,,,,,,,,,,,,,,,,,,,,,,,,,,,,,,,,,,,,,,
,,56514c84715ff50011a43878,2022-09-08_13h56.18.623,CGTgamblingSpanTasks,2022.2.1,Linux x86_64,60.04924038,,,,,,,,,,,,,,,,,,,,,,,,,,,,,,,,,,,,,,,,,,,,,,,,,,,,,,,,,,,,return,15.3108,,,,,,,,,,,,,,,,,,,,,,,,,,,,,,,,,,,,,,,,,,,,,,,,,,,,,,,,,,,,,,,,,,,,,,,,,,
,,56514c84715ff50011a43878,2022-09-08_13h56.18.623,CGTgamblingSpanTasks,2022.2.1,Linux x86_64,60.04924038,,,,,,,,,,,,,,,,,,,,,,,,,,,,,,,,,,,,,,,,,,,,,,,,,,,,,,,,,,,,,,342,1,0.090758085,-0.387346506,1,0,0,cont_buttonPractice,0,0,0,0,1,3,342,24,2,42,,,,,,,,,,,,,,,,,,,,,,,,,,,,,,,,,,,,,,,,,,,,,,,,,,,,,,,,
,,56514c84715ff50011a43878,2022-09-08_13h56.18.623,CGTgamblingSpanTasks,2022.2.1,Linux x86_64,60.04924038,,,,,,,,,,,,,,,,,,,,,,,,,,,,,,,,,,,,,,,,,,,,,,,,,,,,,,,,,,,,,,937,1,0.071177642,-0.371863286,1,0,0,cont_buttonPractice,0,1,1,1,1,3,937,73,2,37,,,,,,,,,,,,,,,,,,,,,,,,,,,,,,,,,,,,,,,,,,,,,,,,,,,,,,,,
,,56514c84715ff50011a43878,2022-09-08_13h56.18.623,CGTgamblingSpanTasks,2022.2.1,Linux x86_64,60.04924038,,,,,,,,,,,,,,,,,,,,,,,,,,,,,,,,,,,,,,,,,,,,,,,,,,,,,,,,,,,,,,,,,,,,,,,,,,,,,,,,return,5.3544,,,,,,,,,,,,,,,,,,,,,,,,,,,,,,,,,,,,,,,,,,,,,,,,,,,,,,
,,56514c84715ff50011a43878,2022-09-08_13h56.18.623,CGTgamblingSpanTasks,2022.2.1,Linux x86_64,60.04924038,,,,,,,,,,,,,,,,,,,,,,,,,,,,,,,,,,,,,,,,,,,,,,,,,,,,,,,,,,,,,,,,,,,,,,,,,,,,,,,,,,"[7,6,8]",0,0,0,0,1,,,,,,,,,,,,,,,,,,,,,,,,,,,,,,,,,,,,,,,,,,,,,,,,
,,56514c84715ff50011a43878,2022-09-08_13h56.18.623,CGTgamblingSpanTasks,2022.2.1,Linux x86_64,60.04924038,,,,,,,,,,,,,,,,,,,,,,,,,,,,,,,,,,,,,,,,,,,,,,,,,,,,,,,,,,,,,,,,,,,,,,,,,,,,,,,,,,"[7,6,8]",1,0,1,0,1,,,,,,,,,,,,,,,,,,,,,,,,,,,,,,,,,,,,,,,,,,,,,,,,
,,56514c84715ff50011a43878,2022-09-08_13h56.18.623,CGTgamblingSpanTasks,2022.2.1,Linux x86_64,60.04924038,,,,,,,,,,,,,,,,,,,,,,,,,,,,,,,,,,,,,,,,,,,,,,,,,,,,,,,,,,,,,,,,,,,,,,,,,,,,,,,,,,"[7,6,8]",2,0,2,0,1,,,,,,,,,,,,,,,,,,,,,,,,,,,,,,,,,,,,,,,,,,,,,,,,
,,56514c84715ff50011a43878,2022-09-08_13h56.18.623,CGTgamblingSpanTasks,2022.2.1,Linux x86_64,60.04924038,,,,,,,,,,,,,,,,,,,,,,,,,,,,,,,,,,,,,,,,,,,,,,,,,,,,,,,,,,,,,,,1,,,,,,,,,,,,,,,,,,,,,,,,,768,0.1087509,-0.415643374,1,0,0,cont_button,0,0,0,0,1,1,,,,,,,,,,,,,,,,,,,,,,,,,,,,,,,,,,,
,,56514c84715ff50011a43878,2022-09-08_13h56.18.623,CGTgamblingSpanTasks,2022.2.1,Linux x86_64,60.04924038,,,,,,,,,,,,,,,,,,,,,,,,,,,,,,,,,,,,,,,,,,,,,,,,,,,,,,,,,,,,,,,,,,,,,,,,,,,,,,,,,,"[2,4,3,8]",0,0,0,0,1,,,,,,,,,,,,,,,,,,,,,,,,,,,,,,,,,,,,,,,,,,,,,,,,
,,56514c84715ff50011a43878,2022-09-08_13h56.18.623,CGTgamblingSpanTasks,2022.2.1,Linux x86_64,60.04924038,,,,,,,,,,,,,,,,,,,,,,,,,,,,,,,,,,,,,,,,,,,,,,,,,,,,,,,,,,,,,,,,,,,,,,,,,,,,,,,,,,"[2,4,3,8]",1,0,1,0,1,,,,,,,,,,,,,,,,,,,,,,,,,,,,,,,,,,,,,,,,,,,,,,,,
,,56514c84715ff50011a43878,2022-09-08_13h56.18.623,CGTgamblingSpanTasks,2022.2.1,Linux x86_64,60.04924038,,,,,,,,,,,,,,,,,,,,,,,,,,,,,,,,,,,,,,,,,,,,,,,,,,,,,,,,,,,,,,,,,,,,,,,,,,,,,,,,,,"[2,4,3,8]",2,0,2,0,1,,,,,,,,,,,,,,,,,,,,,,,,,,,,,,,,,,,,,,,,,,,,,,,,
,,56514c84715ff50011a43878,2022-09-08_13h56.18.623,CGTgamblingSpanTasks,2022.2.1,Linux x86_64,60.04924038,,,,,,,,,,,,,,,,,,,,,,,,,,,,,,,,,,,,,,,,,,,,,,,,,,,,,,,,,,,,,,,,,,,,,,,,,,,,,,,,,,"[2,4,3,8]",3,0,3,0,1,,,,,,,,,,,,,,,,,,,,,,,,,,,,,,,,,,,,,,,,,,,,,,,,
,,56514c84715ff50011a43878,2022-09-08_13h56.18.623,CGTgamblingSpanTasks,2022.2.1,Linux x86_64,60.04924038,,,,,,,,,,,,,,,,,,,,,,,,,,,,,,,,,,,,,,,,,,,,,,,,,,,,,,,,,,,,,,,1,,,,,,,,,,,,,,,,,,,,,,,,,2438,0.117218097,-0.422050158,1,0,0,cont_button,0,1,1,1,1,2,,,,,,,,,,,,,,,,,,,,,,,,,,,,,,,,,,,
,,56514c84715ff50011a43878,2022-09-08_13h56.18.623,CGTgamblingSpanTasks,2022.2.1,Linux x86_64,60.04924038,,,,,,,,,,,,,,,,,,,,,,,,,,,,,,,,,,,,,,,,,,,,,,,,,,,,,,,,,,,,,,,,,,,,,,,,,,,,,,,,,,"[2,3,6,8,4]",0,0,0,0,1,,,,,,,,,,,,,,,,,,,,,,,,,,,,,,,,,,,,,,,,,,,,,,,,
,,56514c84715ff50011a43878,2022-09-08_13h56.18.623,CGTgamblingSpanTasks,2022.2.1,Linux x86_64,60.04924038,,,,,,,,,,,,,,,,,,,,,,,,,,,,,,,,,,,,,,,,,,,,,,,,,,,,,,,,,,,,,,,,,,,,,,,,,,,,,,,,,,"[2,3,6,8,4]",1,0,1,0,1,,,,,,,,,,,,,,,,,,,,,,,,,,,,,,,,,,,,,,,,,,,,,,,,
,,56514c84715ff50011a43878,2022-09-08_13h56.18.623,CGTgamblingSpanTasks,2022.2.1,Linux x86_64,60.04924038,,,,,,,,,,,,,,,,,,,,,,,,,,,,,,,,,,,,,,,,,,,,,,,,,,,,,,,,,,,,,,,,,,,,,,,,,,,,,,,,,,"[2,3,6,8,4]",2,0,2,0,1,,,,,,,,,,,,,,,,,,,,,,,,,,,,,,,,,,,,,,,,,,,,,,,,
,,56514c84715ff50011a43878,2022-09-08_13h56.18.623,CGTgamblingSpanTasks,2022.2.1,Linux x86_64,60.04924038,,,,,,,,,,,,,,,,,,,,,,,,,,,,,,,,,,,,,,,,,,,,,,,,,,,,,,,,,,,,,,,,,,,,,,,,,,,,,,,,,,"[2,3,6,8,4]",3,0,3,0,1,,,,,,,,,,,,,,,,,,,,,,,,,,,,,,,,,,,,,,,,,,,,,,,,
,,56514c84715ff50011a43878,2022-09-08_13h56.18.623,CGTgamblingSpanTasks,2022.2.1,Linux x86_64,60.04924038,,,,,,,,,,,,,,,,,,,,,,,,,,,,,,,,,,,,,,,,,,,,,,,,,,,,,,,,,,,,,,,,,,,,,,,,,,,,,,,,,,"[2,3,6,8,4]",4,0,4,0,1,,,,,,,,,,,,,,,,,,,,,,,,,,,,,,,,,,,,,,,,,,,,,,,,
,,56514c84715ff50011a43878,2022-09-08_13h56.18.623,CGTgamblingSpanTasks,2022.2.1,Linux x86_64,60.04924038,,,,,,,,,,,,,,,,,,,,,,,,,,,,,,,,,,,,,,,,,,,,,,,,,,,,,,,,,,,,,,,1,,,,,,,,,,,,,,,,,,,,,,,,,23684,0.093933264,-0.407100916,1,0,0,cont_button,0,2,2,2,1,3,,,,,,,,,,,,,,,,,,,,,,,,,,,,,,,,,,,
,,56514c84715ff50011a43878,2022-09-08_13h56.18.623,CGTgamblingSpanTasks,2022.2.1,Linux x86_64,60.04924038,,,,,,,,,,,,,,,,,,,,,,,,,,,,,,,,,,,,,,,,,,,,,,,,,,,,,,,,,,,,,,,,,,,,,,,,,,,,,,,,,,"[2,7,1,9,4,8]",0,0,0,0,1,,,,,,,,,,,,,,,,,,,,,,,,,,,,,,,,,,,,,,,,,,,,,,,,
,,56514c84715ff50011a43878,2022-09-08_13h56.18.623,CGTgamblingSpanTasks,2022.2.1,Linux x86_64,60.04924038,,,,,,,,,,,,,,,,,,,,,,,,,,,,,,,,,,,,,,,,,,,,,,,,,,,,,,,,,,,,,,,,,,,,,,,,,,,,,,,,,,"[2,7,1,9,4,8]",1,0,1,0,1,,,,,,,,,,,,,,,,,,,,,,,,,,,,,,,,,,,,,,,,,,,,,,,,
,,56514c84715ff50011a43878,2022-09-08_13h56.18.623,CGTgamblingSpanTasks,2022.2.1,Linux x86_64,60.04924038,,,,,,,,,,,,,,,,,,,,,,,,,,,,,,,,,,,,,,,,,,,,,,,,,,,,,,,,,,,,,,,,,,,,,,,,,,,,,,,,,,"[2,7,1,9,4,8]",2,0,2,0,1,,,,,,,,,,,,,,,,,,,,,,,,,,,,,,,,,,,,,,,,,,,,,,,,
,,56514c84715ff50011a43878,2022-09-08_13h56.18.623,CGTgamblingSpanTasks,2022.2.1,Linux x86_64,60.04924038,,,,,,,,,,,,,,,,,,,,,,,,,,,,,,,,,,,,,,,,,,,,,,,,,,,,,,,,,,,,,,,,,,,,,,,,,,,,,,,,,,"[2,7,1,9,4,8]",3,0,3,0,1,,,,,,,,,,,,,,,,,,,,,,,,,,,,,,,,,,,,,,,,,,,,,,,,
,,56514c84715ff50011a43878,2022-09-08_13h56.18.623,CGTgamblingSpanTasks,2022.2.1,Linux x86_64,60.04924038,,,,,,,,,,,,,,,,,,,,,,,,,,,,,,,,,,,,,,,,,,,,,,,,,,,,,,,,,,,,,,,,,,,,,,,,,,,,,,,,,,"[2,7,1,9,4,8]",4,0,4,0,1,,,,,,,,,,,,,,,,,,,,,,,,,,,,,,,,,,,,,,,,,,,,,,,,
,,56514c84715ff50011a43878,2022-09-08_13h56.18.623,CGTgamblingSpanTasks,2022.2.1,Linux x86_64,60.04924038,,,,,,,,,,,,,,,,,,,,,,,,,,,,,,,,,,,,,,,,,,,,,,,,,,,,,,,,,,,,,,,,,,,,,,,,,,,,,,,,,,"[2,7,1,9,4,8]",5,0,5,0,1,,,,,,,,,,,,,,,,,,,,,,,,,,,,,,,,,,,,,,,,,,,,,,,,
,,56514c84715ff50011a43878,2022-09-08_13h56.18.623,CGTgamblingSpanTasks,2022.2.1,Linux x86_64,60.04924038,,,,,,,,,,,,,,,,,,,,,,,,,,,,,,,,,,,,,,,,,,,,,,,,,,,,,,,,,,,,,,,1,,,,,,,,,,,,,,,,,,,,,,,,,271948,0.082820018,-0.392685493,1,0,0,cont_button,0,3,3,3,1,4,,,,,,,,,,,,,,,,,,,,,,,,,,,,,,,,,,,
,,56514c84715ff50011a43878,2022-09-08_13h56.18.623,CGTgamblingSpanTasks,2022.2.1,Linux x86_64,60.04924038,,,,,,,,,,,,,,,,,,,,,,,,,,,,,,,,,,,,,,,,,,,,,,,,,,,,,,,,,,,,,,,,,,,,,,,,,,,,,,,,,,"[2,7,5,4,1,8,3]",0,0,0,0,1,,,,,,,,,,,,,,,,,,,,,,,,,,,,,,,,,,,,,,,,,,,,,,,,
,,56514c84715ff50011a43878,2022-09-08_13h56.18.623,CGTgamblingSpanTasks,2022.2.1,Linux x86_64,60.04924038,,,,,,,,,,,,,,,,,,,,,,,,,,,,,,,,,,,,,,,,,,,,,,,,,,,,,,,,,,,,,,,,,,,,,,,,,,,,,,,,,,"[2,7,5,4,1,8,3]",1,0,1,0,1,,,,,,,,,,,,,,,,,,,,,,,,,,,,,,,,,,,,,,,,,,,,,,,,
,,56514c84715ff50011a43878,2022-09-08_13h56.18.623,CGTgamblingSpanTasks,2022.2.1,Linux x86_64,60.04924038,,,,,,,,,,,,,,,,,,,,,,,,,,,,,,,,,,,,,,,,,,,,,,,,,,,,,,,,,,,,,,,,,,,,,,,,,,,,,,,,,,"[2,7,5,4,1,8,3]",2,0,2,0,1,,,,,,,,,,,,,,,,,,,,,,,,,,,,,,,,,,,,,,,,,,,,,,,,
,,56514c84715ff50011a43878,2022-09-08_13h56.18.623,CGTgamblingSpanTasks,2022.2.1,Linux x86_64,60.04924038,,,,,,,,,,,,,,,,,,,,,,,,,,,,,,,,,,,,,,,,,,,,,,,,,,,,,,,,,,,,,,,,,,,,,,,,,,,,,,,,,,"[2,7,5,4,1,8,3]",3,0,3,0,1,,,,,,,,,,,,,,,,,,,,,,,,,,,,,,,,,,,,,,,,,,,,,,,,
,,56514c84715ff50011a43878,2022-09-08_13h56.18.623,CGTgamblingSpanTasks,2022.2.1,Linux x86_64,60.04924038,,,,,,,,,,,,,,,,,,,,,,,,,,,,,,,,,,,,,,,,,,,,,,,,,,,,,,,,,,,,,,,,,,,,,,,,,,,,,,,,,,"[2,7,5,4,1,8,3]",4,0,4,0,1,,,,,,,,,,,,,,,,,,,,,,,,,,,,,,,,,,,,,,,,,,,,,,,,
,,56514c84715ff50011a43878,2022-09-08_13h56.18.623,CGTgamblingSpanTasks,2022.2.1,Linux x86_64,60.04924038,,,,,,,,,,,,,,,,,,,,,,,,,,,,,,,,,,,,,,,,,,,,,,,,,,,,,,,,,,,,,,,,,,,,,,,,,,,,,,,,,,"[2,7,5,4,1,8,3]",5,0,5,0,1,,,,,,,,,,,,,,,,,,,,,,,,,,,,,,,,,,,,,,,,,,,,,,,,
,,56514c84715ff50011a43878,2022-09-08_13h56.18.623,CGTgamblingSpanTasks,2022.2.1,Linux x86_64,60.04924038,,,,,,,,,,,,,,,,,,,,,,,,,,,,,,,,,,,,,,,,,,,,,,,,,,,,,,,,,,,,,,,,,,,,,,,,,,,,,,,,,,"[2,7,5,4,1,8,3]",6,0,6,0,1,,,,,,,,,,,,,,,,,,,,,,,,,,,,,,,,,,,,,,,,,,,,,,,,
,,56514c84715ff50011a43878,2022-09-08_13h56.18.623,CGTgamblingSpanTasks,2022.2.1,Linux x86_64,60.04924038,,,,,,,,,,,,,,,,,,,,,,,,,,,,,,,,,,,,,,,,,,,,,,,,,,,,,,,,,,,,,,,1,,,,,,,,,,,,,,,,,,,,,,,,,2754183,0.142619769,-0.388948202,1,0,0,cont_button,0,4,4,4,1,5,,,,,,,,,,,,,,,,,,,,,,,,,,,,,,,,,,,
,,56514c84715ff50011a43878,2022-09-08_13h56.18.623,CGTgamblingSpanTasks,2022.2.1,Linux x86_64,60.04924038,,,,,,,,,,,,,,,,,,,,,,,,,,,,,,,,,,,,,,,,,,,,,,,,,,,,,,,,,,,,,,,,,,,,,,,,,,,,,,,,,,"[5,8,4,7,3,2,9,6]",0,0,0,0,1,,,,,,,,,,,,,,,,,,,,,,,,,,,,,,,,,,,,,,,,,,,,,,,,
,,56514c84715ff50011a43878,2022-09-08_13h56.18.623,CGTgamblingSpanTasks,2022.2.1,Linux x86_64,60.04924038,,,,,,,,,,,,,,,,,,,,,,,,,,,,,,,,,,,,,,,,,,,,,,,,,,,,,,,,,,,,,,,,,,,,,,,,,,,,,,,,,,"[5,8,4,7,3,2,9,6]",1,0,1,0,1,,,,,,,,,,,,,,,,,,,,,,,,,,,,,,,,,,,,,,,,,,,,,,,,
,,56514c84715ff50011a43878,2022-09-08_13h56.18.623,CGTgamblingSpanTasks,2022.2.1,Linux x86_64,60.04924038,,,,,,,,,,,,,,,,,,,,,,,,,,,,,,,,,,,,,,,,,,,,,,,,,,,,,,,,,,,,,,,,,,,,,,,,,,,,,,,,,,"[5,8,4,7,3,2,9,6]",2,0,2,0,1,,,,,,,,,,,,,,,,,,,,,,,,,,,,,,,,,,,,,,,,,,,,,,,,
,,56514c84715ff50011a43878,2022-09-08_13h56.18.623,CGTgamblingSpanTasks,2022.2.1,Linux x86_64,60.04924038,,,,,,,,,,,,,,,,,,,,,,,,,,,,,,,,,,,,,,,,,,,,,,,,,,,,,,,,,,,,,,,,,,,,,,,,,,,,,,,,,,"[5,8,4,7,3,2,9,6]",3,0,3,0,1,,,,,,,,,,,,,,,,,,,,,,,,,,,,,,,,,,,,,,,,,,,,,,,,
,,56514c84715ff50011a43878,2022-09-08_13h56.18.623,CGTgamblingSpanTasks,2022.2.1,Linux x86_64,60.04924038,,,,,,,,,,,,,,,,,,,,,,,,,,,,,,,,,,,,,,,,,,,,,,,,,,,,,,,,,,,,,,,,,,,,,,,,,,,,,,,,,,"[5,8,4,7,3,2,9,6]",4,0,4,0,1,,,,,,,,,,,,,,,,,,,,,,,,,,,,,,,,,,,,,,,,,,,,,,,,
,,56514c84715ff50011a43878,2022-09-08_13h56.18.623,CGTgamblingSpanTasks,2022.2.1,Linux x86_64,60.04924038,,,,,,,,,,,,,,,,,,,,,,,,,,,,,,,,,,,,,,,,,,,,,,,,,,,,,,,,,,,,,,,,,,,,,,,,,,,,,,,,,,"[5,8,4,7,3,2,9,6]",5,0,5,0,1,,,,,,,,,,,,,,,,,,,,,,,,,,,,,,,,,,,,,,,,,,,,,,,,
,,56514c84715ff50011a43878,2022-09-08_13h56.18.623,CGTgamblingSpanTasks,2022.2.1,Linux x86_64,60.04924038,,,,,,,,,,,,,,,,,,,,,,,,,,,,,,,,,,,,,,,,,,,,,,,,,,,,,,,,,,,,,,,,,,,,,,,,,,,,,,,,,,"[5,8,4,7,3,2,9,6]",6,0,6,0,1,,,,,,,,,,,,,,,,,,,,,,,,,,,,,,,,,,,,,,,,,,,,,,,,
,,56514c84715ff50011a43878,2022-09-08_13h56.18.623,CGTgamblingSpanTasks,2022.2.1,Linux x86_64,60.04924038,,,,,,,,,,,,,,,,,,,,,,,,,,,,,,,,,,,,,,,,,,,,,,,,,,,,,,,,,,,,,,,,,,,,,,,,,,,,,,,,,,"[5,8,4,7,3,2,9,6]",7,0,7,0,1,,,,,,,,,,,,,,,,,,,,,,,,,,,,,,,,,,,,,,,,,,,,,,,,
,,56514c84715ff50011a43878,2022-09-08_13h56.18.623,CGTgamblingSpanTasks,2022.2.1,Linux x86_64,60.04924038,,,,,,,,,,,,,,,,,,,,,,,,,,,,,,,,,,,,,,,,,,,,,,,,,,,,,,,,,,,,,,,1,,,,,,,,,,,,,,,,,,,,,,,,,58473296,0.119334936,-0.414575497,1,0,0,cont_button,0,5,5,5,1,6,,,,,,,,,,,,,,,,,,,,,,,,,,,,,,,,,,,
,,56514c84715ff50011a43878,2022-09-08_13h56.18.623,CGTgamblingSpanTasks,2022.2.1,Linux x86_64,60.04924038,,,,,,,,,,,,,,,,,,,,,,,,,,,,,,,,,,,,,,,,,,,,,,,,,,,,,,,,,,,,,,,,,,,,,,,,,,,,,,,,,,"[3,5,4,6,9,2,8,7,1]",0,0,0,0,1,,,,,,,,,,,,,,,,,,,,,,,,,,,,,,,,,,,,,,,,,,,,,,,,
,,56514c84715ff50011a43878,2022-09-08_13h56.18.623,CGTgamblingSpanTasks,2022.2.1,Linux x86_64,60.04924038,,,,,,,,,,,,,,,,,,,,,,,,,,,,,,,,,,,,,,,,,,,,,,,,,,,,,,,,,,,,,,,,,,,,,,,,,,,,,,,,,,"[3,5,4,6,9,2,8,7,1]",1,0,1,0,1,,,,,,,,,,,,,,,,,,,,,,,,,,,,,,,,,,,,,,,,,,,,,,,,
,,56514c84715ff50011a43878,2022-09-08_13h56.18.623,CGTgamblingSpanTasks,2022.2.1,Linux x86_64,60.04924038,,,,,,,,,,,,,,,,,,,,,,,,,,,,,,,,,,,,,,,,,,,,,,,,,,,,,,,,,,,,,,,,,,,,,,,,,,,,,,,,,,"[3,5,4,6,9,2,8,7,1]",2,0,2,0,1,,,,,,,,,,,,,,,,,,,,,,,,,,,,,,,,,,,,,,,,,,,,,,,,
,,56514c84715ff50011a43878,2022-09-08_13h56.18.623,CGTgamblingSpanTasks,2022.2.1,Linux x86_64,60.04924038,,,,,,,,,,,,,,,,,,,,,,,,,,,,,,,,,,,,,,,,,,,,,,,,,,,,,,,,,,,,,,,,,,,,,,,,,,,,,,,,,,"[3,5,4,6,9,2,8,7,1]",3,0,3,0,1,,,,,,,,,,,,,,,,,,,,,,,,,,,,,,,,,,,,,,,,,,,,,,,,
,,56514c84715ff50011a43878,2022-09-08_13h56.18.623,CGTgamblingSpanTasks,2022.2.1,Linux x86_64,60.04924038,,,,,,,,,,,,,,,,,,,,,,,,,,,,,,,,,,,,,,,,,,,,,,,,,,,,,,,,,,,,,,,,,,,,,,,,,,,,,,,,,,"[3,5,4,6,9,2,8,7,1]",4,0,4,0,1,,,,,,,,,,,,,,,,,,,,,,,,,,,,,,,,,,,,,,,,,,,,,,,,
,,56514c84715ff50011a43878,2022-09-08_13h56.18.623,CGTgamblingSpanTasks,2022.2.1,Linux x86_64,60.04924038,,,,,,,,,,,,,,,,,,,,,,,,,,,,,,,,,,,,,,,,,,,,,,,,,,,,,,,,,,,,,,,,,,,,,,,,,,,,,,,,,,"[3,5,4,6,9,2,8,7,1]",5,0,5,0,1,,,,,,,,,,,,,,,,,,,,,,,,,,,,,,,,,,,,,,,,,,,,,,,,
,,56514c84715ff50011a43878,2022-09-08_13h56.18.623,CGTgamblingSpanTasks,2022.2.1,Linux x86_64,60.04924038,,,,,,,,,,,,,,,,,,,,,,,,,,,,,,,,,,,,,,,,,,,,,,,,,,,,,,,,,,,,,,,,,,,,,,,,,,,,,,,,,,"[3,5,4,6,9,2,8,7,1]",6,0,6,0,1,,,,,,,,,,,,,,,,,,,,,,,,,,,,,,,,,,,,,,,,,,,,,,,,
,,56514c84715ff50011a43878,2022-09-08_13h56.18.623,CGTgamblingSpanTasks,2022.2.1,Linux x86_64,60.04924038,,,,,,,,,,,,,,,,,,,,,,,,,,,,,,,,,,,,,,,,,,,,,,,,,,,,,,,,,,,,,,,,,,,,,,,,,,,,,,,,,,"[3,5,4,6,9,2,8,7,1]",7,0,7,0,1,,,,,,,,,,,,,,,,,,,,,,,,,,,,,,,,,,,,,,,,,,,,,,,,
,,56514c84715ff50011a43878,2022-09-08_13h56.18.623,CGTgamblingSpanTasks,2022.2.1,Linux x86_64,60.04924038,,,,,,,,,,,,,,,,,,,,,,,,,,,,,,,,,,,,,,,,,,,,,,,,,,,,,,,,,,,,,,,,,,,,,,,,,,,,,,,,,,"[3,5,4,6,9,2,8,7,1]",8,0,8,0,1,,,,,,,,,,,,,,,,,,,,,,,,,,,,,,,,,,,,,,,,,,,,,,,,
,,56514c84715ff50011a43878,2022-09-08_13h56.18.623,CGTgamblingSpanTasks,2022.2.1,Linux x86_64,60.04924038,,,,,,,,,,,,,,,,,,,,,,,,,,,,,,,,,,,,,,,,,,,,,,,,,,,,,,,,,,,,,,,1,,,,,,,,,,,,,,,,,,,,,,,,,354692871,0.131506602,-0.429524819,1,0,0,cont_button,0,6,6,6,1,7,,,,,,,,,,,,,,,,,,,,,,,,,,,,,,,,,,,
,,56514c84715ff50011a43878,2022-09-08_13h56.18.623,CGTgamblingSpanTasks,2022.2.1,Linux x86_64,60.04924038,,,,,,,,,,,,,,,,,,,,,,,,,,,,,,,,,,,,,,,,,,,,,,,,,,,,,,,,,,,,,,,,,,,,,,,,,,,,,,,,,,"[7,2,4,5,8,6,3,1,9,9]",0,0,0,0,1,,,,,,,,,,,,,,,,,,,,,,,,,,,,,,,,,,,,,,,,,,,,,,,,
,,56514c84715ff50011a43878,2022-09-08_13h56.18.623,CGTgamblingSpanTasks,2022.2.1,Linux x86_64,60.04924038,,,,,,,,,,,,,,,,,,,,,,,,,,,,,,,,,,,,,,,,,,,,,,,,,,,,,,,,,,,,,,,,,,,,,,,,,,,,,,,,,,"[7,2,4,5,8,6,3,1,9,9]",1,0,1,0,1,,,,,,,,,,,,,,,,,,,,,,,,,,,,,,,,,,,,,,,,,,,,,,,,
,,56514c84715ff50011a43878,2022-09-08_13h56.18.623,CGTgamblingSpanTasks,2022.2.1,Linux x86_64,60.04924038,,,,,,,,,,,,,,,,,,,,,,,,,,,,,,,,,,,,,,,,,,,,,,,,,,,,,,,,,,,,,,,,,,,,,,,,,,,,,,,,,,"[7,2,4,5,8,6,3,1,9,9]",2,0,2,0,1,,,,,,,,,,,,,,,,,,,,,,,,,,,,,,,,,,,,,,,,,,,,,,,,
,,56514c84715ff50011a43878,2022-09-08_13h56.18.623,CGTgamblingSpanTasks,2022.2.1,Linux x86_64,60.04924038,,,,,,,,,,,,,,,,,,,,,,,,,,,,,,,,,,,,,,,,,,,,,,,,,,,,,,,,,,,,,,,,,,,,,,,,,,,,,,,,,,"[7,2,4,5,8,6,3,1,9,9]",3,0,3,0,1,,,,,,,,,,,,,,,,,,,,,,,,,,,,,,,,,,,,,,,,,,,,,,,,
,,56514c84715ff50011a43878,2022-09-08_13h56.18.623,CGTgamblingSpanTasks,2022.2.1,Linux x86_64,60.04924038,,,,,,,,,,,,,,,,,,,,,,,,,,,,,,,,,,,,,,,,,,,,,,,,,,,,,,,,,,,,,,,,,,,,,,,,,,,,,,,,,,"[7,2,4,5,8,6,3,1,9,9]",4,0,4,0,1,,,,,,,,,,,,,,,,,,,,,,,,,,,,,,,,,,,,,,,,,,,,,,,,
,,56514c84715ff50011a43878,2022-09-08_13h56.18.623,CGTgamblingSpanTasks,2022.2.1,Linux x86_64,60.04924038,,,,,,,,,,,,,,,,,,,,,,,,,,,,,,,,,,,,,,,,,,,,,,,,,,,,,,,,,,,,,,,,,,,,,,,,,,,,,,,,,,"[7,2,4,5,8,6,3,1,9,9]",5,0,5,0,1,,,,,,,,,,,,,,,,,,,,,,,,,,,,,,,,,,,,,,,,,,,,,,,,
,,56514c84715ff50011a43878,2022-09-08_13h56.18.623,CGTgamblingSpanTasks,2022.2.1,Linux x86_64,60.04924038,,,,,,,,,,,,,,,,,,,,,,,,,,,,,,,,,,,,,,,,,,,,,,,,,,,,,,,,,,,,,,,,,,,,,,,,,,,,,,,,,,"[7,2,4,5,8,6,3,1,9,9]",6,0,6,0,1,,,,,,,,,,,,,,,,,,,,,,,,,,,,,,,,,,,,,,,,,,,,,,,,
,,56514c84715ff50011a43878,2022-09-08_13h56.18.623,CGTgamblingSpanTasks,2022.2.1,Linux x86_64,60.04924038,,,,,,,,,,,,,,,,,,,,,,,,,,,,,,,,,,,,,,,,,,,,,,,,,,,,,,,,,,,,,,,,,,,,,,,,,,,,,,,,,,"[7,2,4,5,8,6,3,1,9,9]",7,0,7,0,1,,,,,,,,,,,,,,,,,,,,,,,,,,,,,,,,,,,,,,,,,,,,,,,,
,,56514c84715ff50011a43878,2022-09-08_13h56.18.623,CGTgamblingSpanTasks,2022.2.1,Linux x86_64,60.04924038,,,,,,,,,,,,,,,,,,,,,,,,,,,,,,,,,,,,,,,,,,,,,,,,,,,,,,,,,,,,,,,,,,,,,,,,,,,,,,,,,,"[7,2,4,5,8,6,3,1,9,9]",8,0,8,0,1,,,,,,,,,,,,,,,,,,,,,,,,,,,,,,,,,,,,,,,,,,,,,,,,
,,56514c84715ff50011a43878,2022-09-08_13h56.18.623,CGTgamblingSpanTasks,2022.2.1,Linux x86_64,60.04924038,,,,,,,,,,,,,,,,,,,,,,,,,,,,,,,,,,,,,,,,,,,,,,,,,,,,,,,,,,,,,,,,,,,,,,,,,,,,,,,,,,"[7,2,4,5,8,6,3,1,9,9]",9,0,9,0,1,,,,,,,,,,,,,,,,,,,,,,,,,,,,,,,,,,,,,,,,,,,,,,,,
,,56514c84715ff50011a43878,2022-09-08_13h56.18.623,CGTgamblingSpanTasks,2022.2.1,Linux x86_64,60.04924038,,,,,,,,,,,,,,,,,,,,,,,,,,,,,,,,,,,,,,,,,,,,,,,,,,,,,,,,,,,,,,,0,,,,,,,,,,,,,,,,,,,,,,,,,7845963193,0.013494651,-0.428457022,1,0,0,cont_button,0,7,7,7,1,8,,,,,,,,,,,,,,,,,,,,,,,,,,,,,,,,,,,
,,56514c84715ff50011a43878,2022-09-08_13h56.18.623,CGTgamblingSpanTasks,2022.2.1,Linux x86_64,60.04924038,,,,,,,,,,,,,,,,,,,,,,,,,,,,,,,,,,,,,,,,,,,,,,,,,,,,,,,,,,,,,,,,,,,,,,,,,,,,,,,,,,"[9,6,7,4,2,5,1,3,8,8]",0,0,0,0,1,,,,,,,,,,,,,,,,,,,,,,,,,,,,,,,,,,,,,,,,,,,,,,,,
,,56514c84715ff50011a43878,2022-09-08_13h56.18.623,CGTgamblingSpanTasks,2022.2.1,Linux x86_64,60.04924038,,,,,,,,,,,,,,,,,,,,,,,,,,,,,,,,,,,,,,,,,,,,,,,,,,,,,,,,,,,,,,,,,,,,,,,,,,,,,,,,,,"[9,6,7,4,2,5,1,3,8,8]",1,0,1,0,1,,,,,,,,,,,,,,,,,,,,,,,,,,,,,,,,,,,,,,,,,,,,,,,,
,,56514c84715ff50011a43878,2022-09-08_13h56.18.623,CGTgamblingSpanTasks,2022.2.1,Linux x86_64,60.04924038,,,,,,,,,,,,,,,,,,,,,,,,,,,,,,,,,,,,,,,,,,,,,,,,,,,,,,,,,,,,,,,,,,,,,,,,,,,,,,,,,,"[9,6,7,4,2,5,1,3,8,8]",2,0,2,0,1,,,,,,,,,,,,,,,,,,,,,,,,,,,,,,,,,,,,,,,,,,,,,,,,
,,56514c84715ff50011a43878,2022-09-08_13h56.18.623,CGTgamblingSpanTasks,2022.2.1,Linux x86_64,60.04924038,,,,,,,,,,,,,,,,,,,,,,,,,,,,,,,,,,,,,,,,,,,,,,,,,,,,,,,,,,,,,,,,,,,,,,,,,,,,,,,,,,"[9,6,7,4,2,5,1,3,8,8]",3,0,3,0,1,,,,,,,,,,,,,,,,,,,,,,,,,,,,,,,,,,,,,,,,,,,,,,,,
,,56514c84715ff50011a43878,2022-09-08_13h56.18.623,CGTgamblingSpanTasks,2022.2.1,Linux x86_64,60.04924038,,,,,,,,,,,,,,,,,,,,,,,,,,,,,,,,,,,,,,,,,,,,,,,,,,,,,,,,,,,,,,,,,,,,,,,,,,,,,,,,,,"[9,6,7,4,2,5,1,3,8,8]",4,0,4,0,1,,,,,,,,,,,,,,,,,,,,,,,,,,,,,,,,,,,,,,,,,,,,,,,,
,,56514c84715ff50011a43878,2022-09-08_13h56.18.623,CGTgamblingSpanTasks,2022.2.1,Linux x86_64,60.04924038,,,,,,,,,,,,,,,,,,,,,,,,,,,,,,,,,,,,,,,,,,,,,,,,,,,,,,,,,,,,,,,,,,,,,,,,,,,,,,,,,,"[9,6,7,4,2,5,1,3,8,8]",5,0,5,0,1,,,,,,,,,,,,,,,,,,,,,,,,,,,,,,,,,,,,,,,,,,,,,,,,
,,56514c84715ff50011a43878,2022-09-08_13h56.18.623,CGTgamblingSpanTasks,2022.2.1,Linux x86_64,60.04924038,,,,,,,,,,,,,,,,,,,,,,,,,,,,,,,,,,,,,,,,,,,,,,,,,,,,,,,,,,,,,,,,,,,,,,,,,,,,,,,,,,"[9,6,7,4,2,5,1,3,8,8]",6,0,6,0,1,,,,,,,,,,,,,,,,,,,,,,,,,,,,,,,,,,,,,,,,,,,,,,,,
,,56514c84715ff50011a43878,2022-09-08_13h56.18.623,CGTgamblingSpanTasks,2022.2.1,Linux x86_64,60.04924038,,,,,,,,,,,,,,,,,,,,,,,,,,,,,,,,,,,,,,,,,,,,,,,,,,,,,,,,,,,,,,,,,,,,,,,,,,,,,,,,,,"[9,6,7,4,2,5,1,3,8,8]",7,0,7,0,1,,,,,,,,,,,,,,,,,,,,,,,,,,,,,,,,,,,,,,,,,,,,,,,,
,,56514c84715ff50011a43878,2022-09-08_13h56.18.623,CGTgamblingSpanTasks,2022.2.1,Linux x86_64,60.04924038,,,,,,,,,,,,,,,,,,,,,,,,,,,,,,,,,,,,,,,,,,,,,,,,,,,,,,,,,,,,,,,,,,,,,,,,,,,,,,,,,,"[9,6,7,4,2,5,1,3,8,8]",8,0,8,0,1,,,,,,,,,,,,,,,,,,,,,,,,,,,,,,,,,,,,,,,,,,,,,,,,
,,56514c84715ff50011a43878,2022-09-08_13h56.18.623,CGTgamblingSpanTasks,2022.2.1,Linux x86_64,60.04924038,,,,,,,,,,,,,,,,,,,,,,,,,,,,,,,,,,,,,,,,,,,,,,,,,,,,,,,,,,,,,,,,,,,,,,,,,,,,,,,,,,"[9,6,7,4,2,5,1,3,8,8]",9,0,9,0,1,,,,,,,,,,,,,,,,,,,,,,,,,,,,,,,,,,,,,,,,,,,,,,,,
,,56514c84715ff50011a43878,2022-09-08_13h56.18.623,CGTgamblingSpanTasks,2022.2.1,Linux x86_64,60.04924038,,,,,,,,,,,,,,,,,,,,,,,,,,,,,,,,,,,,,,,,,,,,,,,,,,,,,,,,,,,,,,,1,,,,,,,,,,,,,,,,,,,,,,,,,9674251388,0.121980906,-0.40549922,1,0,0,cont_button,0,8,8,8,1,9,,,,,,,,,,,,,,,,,,,,,,,,,,,,,,,,,,,
,,56514c84715ff50011a43878,2022-09-08_13h56.18.623,CGTgamblingSpanTasks,2022.2.1,Linux x86_64,60.04924038,,,,,,,,,,,,,,,,,,,,,,,,,,,,,,,,,,,,,,,,,,,,,,,,,,,,,,,,,,,,,,,,,,,,,,,,,,,,,,,,,,"[2,6,5,3,9,1,4,8,7,7,5]",0,0,0,0,1,,,,,,,,,,,,,,,,,,,,,,,,,,,,,,,,,,,,,,,,,,,,,,,,
,,56514c84715ff50011a43878,2022-09-08_13h56.18.623,CGTgamblingSpanTasks,2022.2.1,Linux x86_64,60.04924038,,,,,,,,,,,,,,,,,,,,,,,,,,,,,,,,,,,,,,,,,,,,,,,,,,,,,,,,,,,,,,,,,,,,,,,,,,,,,,,,,,"[2,6,5,3,9,1,4,8,7,7,5]",1,0,1,0,1,,,,,,,,,,,,,,,,,,,,,,,,,,,,,,,,,,,,,,,,,,,,,,,,
,,56514c84715ff50011a43878,2022-09-08_13h56.18.623,CGTgamblingSpanTasks,2022.2.1,Linux x86_64,60.04924038,,,,,,,,,,,,,,,,,,,,,,,,,,,,,,,,,,,,,,,,,,,,,,,,,,,,,,,,,,,,,,,,,,,,,,,,,,,,,,,,,,"[2,6,5,3,9,1,4,8,7,7,5]",2,0,2,0,1,,,,,,,,,,,,,,,,,,,,,,,,,,,,,,,,,,,,,,,,,,,,,,,,
,,56514c84715ff50011a43878,2022-09-08_13h56.18.623,CGTgamblingSpanTasks,2022.2.1,Linux x86_64,60.04924038,,,,,,,,,,,,,,,,,,,,,,,,,,,,,,,,,,,,,,,,,,,,,,,,,,,,,,,,,,,,,,,,,,,,,,,,,,,,,,,,,,"[2,6,5,3,9,1,4,8,7,7,5]",3,0,3,0,1,,,,,,,,,,,,,,,,,,,,,,,,,,,,,,,,,,,,,,,,,,,,,,,,
,,56514c84715ff50011a43878,2022-09-08_13h56.18.623,CGTgamblingSpanTasks,2022.2.1,Linux x86_64,60.04924038,,,,,,,,,,,,,,,,,,,,,,,,,,,,,,,,,,,,,,,,,,,,,,,,,,,,,,,,,,,,,,,,,,,,,,,,,,,,,,,,,,"[2,6,5,3,9,1,4,8,7,7,5]",4,0,4,0,1,,,,,,,,,,,,,,,,,,,,,,,,,,,,,,,,,,,,,,,,,,,,,,,,
,,56514c84715ff50011a43878,2022-09-08_13h56.18.623,CGTgamblingSpanTasks,2022.2.1,Linux x86_64,60.04924038,,,,,,,,,,,,,,,,,,,,,,,,,,,,,,,,,,,,,,,,,,,,,,,,,,,,,,,,,,,,,,,,,,,,,,,,,,,,,,,,,,"[2,6,5,3,9,1,4,8,7,7,5]",5,0,5,0,1,,,,,,,,,,,,,,,,,,,,,,,,,,,,,,,,,,,,,,,,,,,,,,,,
,,56514c84715ff50011a43878,2022-09-08_13h56.18.623,CGTgamblingSpanTasks,2022.2.1,Linux x86_64,60.04924038,,,,,,,,,,,,,,,,,,,,,,,,,,,,,,,,,,,,,,,,,,,,,,,,,,,,,,,,,,,,,,,,,,,,,,,,,,,,,,,,,,"[2,6,5,3,9,1,4,8,7,7,5]",6,0,6,0,1,,,,,,,,,,,,,,,,,,,,,,,,,,,,,,,,,,,,,,,,,,,,,,,,
,,56514c84715ff50011a43878,2022-09-08_13h56.18.623,CGTgamblingSpanTasks,2022.2.1,Linux x86_64,60.04924038,,,,,,,,,,,,,,,,,,,,,,,,,,,,,,,,,,,,,,,,,,,,,,,,,,,,,,,,,,,,,,,,,,,,,,,,,,,,,,,,,,"[2,6,5,3,9,1,4,8,7,7,5]",7,0,7,0,1,,,,,,,,,,,,,,,,,,,,,,,,,,,,,,,,,,,,,,,,,,,,,,,,
,,56514c84715ff50011a43878,2022-09-08_13h56.18.623,CGTgamblingSpanTasks,2022.2.1,Linux x86_64,60.04924038,,,,,,,,,,,,,,,,,,,,,,,,,,,,,,,,,,,,,,,,,,,,,,,,,,,,,,,,,,,,,,,,,,,,,,,,,,,,,,,,,,"[2,6,5,3,9,1,4,8,7,7,5]",8,0,8,0,1,,,,,,,,,,,,,,,,,,,,,,,,,,,,,,,,,,,,,,,,,,,,,,,,
,,56514c84715ff50011a43878,2022-09-08_13h56.18.623,CGTgamblingSpanTasks,2022.2.1,Linux x86_64,60.04924038,,,,,,,,,,,,,,,,,,,,,,,,,,,,,,,,,,,,,,,,,,,,,,,,,,,,,,,,,,,,,,,,,,,,,,,,,,,,,,,,,,"[2,6,5,3,9,1,4,8,7,7,5]",9,0,9,0,1,,,,,,,,,,,,,,,,,,,,,,,,,,,,,,,,,,,,,,,,,,,,,,,,
,,56514c84715ff50011a43878,2022-09-08_13h56.18.623,CGTgamblingSpanTasks,2022.2.1,Linux x86_64,60.04924038,,,,,,,,,,,,,,,,,,,,,,,,,,,,,,,,,,,,,,,,,,,,,,,,,,,,,,,,,,,,,,,,,,,,,,,,,,,,,,,,,,"[2,6,5,3,9,1,4,8,7,7,5]",10,0,10,0,1,,,,,,,,,,,,,,,,,,,,,,,,,,,,,,,,,,,,,,,,,,,,,,,,
,,56514c84715ff50011a43878,2022-09-08_13h56.18.623,CGTgamblingSpanTasks,2022.2.1,Linux x86_64,60.04924038,,,,,,,,,,,,,,,,,,,,,,,,,,,,,,,,,,,,,,,,,,,,,,,,,,,,,,,,,,,,,,,0,,,,,,,,,,,,,,,,,,,,,,,,,2468941,0.113513708,-0.384677013,1,0,0,cont_button,0,9,9,9,1,10,,,,,,,,,,,,,,,,,,,,,,,,,,,,,,,,,,,
,,56514c84715ff50011a43878,2022-09-08_13h56.18.623,CGTgamblingSpanTasks,2022.2.1,Linux x86_64,60.04924038,,,,,,,,,,,,,,,,,,,,,,,,,,,,,,,,,,,,,,,,,,,,,,,,,,,,,,,,,,,,,,,,,,,,,,,,,,,,,,,,,,"[2,6,5,1,8,9,3,4,7,7,8]",0,0,0,0,1,,,,,,,,,,,,,,,,,,,,,,,,,,,,,,,,,,,,,,,,,,,,,,,,
,,56514c84715ff50011a43878,2022-09-08_13h56.18.623,CGTgamblingSpanTasks,2022.2.1,Linux x86_64,60.04924038,,,,,,,,,,,,,,,,,,,,,,,,,,,,,,,,,,,,,,,,,,,,,,,,,,,,,,,,,,,,,,,,,,,,,,,,,,,,,,,,,,"[2,6,5,1,8,9,3,4,7,7,8]",1,0,1,0,1,,,,,,,,,,,,,,,,,,,,,,,,,,,,,,,,,,,,,,,,,,,,,,,,
,,56514c84715ff50011a43878,2022-09-08_13h56.18.623,CGTgamblingSpanTasks,2022.2.1,Linux x86_64,60.04924038,,,,,,,,,,,,,,,,,,,,,,,,,,,,,,,,,,,,,,,,,,,,,,,,,,,,,,,,,,,,,,,,,,,,,,,,,,,,,,,,,,"[2,6,5,1,8,9,3,4,7,7,8]",2,0,2,0,1,,,,,,,,,,,,,,,,,,,,,,,,,,,,,,,,,,,,,,,,,,,,,,,,
,,56514c84715ff50011a43878,2022-09-08_13h56.18.623,CGTgamblingSpanTasks,2022.2.1,Linux x86_64,60.04924038,,,,,,,,,,,,,,,,,,,,,,,,,,,,,,,,,,,,,,,,,,,,,,,,,,,,,,,,,,,,,,,,,,,,,,,,,,,,,,,,,,"[2,6,5,1,8,9,3,4,7,7,8]",3,0,3,0,1,,,,,,,,,,,,,,,,,,,,,,,,,,,,,,,,,,,,,,,,,,,,,,,,
,,56514c84715ff50011a43878,2022-09-08_13h56.18.623,CGTgamblingSpanTasks,2022.2.1,Linux x86_64,60.04924038,,,,,,,,,,,,,,,,,,,,,,,,,,,,,,,,,,,,,,,,,,,,,,,,,,,,,,,,,,,,,,,,,,,,,,,,,,,,,,,,,,"[2,6,5,1,8,9,3,4,7,7,8]",4,0,4,0,1,,,,,,,,,,,,,,,,,,,,,,,,,,,,,,,,,,,,,,,,,,,,,,,,
,,56514c84715ff50011a43878,2022-09-08_13h56.18.623,CGTgamblingSpanTasks,2022.2.1,Linux x86_64,60.04924038,,,,,,,,,,,,,,,,,,,,,,,,,,,,,,,,,,,,,,,,,,,,,,,,,,,,,,,,,,,,,,,,,,,,,,,,,,,,,,,,,,"[2,6,5,1,8,9,3,4,7,7,8]",5,0,5,0,1,,,,,,,,,,,,,,,,,,,,,,,,,,,,,,,,,,,,,,,,,,,,,,,,
,,56514c84715ff50011a43878,2022-09-08_13h56.18.623,CGTgamblingSpanTasks,2022.2.1,Linux x86_64,60.04924038,,,,,,,,,,,,,,,,,,,,,,,,,,,,,,,,,,,,,,,,,,,,,,,,,,,,,,,,,,,,,,,,,,,,,,,,,,,,,,,,,,"[2,6,5,1,8,9,3,4,7,7,8]",6,0,6,0,1,,,,,,,,,,,,,,,,,,,,,,,,,,,,,,,,,,,,,,,,,,,,,,,,
,,56514c84715ff50011a43878,2022-09-08_13h56.18.623,CGTgamblingSpanTasks,2022.2.1,Linux x86_64,60.04924038,,,,,,,,,,,,,,,,,,,,,,,,,,,,,,,,,,,,,,,,,,,,,,,,,,,,,,,,,,,,,,,,,,,,,,,,,,,,,,,,,,"[2,6,5,1,8,9,3,4,7,7,8]",7,0,7,0,1,,,,,,,,,,,,,,,,,,,,,,,,,,,,,,,,,,,,,,,,,,,,,,,,
,,56514c84715ff50011a43878,2022-09-08_13h56.18.623,CGTgamblingSpanTasks,2022.2.1,Linux x86_64,60.04924038,,,,,,,,,,,,,,,,,,,,,,,,,,,,,,,,,,,,,,,,,,,,,,,,,,,,,,,,,,,,,,,,,,,,,,,,,,,,,,,,,,"[2,6,5,1,8,9,3,4,7,7,8]",8,0,8,0,1,,,,,,,,,,,,,,,,,,,,,,,,,,,,,,,,,,,,,,,,,,,,,,,,
,,56514c84715ff50011a43878,2022-09-08_13h56.18.623,CGTgamblingSpanTasks,2022.2.1,Linux x86_64,60.04924038,,,,,,,,,,,,,,,,,,,,,,,,,,,,,,,,,,,,,,,,,,,,,,,,,,,,,,,,,,,,,,,,,,,,,,,,,,,,,,,,,,"[2,6,5,1,8,9,3,4,7,7,8]",9,0,9,0,1,,,,,,,,,,,,,,,,,,,,,,,,,,,,,,,,,,,,,,,,,,,,,,,,
,,56514c84715ff50011a43878,2022-09-08_13h56.18.623,CGTgamblingSpanTasks,2022.2.1,Linux x86_64,60.04924038,,,,,,,,,,,,,,,,,,,,,,,,,,,,,,,,,,,,,,,,,,,,,,,,,,,,,,,,,,,,,,,,,,,,,,,,,,,,,,,,,,"[2,6,5,1,8,9,3,4,7,7,8]",10,0,10,0,1,,,,,,,,,,,,,,,,,,,,,,,,,,,,,,,,,,,,,,,,,,,,,,,,
,,56514c84715ff50011a43878,2022-09-08_13h56.18.623,CGTgamblingSpanTasks,2022.2.1,Linux x86_64,60.04924038,,,,,,,,,,,,,,,,,,,,,,,,,,,,,,,,,,,,,,,,,,,,,,,,,,,,,,,,,,,,,,,0,,,,,,,,,,,,,,,,,,,,,,,,,26518937,0.101871252,-0.385210911,1,0,0,cont_button,0,10,10,10,1,11,,,,,,,,,,,,,,,,,,,,,,,,,,,,,,,,,,,
,,56514c84715ff50011a43878,2022-09-08_13h56.18.623,CGTgamblingSpanTasks,2022.2.1,Linux x86_64,60.04924038,,,,,,,,,,,,,,,,,,,,,,,,,,,,,,,,,,,,,,,,,,,,,,,,,,,,,,,,,,,,,,,,,,,,,,,,,,,,,,,,,,"[7,8,5,4,1,2,9,3,6,6]",0,0,0,0,1,,,,,,,,,,,,,,,,,,,,,,,,,,,,,,,,,,,,,,,,,,,,,,,,
,,56514c84715ff50011a43878,2022-09-08_13h56.18.623,CGTgamblingSpanTasks,2022.2.1,Linux x86_64,60.04924038,,,,,,,,,,,,,,,,,,,,,,,,,,,,,,,,,,,,,,,,,,,,,,,,,,,,,,,,,,,,,,,,,,,,,,,,,,,,,,,,,,"[7,8,5,4,1,2,9,3,6,6]",1,0,1,0,1,,,,,,,,,,,,,,,,,,,,,,,,,,,,,,,,,,,,,,,,,,,,,,,,
,,56514c84715ff50011a43878,2022-09-08_13h56.18.623,CGTgamblingSpanTasks,2022.2.1,Linux x86_64,60.04924038,,,,,,,,,,,,,,,,,,,,,,,,,,,,,,,,,,,,,,,,,,,,,,,,,,,,,,,,,,,,,,,,,,,,,,,,,,,,,,,,,,"[7,8,5,4,1,2,9,3,6,6]",2,0,2,0,1,,,,,,,,,,,,,,,,,,,,,,,,,,,,,,,,,,,,,,,,,,,,,,,,
,,56514c84715ff50011a43878,2022-09-08_13h56.18.623,CGTgamblingSpanTasks,2022.2.1,Linux x86_64,60.04924038,,,,,,,,,,,,,,,,,,,,,,,,,,,,,,,,,,,,,,,,,,,,,,,,,,,,,,,,,,,,,,,,,,,,,,,,,,,,,,,,,,"[7,8,5,4,1,2,9,3,6,6]",3,0,3,0,1,,,,,,,,,,,,,,,,,,,,,,,,,,,,,,,,,,,,,,,,,,,,,,,,
,,56514c84715ff50011a43878,2022-09-08_13h56.18.623,CGTgamblingSpanTasks,2022.2.1,Linux x86_64,60.04924038,,,,,,,,,,,,,,,,,,,,,,,,,,,,,,,,,,,,,,,,,,,,,,,,,,,,,,,,,,,,,,,,,,,,,,,,,,,,,,,,,,"[7,8,5,4,1,2,9,3,6,6]",4,0,4,0,1,,,,,,,,,,,,,,,,,,,,,,,,,,,,,,,,,,,,,,,,,,,,,,,,
,,56514c84715ff50011a43878,2022-09-08_13h56.18.623,CGTgamblingSpanTasks,2022.2.1,Linux x86_64,60.04924038,,,,,,,,,,,,,,,,,,,,,,,,,,,,,,,,,,,,,,,,,,,,,,,,,,,,,,,,,,,,,,,,,,,,,,,,,,,,,,,,,,"[7,8,5,4,1,2,9,3,6,6]",5,0,5,0,1,,,,,,,,,,,,,,,,,,,,,,,,,,,,,,,,,,,,,,,,,,,,,,,,
,,56514c84715ff50011a43878,2022-09-08_13h56.18.623,CGTgamblingSpanTasks,2022.2.1,Linux x86_64,60.04924038,,,,,,,,,,,,,,,,,,,,,,,,,,,,,,,,,,,,,,,,,,,,,,,,,,,,,,,,,,,,,,,,,,,,,,,,,,,,,,,,,,"[7,8,5,4,1,2,9,3,6,6]",6,0,6,0,1,,,,,,,,,,,,,,,,,,,,,,,,,,,,,,,,,,,,,,,,,,,,,,,,
,,56514c84715ff50011a43878,2022-09-08_13h56.18.623,CGTgamblingSpanTasks,2022.2.1,Linux x86_64,60.04924038,,,,,,,,,,,,,,,,,,,,,,,,,,,,,,,,,,,,,,,,,,,,,,,,,,,,,,,,,,,,,,,,,,,,,,,,,,,,,,,,,,"[7,8,5,4,1,2,9,3,6,6]",7,0,7,0,1,,,,,,,,,,,,,,,,,,,,,,,,,,,,,,,,,,,,,,,,,,,,,,,,
,,56514c84715ff50011a43878,2022-09-08_13h56.18.623,CGTgamblingSpanTasks,2022.2.1,Linux x86_64,60.04924038,,,,,,,,,,,,,,,,,,,,,,,,,,,,,,,,,,,,,,,,,,,,,,,,,,,,,,,,,,,,,,,,,,,,,,,,,,,,,,,,,,"[7,8,5,4,1,2,9,3,6,6]",8,0,8,0,1,,,,,,,,,,,,,,,,,,,,,,,,,,,,,,,,,,,,,,,,,,,,,,,,
,,56514c84715ff50011a43878,2022-09-08_13h56.18.623,CGTgamblingSpanTasks,2022.2.1,Linux x86_64,60.04924038,,,,,,,,,,,,,,,,,,,,,,,,,,,,,,,,,,,,,,,,,,,,,,,,,,,,,,,,,,,,,,,,,,,,,,,,,,,,,,,,,,"[7,8,5,4,1,2,9,3,6,6]",9,0,9,0,1,,,,,,,,,,,,,,,,,,,,,,,,,,,,,,,,,,,,,,,,,,,,,,,,
,,56514c84715ff50011a43878,2022-09-08_13h56.18.623,CGTgamblingSpanTasks,2022.2.1,Linux x86_64,60.04924038,,,,,,,,,,,,,,,,,,,,,,,,,,,,,,,,,,,,,,,,,,,,,,,,,,,,,,,,,,,,,,,1,,,,,,,,,,,,,,,,,,,,,,,,,7854129366,0.091287295,-0.409770409,1,0,0,cont_button,0,11,11,11,1,12,,,,,,,,,,,,,,,,,,,,,,,,,,,,,,,,,,,
,,56514c84715ff50011a43878,2022-09-08_13h56.18.623,CGTgamblingSpanTasks,2022.2.1,Linux x86_64,60.04924038,,,,,,,,,,,,,,,,,,,,,,,,,,,,,,,,,,,,,,,,,,,,,,,,,,,,,,,,,,,,,,,,,,,,,,,,,,,,,,,,,,"[7,1,8,3,5,4,9,6,2,2,6]",0,0,0,0,1,,,,,,,,,,,,,,,,,,,,,,,,,,,,,,,,,,,,,,,,,,,,,,,,
,,56514c84715ff50011a43878,2022-09-08_13h56.18.623,CGTgamblingSpanTasks,2022.2.1,Linux x86_64,60.04924038,,,,,,,,,,,,,,,,,,,,,,,,,,,,,,,,,,,,,,,,,,,,,,,,,,,,,,,,,,,,,,,,,,,,,,,,,,,,,,,,,,"[7,1,8,3,5,4,9,6,2,2,6]",1,0,1,0,1,,,,,,,,,,,,,,,,,,,,,,,,,,,,,,,,,,,,,,,,,,,,,,,,
,,56514c84715ff50011a43878,2022-09-08_13h56.18.623,CGTgamblingSpanTasks,2022.2.1,Linux x86_64,60.04924038,,,,,,,,,,,,,,,,,,,,,,,,,,,,,,,,,,,,,,,,,,,,,,,,,,,,,,,,,,,,,,,,,,,,,,,,,,,,,,,,,,"[7,1,8,3,5,4,9,6,2,2,6]",2,0,2,0,1,,,,,,,,,,,,,,,,,,,,,,,,,,,,,,,,,,,,,,,,,,,,,,,,
,,56514c84715ff50011a43878,2022-09-08_13h56.18.623,CGTgamblingSpanTasks,2022.2.1,Linux x86_64,60.04924038,,,,,,,,,,,,,,,,,,,,,,,,,,,,,,,,,,,,,,,,,,,,,,,,,,,,,,,,,,,,,,,,,,,,,,,,,,,,,,,,,,"[7,1,8,3,5,4,9,6,2,2,6]",3,0,3,0,1,,,,,,,,,,,,,,,,,,,,,,,,,,,,,,,,,,,,,,,,,,,,,,,,
,,56514c84715ff50011a43878,2022-09-08_13h56.18.623,CGTgamblingSpanTasks,2022.2.1,Linux x86_64,60.04924038,,,,,,,,,,,,,,,,,,,,,,,,,,,,,,,,,,,,,,,,,,,,,,,,,,,,,,,,,,,,,,,,,,,,,,,,,,,,,,,,,,"[7,1,8,3,5,4,9,6,2,2,6]",4,0,4,0,1,,,,,,,,,,,,,,,,,,,,,,,,,,,,,,,,,,,,,,,,,,,,,,,,
,,56514c84715ff50011a43878,2022-09-08_13h56.18.623,CGTgamblingSpanTasks,2022.2.1,Linux x86_64,60.04924038,,,,,,,,,,,,,,,,,,,,,,,,,,,,,,,,,,,,,,,,,,,,,,,,,,,,,,,,,,,,,,,,,,,,,,,,,,,,,,,,,,"[7,1,8,3,5,4,9,6,2,2,6]",5,0,5,0,1,,,,,,,,,,,,,,,,,,,,,,,,,,,,,,,,,,,,,,,,,,,,,,,,
,,56514c84715ff50011a43878,2022-09-08_13h56.18.623,CGTgamblingSpanTasks,2022.2.1,Linux x86_64,60.04924038,,,,,,,,,,,,,,,,,,,,,,,,,,,,,,,,,,,,,,,,,,,,,,,,,,,,,,,,,,,,,,,,,,,,,,,,,,,,,,,,,,"[7,1,8,3,5,4,9,6,2,2,6]",6,0,6,0,1,,,,,,,,,,,,,,,,,,,,,,,,,,,,,,,,,,,,,,,,,,,,,,,,
,,56514c84715ff50011a43878,2022-09-08_13h56.18.623,CGTgamblingSpanTasks,2022.2.1,Linux x86_64,60.04924038,,,,,,,,,,,,,,,,,,,,,,,,,,,,,,,,,,,,,,,,,,,,,,,,,,,,,,,,,,,,,,,,,,,,,,,,,,,,,,,,,,"[7,1,8,3,5,4,9,6,2,2,6]",7,0,7,0,1,,,,,,,,,,,,,,,,,,,,,,,,,,,,,,,,,,,,,,,,,,,,,,,,
,,56514c84715ff50011a43878,2022-09-08_13h56.18.623,CGTgamblingSpanTasks,2022.2.1,Linux x86_64,60.04924038,,,,,,,,,,,,,,,,,,,,,,,,,,,,,,,,,,,,,,,,,,,,,,,,,,,,,,,,,,,,,,,,,,,,,,,,,,,,,,,,,,"[7,1,8,3,5,4,9,6,2,2,6]",8,0,8,0,1,,,,,,,,,,,,,,,,,,,,,,,,,,,,,,,,,,,,,,,,,,,,,,,,
,,56514c84715ff50011a43878,2022-09-08_13h56.18.623,CGTgamblingSpanTasks,2022.2.1,Linux x86_64,60.04924038,,,,,,,,,,,,,,,,,,,,,,,,,,,,,,,,,,,,,,,,,,,,,,,,,,,,,,,,,,,,,,,,,,,,,,,,,,,,,,,,,,"[7,1,8,3,5,4,9,6,2,2,6]",9,0,9,0,1,,,,,,,,,,,,,,,,,,,,,,,,,,,,,,,,,,,,,,,,,,,,,,,,
,,56514c84715ff50011a43878,2022-09-08_13h56.18.623,CGTgamblingSpanTasks,2022.2.1,Linux x86_64,60.04924038,,,,,,,,,,,,,,,,,,,,,,,,,,,,,,,,,,,,,,,,,,,,,,,,,,,,,,,,,,,,,,,,,,,,,,,,,,,,,,,,,,"[7,1,8,3,5,4,9,6,2,2,6]",10,0,10,0,1,,,,,,,,,,,,,,,,,,,,,,,,,,,,,,,,,,,,,,,,,,,,,,,,
,,56514c84715ff50011a43878,2022-09-08_13h56.18.623,CGTgamblingSpanTasks,2022.2.1,Linux x86_64,60.04924038,,,,,,,,,,,,,,,,,,,,,,,,,,,,,,,,,,,,,,,,,,,,,,,,,,,,,,,,,,,,,,,0,,,,,,,,,,,,,,,,,,,,,,,,,715396,0.110338529,-0.38200744,1,0,0,cont_button,0,12,12,12,1,13,,,,,,,,,,,,,,,,,,,,,,,,,,,,,,,,,,,
,,56514c84715ff50011a43878,2022-09-08_13h56.18.623,CGTgamblingSpanTasks,2022.2.1,Linux x86_64,60.04924038,,,,,,,,,,,,,,,,,,,,,,,,,,,,,,,,,,,,,,,,,,,,,,,,,,,,,,,,,,,,,,,,,,,,,,,,,,,,,,,,,,"[7,6,2,5,4,1,9,8,3,3,7]",0,0,0,0,1,,,,,,,,,,,,,,,,,,,,,,,,,,,,,,,,,,,,,,,,,,,,,,,,
,,56514c84715ff50011a43878,2022-09-08_13h56.18.623,CGTgamblingSpanTasks,2022.2.1,Linux x86_64,60.04924038,,,,,,,,,,,,,,,,,,,,,,,,,,,,,,,,,,,,,,,,,,,,,,,,,,,,,,,,,,,,,,,,,,,,,,,,,,,,,,,,,,"[7,6,2,5,4,1,9,8,3,3,7]",1,0,1,0,1,,,,,,,,,,,,,,,,,,,,,,,,,,,,,,,,,,,,,,,,,,,,,,,,
,,56514c84715ff50011a43878,2022-09-08_13h56.18.623,CGTgamblingSpanTasks,2022.2.1,Linux x86_64,60.04924038,,,,,,,,,,,,,,,,,,,,,,,,,,,,,,,,,,,,,,,,,,,,,,,,,,,,,,,,,,,,,,,,,,,,,,,,,,,,,,,,,,"[7,6,2,5,4,1,9,8,3,3,7]",2,0,2,0,1,,,,,,,,,,,,,,,,,,,,,,,,,,,,,,,,,,,,,,,,,,,,,,,,
,,56514c84715ff50011a43878,2022-09-08_13h56.18.623,CGTgamblingSpanTasks,2022.2.1,Linux x86_64,60.04924038,,,,,,,,,,,,,,,,,,,,,,,,,,,,,,,,,,,,,,,,,,,,,,,,,,,,,,,,,,,,,,,,,,,,,,,,,,,,,,,,,,"[7,6,2,5,4,1,9,8,3,3,7]",3,0,3,0,1,,,,,,,,,,,,,,,,,,,,,,,,,,,,,,,,,,,,,,,,,,,,,,,,
,,56514c84715ff50011a43878,2022-09-08_13h56.18.623,CGTgamblingSpanTasks,2022.2.1,Linux x86_64,60.04924038,,,,,,,,,,,,,,,,,,,,,,,,,,,,,,,,,,,,,,,,,,,,,,,,,,,,,,,,,,,,,,,,,,,,,,,,,,,,,,,,,,"[7,6,2,5,4,1,9,8,3,3,7]",4,0,4,0,1,,,,,,,,,,,,,,,,,,,,,,,,,,,,,,,,,,,,,,,,,,,,,,,,
,,56514c84715ff50011a43878,2022-09-08_13h56.18.623,CGTgamblingSpanTasks,2022.2.1,Linux x86_64,60.04924038,,,,,,,,,,,,,,,,,,,,,,,,,,,,,,,,,,,,,,,,,,,,,,,,,,,,,,,,,,,,,,,,,,,,,,,,,,,,,,,,,,"[7,6,2,5,4,1,9,8,3,3,7]",5,0,5,0,1,,,,,,,,,,,,,,,,,,,,,,,,,,,,,,,,,,,,,,,,,,,,,,,,
,,56514c84715ff50011a43878,2022-09-08_13h56.18.623,CGTgamblingSpanTasks,2022.2.1,Linux x86_64,60.04924038,,,,,,,,,,,,,,,,,,,,,,,,,,,,,,,,,,,,,,,,,,,,,,,,,,,,,,,,,,,,,,,,,,,,,,,,,,,,,,,,,,"[7,6,2,5,4,1,9,8,3,3,7]",6,0,6,0,1,,,,,,,,,,,,,,,,,,,,,,,,,,,,,,,,,,,,,,,,,,,,,,,,
,,56514c84715ff50011a43878,2022-09-08_13h56.18.623,CGTgamblingSpanTasks,2022.2.1,Linux x86_64,60.04924038,,,,,,,,,,,,,,,,,,,,,,,,,,,,,,,,,,,,,,,,,,,,,,,,,,,,,,,,,,,,,,,,,,,,,,,,,,,,,,,,,,"[7,6,2,5,4,1,9,8,3,3,7]",7,0,7,0,1,,,,,,,,,,,,,,,,,,,,,,,,,,,,,,,,,,,,,,,,,,,,,,,,
,,56514c84715ff50011a43878,2022-09-08_13h56.18.623,CGTgamblingSpanTasks,2022.2.1,Linux x86_64,60.04924038,,,,,,,,,,,,,,,,,,,,,,,,,,,,,,,,,,,,,,,,,,,,,,,,,,,,,,,,,,,,,,,,,,,,,,,,,,,,,,,,,,"[7,6,2,5,4,1,9,8,3,3,7]",8,0,8,0,1,,,,,,,,,,,,,,,,,,,,,,,,,,,,,,,,,,,,,,,,,,,,,,,,
,,56514c84715ff50011a43878,2022-09-08_13h56.18.623,CGTgamblingSpanTasks,2022.2.1,Linux x86_64,60.04924038,,,,,,,,,,,,,,,,,,,,,,,,,,,,,,,,,,,,,,,,,,,,,,,,,,,,,,,,,,,,,,,,,,,,,,,,,,,,,,,,,,"[7,6,2,5,4,1,9,8,3,3,7]",9,0,9,0,1,,,,,,,,,,,,,,,,,,,,,,,,,,,,,,,,,,,,,,,,,,,,,,,,
,,56514c84715ff50011a43878,2022-09-08_13h56.18.623,CGTgamblingSpanTasks,2022.2.1,Linux x86_64,60.04924038,,,,,,,,,,,,,,,,,,,,,,,,,,,,,,,,,,,,,,,,,,,,,,,,,,,,,,,,,,,,,,,,,,,,,,,,,,,,,,,,,,"[7,6,2,5,4,1,9,8,3,3,7]",10,0,10,0,1,,,,,,,,,,,,,,,,,,,,,,,,,,,,,,,,,,,,,,,,,,,,,,,,
,,56514c84715ff50011a43878,2022-09-08_13h56.18.623,CGTgamblingSpanTasks,2022.2.1,Linux x86_64,60.04924038,,,,,,,,,,,,,,,,,,,,,,,,,,,,,,,,,,,,,,,,,,,,,,,,,,,,,,,,,,,,,,,0,,,,,,,,,,,,,,,,,,,,,,,,,7629,0.119334936,-0.400160154,1,0,0,cont_button,0,13,13,13,1,14,,,,,,,,,,,,,,,,,,,,,,,,,,,,,,,,,,,
,,56514c84715ff50011a43878,2022-09-08_13h56.18.623,CGTgamblingSpanTasks,2022.2.1,Linux x86_64,60.04924038,,,,,,,,,,,,,,,,,,,,,,,,,,,,,,,,,,,,,,,,,,,,,,,,,,,,,,,,,,,,,,,,,,,,,,,,,,,,,,,,,,,,,,,,,,,,,,,,,,,,,return,2.0536,,,,,,,,,,,,,,,,,,,,,,,,,,,,,,,,,
,,56514c84715ff50011a43878,2022-09-08_13h56.18.623,CGTgamblingSpanTasks,2022.2.1,Linux x86_64,60.04924038,,,,,,,,,,,,,,,,,,,,,,,,,,,,,,,,,,,,,,,,,,,,,,,,,,,,,,,,,,,,,,,,,,,,,,,,,,,,,,,,,,,,,,,,,,,,,,,,,,,,,,,return,18.3782,,,,,,,,,,,,,,,,,,,,,,,,,,,,,,,
,,56514c84715ff50011a43878,2022-09-08_13h56.18.623,CGTgamblingSpanTasks,2022.2.1,Linux x86_64,60.04924038,,,,,,,,,,,,,,,,,,,,,,,,,,,,,,,,,,,,,,,,,,,,,,,,,,,,,,,,,,,,,,,1,,,,,,,,,,,,3,342,24,2,42,,,,,,,,,,,,,,,,,,,,,,,,,,42,0.094991684,-0.409770409,1,0,0,cont_buttonPractice_2,0,0,0,0,1,,,,,,,,,,,,,,,,,,,
,,56514c84715ff50011a43878,2022-09-08_13h56.18.623,CGTgamblingSpanTasks,2022.2.1,Linux x86_64,60.04924038,,,,,,,,,,,,,,,,,,,,,,,,,,,,,,,,,,,,,,,,,,,,,,,,,,,,,,,,,,,,,,,1,,,,,,,,,,,,3,937,73,2,37,,,,,,,,,,,,,,,,,,,,,,,,,,37,0.109280109,-0.407100916,1,0,0,cont_buttonPractice_2,0,1,1,1,1,,,,,,,,,,,,,,,,,,,
,,56514c84715ff50011a43878,2022-09-08_13h56.18.623,CGTgamblingSpanTasks,2022.2.1,Linux x86_64,60.04924038,,,,,,,,,,,,,,,,,,,,,,,,,,,,,,,,,,,,,,,,,,,,,,,,,,,,,,,,,,,,,,,,,,,,,,,,,,,,,,,,,,,,,,,,,,,,,,,,,,,,,,,,,,,,,,,,,,,,,return,2.7353,,,,,,,,,,,,,,,,,
,,56514c84715ff50011a43878,2022-09-08_13h56.18.623,CGTgamblingSpanTasks,2022.2.1,Linux x86_64,60.04924038,,,,,,,,,,,,,,,,,,,,,,,,,,,,,,,,,,,,,,,,,,,,,,,,,,,,,,,,,,,,,,,,,,,,,,,,,,,,,,,,,,"[2,8]",,,,,,,,,,,,,,,,,,,,,,,,,,,,,,,,,,,,,0,0,0,0,1,,,,,,,,,,,,
,,56514c84715ff50011a43878,2022-09-08_13h56.18.623,CGTgamblingSpanTasks,2022.2.1,Linux x86_64,60.04924038,,,,,,,,,,,,,,,,,,,,,,,,,,,,,,,,,,,,,,,,,,,,,,,,,,,,,,,,,,,,,,,,,,,,,,,,,,,,,,,,,,"[2,8]",,,,,,,,,,,,,,,,,,,,,,,,,,,,,,,,,,,,,1,0,1,0,1,,,,,,,,,,,,
,,56514c84715ff50011a43878,2022-09-08_13h56.18.623,CGTgamblingSpanTasks,2022.2.1,Linux x86_64,60.04924038,,,,,,,,,,,,,,,,,,,,,,,,,,,,,,,,,,,,,,,,,,,,,,,,,,,,,,,,,,,,,,,1,,,,,,,,,,,,,,,,,,,,,,,,,,,,,,,,,,,,,1,,,,,,,,,,,,,,,,,,,,,,,,82,0.066943963,-0.40176185,1,0,0,cont_buttonBS,0,0,0,0,1
,,56514c84715ff50011a43878,2022-09-08_13h56.18.623,CGTgamblingSpanTasks,2022.2.1,Linux x86_64,60.04924038,,,,,,,,,,,,,,,,,,,,,,,,,,,,,,,,,,,,,,,,,,,,,,,,,,,,,,,,,,,,,,,,,,,,,,,,,,,,,,,,,,"[4,7,6]",,,,,,,,,,,,,,,,,,,,,,,,,,,,,,,,,,,,,0,0,0,0,1,,,,,,,,,,,,
,,56514c84715ff50011a43878,2022-09-08_13h56.18.623,CGTgamblingSpanTasks,2022.2.1,Linux x86_64,60.04924038,,,,,,,,,,,,,,,,,,,,,,,,,,,,,,,,,,,,,,,,,,,,,,,,,,,,,,,,,,,,,,,,,,,,,,,,,,,,,,,,,,"[4,7,6]",,,,,,,,,,,,,,,,,,,,,,,,,,,,,,,,,,,,,1,0,1,0,1,,,,,,,,,,,,
,,56514c84715ff50011a43878,2022-09-08_13h56.18.623,CGTgamblingSpanTasks,2022.2.1,Linux x86_64,60.04924038,,,,,,,,,,,,,,,,,,,,,,,,,,,,,,,,,,,,,,,,,,,,,,,,,,,,,,,,,,,,,,,,,,,,,,,,,,,,,,,,,,"[4,7,6]",,,,,,,,,,,,,,,,,,,,,,,,,,,,,,,,,,,,,2,0,2,0,1,,,,,,,,,,,,
,,56514c84715ff50011a43878,2022-09-08_13h56.18.623,CGTgamblingSpanTasks,2022.2.1,Linux x86_64,60.04924038,,,,,,,,,,,,,,,,,,,,,,,,,,,,,,,,,,,,,,,,,,,,,,,,,,,,,,,,,,,,,,,1,,,,,,,,,,,,,,,,,,,,,,,,,,,,,,,,,,,,,2,,,,,,,,,,,,,,,,,,,,,,,,674,0.044188341,-0.403363546,1,0,0,cont_buttonBS,0,1,1,1,1
,,56514c84715ff50011a43878,2022-09-08_13h56.18.623,CGTgamblingSpanTasks,2022.2.1,Linux x86_64,60.04924038,,,,,,,,,,,,,,,,,,,,,,,,,,,,,,,,,,,,,,,,,,,,,,,,,,,,,,,,,,,,,,,,,,,,,,,,,,,,,,,,,,"[1,2,4,5]",,,,,,,,,,,,,,,,,,,,,,,,,,,,,,,,,,,,,0,0,0,0,1,,,,,,,,,,,,
,,56514c84715ff50011a43878,2022-09-08_13h56.18.623,CGTgamblingSpanTasks,2022.2.1,Linux x86_64,60.04924038,,,,,,,,,,,,,,,,,,,,,,,,,,,,,,,,,,,,,,,,,,,,,,,,,,,,,,,,,,,,,,,,,,,,,,,,,,,,,,,,,,"[1,2,4,5]",,,,,,,,,,,,,,,,,,,,,,,,,,,,,,,,,,,,,1,0,1,0,1,,,,,,,,,,,,
,,56514c84715ff50011a43878,2022-09-08_13h56.18.623,CGTgamblingSpanTasks,2022.2.1,Linux x86_64,60.04924038,,,,,,,,,,,,,,,,,,,,,,,,,,,,,,,,,,,,,,,,,,,,,,,,,,,,,,,,,,,,,,,,,,,,,,,,,,,,,,,,,,"[1,2,4,5]",,,,,,,,,,,,,,,,,,,,,,,,,,,,,,,,,,,,,2,0,2,0,1,,,,,,,,,,,,
,,56514c84715ff50011a43878,2022-09-08_13h56.18.623,CGTgamblingSpanTasks,2022.2.1,Linux x86_64,60.04924038,,,,,,,,,,,,,,,,,,,,,,,,,,,,,,,,,,,,,,,,,,,,,,,,,,,,,,,,,,,,,,,,,,,,,,,,,,,,,,,,,,"[1,2,4,5]",,,,,,,,,,,,,,,,,,,,,,,,,,,,,,,,,,,,,3,0,3,0,1,,,,,,,,,,,,
,,56514c84715ff50011a43878,2022-09-08_13h56.18.623,CGTgamblingSpanTasks,2022.2.1,Linux x86_64,60.04924038,,,,,,,,,,,,,,,,,,,,,,,,,,,,,,,,,,,,,,,,,,,,,,,,,,,,,,,,,,,,,,,1,,,,,,,,,,,,,,,,,,,,,,,,,,,,,,,,,,,,,3,,,,,,,,,,,,,,,,,,,,,,,,5421,0.052126328,-0.398024559,1,0,0,cont_buttonBS,0,2,2,2,1
,,56514c84715ff50011a43878,2022-09-08_13h56.18.623,CGTgamblingSpanTasks,2022.2.1,Linux x86_64,60.04924038,,,,,,,,,,,,,,,,,,,,,,,,,,,,,,,,,,,,,,,,,,,,,,,,,,,,,,,,,,,,,,,,,,,,,,,,,,,,,,,,,,"[3,9,5,1,7]",,,,,,,,,,,,,,,,,,,,,,,,,,,,,,,,,,,,,0,0,0,0,1,,,,,,,,,,,,
