initITIstatic,initITIdynamic,participant,date,expName,psychopyVersion,OS,frameRate,inst1.keys,inst1.rt,startPracResp.keys,startPracResp.rt,choice1.keys,choice1.rt,outcome,extraITI,trials.thisRepN,trials.thisTrialN,trials.thisN,trials.thisIndex,trials.ran,riskyGain,riskyLoss,alternative,isi,iti,loc,postPractResp.keys,postPractResp.rt,realloc,realChoice.keys,realChoice.rt,outcomes,choices,actualITI,init ITI,staticRDM.thisRepN,staticRDM.thisTrialN,staticRDM.thisN,staticRDM.thisIndex,staticRDM.ran,riskyoption1,riskyoption2,safeoption,ischecktrial,dynamicChoiceSetName,dynamicChoiceSetPath,bestRho,bestMu,trials_2.thisRepN,trials_2.thisTrialN,trials_2.thisN,trials_2.thisIndex,trials_2.ran,key_resp.keys,key_resp.rt,dynamicRDM.thisRepN,dynamicRDM.thisTrialN,dynamicRDM.thisN,dynamicRDM.thisIndex,dynamicRDM.ran,choiceP,easy0difficult1,stopBreak.keys,stopBreak.rt,movealong.keys,movealong.rt,startPractice.keys,startPractice.rt,textboxPractice.text,correct,mousePractice.x,mousePractice.y,mousePractice.leftButton,mousePractice.midButton,mousePractice.rightButton,mousePractice.clicked_name,trialFSPractice.thisRepN,trialFSPractice.thisTrialN,trialFSPractice.thisN,trialFSPractice.thisIndex,trialFSPractice.ran,digitSpanForward,digits,digitsReverse,digitSpanReverse,digitsReverseCorrAnswer,startFSreal.keys,startFSreal.rt,digitsForTrial,digitLoop.thisRepN,digitLoop.thisTrialN,digitLoop.thisN,digitLoop.thisIndex,digitLoop.ran,textbox.text,mouse_3.x,mouse_3.y,mouse_3.leftButton,mouse_3.midButton,mouse_3.rightButton,mouse_3.clicked_name,trialsFS.thisRepN,trialsFS.thisTrialN,trialsFS.thisN,trialsFS.thisIndex,trialsFS.ran,trialNumber,moveToBS.keys,moveToBS.rt,startBSprac.keys,startBSprac.rt,textboxPractice_2.text,mousePractice_2.x,mousePractice_2.y,mousePractice_2.leftButton,mousePractice_2.midButton,mousePractice_2.rightButton,mousePractice_2.clicked_name,trialsPracticeBS.thisRepN,trialsPracticeBS.thisTrialN,trialsPracticeBS.thisN,trialsPracticeBS.thisIndex,trialsPracticeBS.ran,startBSreal.keys,startBSreal.rt,digitLoopBS.thisRepN,digitLoopBS.thisTrialN,digitLoopBS.thisN,digitLoopBS.thisIndex,digitLoopBS.ran,textboxBS.text,mouseBS.x,mouseBS.y,mouseBS.leftButton,mouseBS.midButton,mouseBS.rightButton,mouseBS.clicked_name,trialsBS.thisRepN,trialsBS.thisTrialN,trialsBS.thisN,trialsBS.thisIndex,trialsBS.ran
"[1,1.5,1.5,1,1.5,1,1.5,1.5,1.5,1.5,1.5,1,1,1.5,1,1,1,1.5,1,1,1,1,1.5,1,1.5,1.5,1.5,1,1.5,1,1,1.5,1.5,1.5,1.5,1,1,1.5,1,1,1,1.5,1.5,1,1,1.5,1,1.5,1,1.5]","[1,1,1,1,1,1,1.5,1.5,1,1.5,1.5,1.5,1,1,1,1.5,1.5,1,1.5,1,1.5,1.5,1,1,1,1.5,1.5,1.5,1.5,1,1,1.5,1.5,1,1,1,1.5,1.5,1.5,1,1,1.5,1.5,1,1,1.5,1,1,1.5,1.5,1.5,1,1,1.5,1.5,1.5,1.5,1,1,1.5,1.5,1.5,1.5,1,1.5,1.5,1.5,1.5,1,1,1.5,1.5,1.5,1,1.5,1.5,1,1.5,1.5,1,1,1,1,1,1,1,1.5,1,1,1,1.5,1,1,1,1.5,1,1,1.5,1,1,1.5,1.5,1,1,1.5,1,1.5,1,1.5,1.5,1,1.5,1.5,1,1,1.5,1,1.5,1.5,1.5]",605fe9680cac2ea943d411ec,2022-09-08_13h02.18.038,CGTgamblingSpanTasks,2022.2.1,Win32,19.89851756,,,,,,,,,,,,,,,,,,,,,,,,,,,,,,,,,,,,,,,,,,,,,,,,,,,,,,,,,,,,,,,,,,,,,,,,,,,,,,,,,,,,,,,,,,,,,,,,,,,,,,,,,,,,,,,,,,,,,,,,,,,,,,,,,,,,,,,
,,605fe9680cac2ea943d411ec,2022-09-08_13h02.18.038,CGTgamblingSpanTasks,2022.2.1,Win32,19.89851756,return,0.3649,,,,,,,,,,,,,,,,,,,,,,,,,,,,,,,,,,,,,,,,,,,,,,,,,,,,,,,,,,,,,,,,,,,,,,,,,,,,,,,,,,,,,,,,,,,,,,,,,,,,,,,,,,,,,,,,,,,,,,,,,,,,,,,,,,,,,
,,605fe9680cac2ea943d411ec,2022-09-08_13h02.18.038,CGTgamblingSpanTasks,2022.2.1,Win32,19.89851756,,,v,1.2243,,,,,,,,,,,,,,,,,,,,,,,,,,,,,,,,,,,,,,,,,,,,,,,,,,,,,,,,,,,,,,,,,,,,,,,,,,,,,,,,,,,,,,,,,,,,,,,,,,,,,,,,,,,,,,,,,,,,,,,,,,,,,,,,,,,
,,605fe9680cac2ea943d411ec,2022-09-08_13h02.18.038,CGTgamblingSpanTasks,2022.2.1,Win32,19.89851756,,,,,n,0.0013,9.45,3.9987,0,0,0,0,1,18.23,0,9.45,2,1,1,,,,,,,,,,,,,,,,,,,,,,,,,,,,,,,,,,,,,,,,,,,,,,,,,,,,,,,,,,,,,,,,,,,,,,,,,,,,,,,,,,,,,,,,,,,,,,,,,,,,,,,,,,,,,,,,,,,,
,,605fe9680cac2ea943d411ec,2022-09-08_13h02.18.038,CGTgamblingSpanTasks,2022.2.1,Win32,19.89851756,,,,,n,0.7992,35.16,3.2008,0,1,1,1,1,53.27,0,35.16,1,1.5,1,,,,,,,,,,,,,,,,,,,,,,,,,,,,,,,,,,,,,,,,,,,,,,,,,,,,,,,,,,,,,,,,,,,,,,,,,,,,,,,,,,,,,,,,,,,,,,,,,,,,,,,,,,,,,,,,,,,,
,,605fe9680cac2ea943d411ec,2022-09-08_13h02.18.038,CGTgamblingSpanTasks,2022.2.1,Win32,19.89851756,,,,,v,1.0143,1.15,2.9857,0,2,2,2,1,8.27,0,1.15,1,1.5,2,,,,,,,,,,,,,,,,,,,,,,,,,,,,,,,,,,,,,,,,,,,,,,,,,,,,,,,,,,,,,,,,,,,,,,,,,,,,,,,,,,,,,,,,,,,,,,,,,,,,,,,,,,,,,,,,,,,,
,,605fe9680cac2ea943d411ec,2022-09-08_13h02.18.038,CGTgamblingSpanTasks,2022.2.1,Win32,19.89851756,,,,,n,0.9135,40.41,3.0865,0,3,3,3,1,45.88,0,40.41,3,1,1,,,,,,,,,,,,,,,,,,,,,,,,,,,,,,,,,,,,,,,,,,,,,,,,,,,,,,,,,,,,,,,,,,,,,,,,,,,,,,,,,,,,,,,,,,,,,,,,,,,,,,,,,,,,,,,,,,,,
,,605fe9680cac2ea943d411ec,2022-09-08_13h02.18.038,CGTgamblingSpanTasks,2022.2.1,Win32,19.89851756,,,,,v,1.1269,11.96,2.8731,0,4,4,4,1,21.56,0,11.96,1,1.5,2,,,,,,,,,,,,,,,,,,,,,,,,,,,,,,,,,,,,,,,,,,,,,,,,,,,,,,,,,,,,,,,,,,,,,,,,,,,,,,,,,,,,,,,,,,,,,,,,,,,,,,,,,,,,,,,,,,,,
,,605fe9680cac2ea943d411ec,2022-09-08_13h02.18.038,CGTgamblingSpanTasks,2022.2.1,Win32,19.89851756,,,,,,,,,,,,,,,,,,,,v,2.9926,,,,,,,,,,,,,,,,,,,,,,,,,,,,,,,,,,,,,,,,,,,,,,,,,,,,,,,,,,,,,,,,,,,,,,,,,,,,,,,,,,,,,,,,,,,,,,,,,,,,,,,,,,,,,,,,,,
,,605fe9680cac2ea943d411ec,2022-09-08_13h02.18.038,CGTgamblingSpanTasks,2022.2.1,Win32,19.89851756,,,,,,,,1.525,,,,,,,,,,,,,,1,v,2.475,10.39,1,2.525,1,0,0,0,34,1,10.39,0,6.81,0,,,,,,,,,,,,,,,,,,,,,,,,,,,,,,,,,,,,,,,,,,,,,,,,,,,,,,,,,,,,,,,,,,,,,,,,,,,,,,,,,,,,,,,,,,,,,,,,,,
,,605fe9680cac2ea943d411ec,2022-09-08_13h02.18.038,CGTgamblingSpanTasks,2022.2.1,Win32,19.89851756,,,,,,,,2.3947,,,,,,,,,,,,,,1,v,1.6053,12.08,1,3.8947,1.5,0,1,1,18,1,12.08,0,5.96,0,,,,,,,,,,,,,,,,,,,,,,,,,,,,,,,,,,,,,,,,,,,,,,,,,,,,,,,,,,,,,,,,,,,,,,,,,,,,,,,,,,,,,,,,,,,,,,,,,,
,,605fe9680cac2ea943d411ec,2022-09-08_13h02.18.038,CGTgamblingSpanTasks,2022.2.1,Win32,19.89851756,,,,,,,,2.7009,,,,,,,,,,,,,,1,v,1.2991,13.04,1,4.2009,1.5,0,2,2,12,1,13.04,0,5.48,0,,,,,,,,,,,,,,,,,,,,,,,,,,,,,,,,,,,,,,,,,,,,,,,,,,,,,,,,,,,,,,,,,,,,,,,,,,,,,,,,,,,,,,,,,,,,,,,,,,
,,605fe9680cac2ea943d411ec,2022-09-08_13h02.18.038,CGTgamblingSpanTasks,2022.2.1,Win32,19.89851756,,,,,,,,2.6145,,,,,,,,,,,,,,2,n,1.3855,0,1,3.6145,1,0,3,3,4,1,16,0,4,0,,,,,,,,,,,,,,,,,,,,,,,,,,,,,,,,,,,,,,,,,,,,,,,,,,,,,,,,,,,,,,,,,,,,,,,,,,,,,,,,,,,,,,,,,,,,,,,,,,
,,605fe9680cac2ea943d411ec,2022-09-08_13h02.18.038,CGTgamblingSpanTasks,2022.2.1,Win32,19.89851756,,,,,,,,2.8282,,,,,,,,,,,,,,1,n,1.1718,6.73,0,4.3282,1.5,0,4,4,32,1,10.55,0,6.73,0,,,,,,,,,,,,,,,,,,,,,,,,,,,,,,,,,,,,,,,,,,,,,,,,,,,,,,,,,,,,,,,,,,,,,,,,,,,,,,,,,,,,,,,,,,,,,,,,,,
,,605fe9680cac2ea943d411ec,2022-09-08_13h02.18.038,CGTgamblingSpanTasks,2022.2.1,Win32,19.89851756,,,,,,,,2.1821,,,,,,,,,,,,,,2,v,1.8179,6.08,0,3.1821,1,0,5,5,20,1,11.84,0,6.08,0,,,,,,,,,,,,,,,,,,,,,,,,,,,,,,,,,,,,,,,,,,,,,,,,,,,,,,,,,,,,,,,,,,,,,,,,,,,,,,,,,,,,,,,,,,,,,,,,,,
,,605fe9680cac2ea943d411ec,2022-09-08_13h02.18.038,CGTgamblingSpanTasks,2022.2.1,Win32,19.89851756,,,,,,,,2.414,,,,,,,,,,,,,,1,n,1.586,6.94,0,3.914,1.5,0,6,6,38,1,10.12,0,6.94,0,,,,,,,,,,,,,,,,,,,,,,,,,,,,,,,,,,,,,,,,,,,,,,,,,,,,,,,,,,,,,,,,,,,,,,,,,,,,,,,,,,,,,,,,,,,,,,,,,,
,,605fe9680cac2ea943d411ec,2022-09-08_13h02.18.038,CGTgamblingSpanTasks,2022.2.1,Win32,19.89851756,,,,,,,,2.4161,,,,,,,,,,,,,,2,v,1.5839,6.53,0,3.9161,1.5,0,7,7,28,1,10.95,0,6.53,0,,,,,,,,,,,,,,,,,,,,,,,,,,,,,,,,,,,,,,,,,,,,,,,,,,,,,,,,,,,,,,,,,,,,,,,,,,,,,,,,,,,,,,,,,,,,,,,,,,
,,605fe9680cac2ea943d411ec,2022-09-08_13h02.18.038,CGTgamblingSpanTasks,2022.2.1,Win32,19.89851756,,,,,,,,2.519,,,,,,,,,,,,,,2,v,1.481,8.36,0,4.019,1.5,0,8,8,13,1,19.28,0,8.36,0,,,,,,,,,,,,,,,,,,,,,,,,,,,,,,,,,,,,,,,,,,,,,,,,,,,,,,,,,,,,,,,,,,,,,,,,,,,,,,,,,,,,,,,,,,,,,,,,,,
,,605fe9680cac2ea943d411ec,2022-09-08_13h02.18.038,CGTgamblingSpanTasks,2022.2.1,Win32,19.89851756,,,,,,,,2.8359,,,,,,,,,,,,,,2,v,1.1641,9.92,0,4.3359,1.5,0,9,9,49,1,6.79,0,9.92,1,,,,,,,,,,,,,,,,,,,,,,,,,,,,,,,,,,,,,,,,,,,,,,,,,,,,,,,,,,,,,,,,,,,,,,,,,,,,,,,,,,,,,,,,,,,,,,,,,,
,,605fe9680cac2ea943d411ec,2022-09-08_13h02.18.038,CGTgamblingSpanTasks,2022.2.1,Win32,19.89851756,,,,,,,,2.2738,,,,,,,,,,,,,,2,n,1.7262,0,1,3.7738,1.5,0,10,10,7,1,21.32,0,7.34,0,,,,,,,,,,,,,,,,,,,,,,,,,,,,,,,,,,,,,,,,,,,,,,,,,,,,,,,,,,,,,,,,,,,,,,,,,,,,,,,,,,,,,,,,,,,,,,,,,,
,,605fe9680cac2ea943d411ec,2022-09-08_13h02.18.038,CGTgamblingSpanTasks,2022.2.1,Win32,19.89851756,,,,,,,,2.4347,,,,,,,,,,,,,,1,n,1.5653,8.07,0,3.4347,1,0,11,11,11,1,19.86,0,8.07,0,,,,,,,,,,,,,,,,,,,,,,,,,,,,,,,,,,,,,,,,,,,,,,,,,,,,,,,,,,,,,,,,,,,,,,,,,,,,,,,,,,,,,,,,,,,,,,,,,,
,,605fe9680cac2ea943d411ec,2022-09-08_13h02.18.038,CGTgamblingSpanTasks,2022.2.1,Win32,19.89851756,,,,,,,,2.759,,,,,,,,,,,,,,2,v,1.241,10.25,0,3.759,1,0,12,12,46,1,0,0,10.25,1,,,,,,,,,,,,,,,,,,,,,,,,,,,,,,,,,,,,,,,,,,,,,,,,,,,,,,,,,,,,,,,,,,,,,,,,,,,,,,,,,,,,,,,,,,,,,,,,,,
,,605fe9680cac2ea943d411ec,2022-09-08_13h02.18.038,CGTgamblingSpanTasks,2022.2.1,Win32,19.89851756,,,,,,,,2.9291,,,,,,,,,,,,,,1,n,1.0709,10.37,0,4.4291,1.5,0,13,13,37,1,15.27,0,10.37,0,,,,,,,,,,,,,,,,,,,,,,,,,,,,,,,,,,,,,,,,,,,,,,,,,,,,,,,,,,,,,,,,,,,,,,,,,,,,,,,,,,,,,,,,,,,,,,,,,,
,,605fe9680cac2ea943d411ec,2022-09-08_13h02.18.038,CGTgamblingSpanTasks,2022.2.1,Win32,19.89851756,,,,,,,,2.7362,,,,,,,,,,,,,,2,n,1.2638,12.36,1,3.7362,1,0,14,14,16,1,12.36,0,5.82,0,,,,,,,,,,,,,,,,,,,,,,,,,,,,,,,,,,,,,,,,,,,,,,,,,,,,,,,,,,,,,,,,,,,,,,,,,,,,,,,,,,,,,,,,,,,,,,,,,,
,,605fe9680cac2ea943d411ec,2022-09-08_13h02.18.038,CGTgamblingSpanTasks,2022.2.1,Win32,19.89851756,,,,,,,,2.9388,,,,,,,,,,,,,,2,v,1.0612,10.27,0,3.9388,1,0,15,15,35,1,15.47,0,10.27,0,,,,,,,,,,,,,,,,,,,,,,,,,,,,,,,,,,,,,,,,,,,,,,,,,,,,,,,,,,,,,,,,,,,,,,,,,,,,,,,,,,,,,,,,,,,,,,,,,,
,,605fe9680cac2ea943d411ec,2022-09-08_13h02.18.038,CGTgamblingSpanTasks,2022.2.1,Win32,19.89851756,,,,,,,,2.374,,,,,,,,,,,,,,1,n,1.626,3.13,0,3.374,1,0,16,16,47,1,0,0,3.13,1,,,,,,,,,,,,,,,,,,,,,,,,,,,,,,,,,,,,,,,,,,,,,,,,,,,,,,,,,,,,,,,,,,,,,,,,,,,,,,,,,,,,,,,,,,,,,,,,,,
,,605fe9680cac2ea943d411ec,2022-09-08_13h02.18.038,CGTgamblingSpanTasks,2022.2.1,Win32,19.89851756,,,,,,,,2.5825,,,,,,,,,,,,,,2,v,1.4175,9.5,0,4.0825,1.5,0,17,17,25,1,17,0,9.5,0,,,,,,,,,,,,,,,,,,,,,,,,,,,,,,,,,,,,,,,,,,,,,,,,,,,,,,,,,,,,,,,,,,,,,,,,,,,,,,,,,,,,,,,,,,,,,,,,,,
,,605fe9680cac2ea943d411ec,2022-09-08_13h02.18.038,CGTgamblingSpanTasks,2022.2.1,Win32,19.89851756,,,,,,,,2.4866,,,,,,,,,,,,,,2,v,1.5134,8.84,0,3.4866,1,0,18,18,17,1,18.33,0,8.84,0,,,,,,,,,,,,,,,,,,,,,,,,,,,,,,,,,,,,,,,,,,,,,,,,,,,,,,,,,,,,,,,,,,,,,,,,,,,,,,,,,,,,,,,,,,,,,,,,,,
,,605fe9680cac2ea943d411ec,2022-09-08_13h02.18.038,CGTgamblingSpanTasks,2022.2.1,Win32,19.89851756,,,,,,,,2.774,,,,,,,,,,,,,,2,v,1.226,9.7,0,3.774,1,0,19,19,27,1,16.6,0,9.7,0,,,,,,,,,,,,,,,,,,,,,,,,,,,,,,,,,,,,,,,,,,,,,,,,,,,,,,,,,,,,,,,,,,,,,,,,,,,,,,,,,,,,,,,,,,,,,,,,,,
,,605fe9680cac2ea943d411ec,2022-09-08_13h02.18.038,CGTgamblingSpanTasks,2022.2.1,Win32,19.89851756,,,,,,,,2.1701,,,,,,,,,,,,,,1,v,1.8299,20.53,1,3.1701,1,0,20,20,9,1,20.53,0,7.73,0,,,,,,,,,,,,,,,,,,,,,,,,,,,,,,,,,,,,,,,,,,,,,,,,,,,,,,,,,,,,,,,,,,,,,,,,,,,,,,,,,,,,,,,,,,,,,,,,,,
,,605fe9680cac2ea943d411ec,2022-09-08_13h02.18.038,CGTgamblingSpanTasks,2022.2.1,Win32,19.89851756,,,,,,,,2.5201,,,,,,,,,,,,,,1,v,1.4799,10.24,1,3.5201,1,0,21,21,36,1,10.24,0,6.88,0,,,,,,,,,,,,,,,,,,,,,,,,,,,,,,,,,,,,,,,,,,,,,,,,,,,,,,,,,,,,,,,,,,,,,,,,,,,,,,,,,,,,,,,,,,,,,,,,,,
,,605fe9680cac2ea943d411ec,2022-09-08_13h02.18.038,CGTgamblingSpanTasks,2022.2.1,Win32,19.89851756,,,,,,,,2.4289,,,,,,,,,,,,,,2,n,1.5711,22.97,1,3.9289,1.5,0,22,22,5,1,22.97,0,6.51,0,,,,,,,,,,,,,,,,,,,,,,,,,,,,,,,,,,,,,,,,,,,,,,,,,,,,,,,,,,,,,,,,,,,,,,,,,,,,,,,,,,,,,,,,,,,,,,,,,,
,,605fe9680cac2ea943d411ec,2022-09-08_13h02.18.038,CGTgamblingSpanTasks,2022.2.1,Win32,19.89851756,,,,,,,,2.7834,,,,,,,,,,,,,,2,v,1.2166,9.36,0,3.7834,1,0,23,23,23,1,17.28,0,9.36,0,,,,,,,,,,,,,,,,,,,,,,,,,,,,,,,,,,,,,,,,,,,,,,,,,,,,,,,,,,,,,,,,,,,,,,,,,,,,,,,,,,,,,,,,,,,,,,,,,,
,,605fe9680cac2ea943d411ec,2022-09-08_13h02.18.038,CGTgamblingSpanTasks,2022.2.1,Win32,19.89851756,,,,,,,,2.7231,,,,,,,,,,,,,,1,v,1.2769,14.26,1,4.2231,1.5,0,24,24,41,1,14.26,0,0,1,,,,,,,,,,,,,,,,,,,,,,,,,,,,,,,,,,,,,,,,,,,,,,,,,,,,,,,,,,,,,,,,,,,,,,,,,,,,,,,,,,,,,,,,,,,,,,,,,,
,,605fe9680cac2ea943d411ec,2022-09-08_13h02.18.038,CGTgamblingSpanTasks,2022.2.1,Win32,19.89851756,,,,,,,,2.7829,,,,,,,,,,,,,,1,n,1.2171,6.29,0,4.2829,1.5,0,25,25,24,1,11.43,0,6.29,0,,,,,,,,,,,,,,,,,,,,,,,,,,,,,,,,,,,,,,,,,,,,,,,,,,,,,,,,,,,,,,,,,,,,,,,,,,,,,,,,,,,,,,,,,,,,,,,,,,
,,605fe9680cac2ea943d411ec,2022-09-08_13h02.18.038,CGTgamblingSpanTasks,2022.2.1,Win32,19.89851756,,,,,,,,2.8917,,,,,,,,,,,,,,1,n,1.1083,9.03,0,4.3917,1.5,0,26,26,19,1,17.94,0,9.03,0,,,,,,,,,,,,,,,,,,,,,,,,,,,,,,,,,,,,,,,,,,,,,,,,,,,,,,,,,,,,,,,,,,,,,,,,,,,,,,,,,,,,,,,,,,,,,,,,,,
,,605fe9680cac2ea943d411ec,2022-09-08_13h02.18.038,CGTgamblingSpanTasks,2022.2.1,Win32,19.89851756,,,,,,,,2.7357,,,,,,,,,,,,,,1,n,1.2643,10.68,0,3.7357,1,0,27,27,48,1,10.68,0,10.68,1,,,,,,,,,,,,,,,,,,,,,,,,,,,,,,,,,,,,,,,,,,,,,,,,,,,,,,,,,,,,,,,,,,,,,,,,,,,,,,,,,,,,,,,,,,,,,,,,,,
,,605fe9680cac2ea943d411ec,2022-09-08_13h02.18.038,CGTgamblingSpanTasks,2022.2.1,Win32,19.89851756,,,,,,,,2.7129,,,,,,,,,,,,,,2,n,1.2871,0,1,4.2129,1.5,0,28,28,8,1,13.94,0,5.03,0,,,,,,,,,,,,,,,,,,,,,,,,,,,,,,,,,,,,,,,,,,,,,,,,,,,,,,,,,,,,,,,,,,,,,,,,,,,,,,,,,,,,,,,,,,,,,,,,,,
,,605fe9680cac2ea943d411ec,2022-09-08_13h02.18.038,CGTgamblingSpanTasks,2022.2.1,Win32,19.89851756,,,,,,,,2.7821,,,,,,,,,,,,,,2,n,1.2179,0,1,3.7821,1,0,29,29,40,1,10.35,0,0,1,,,,,,,,,,,,,,,,,,,,,,,,,,,,,,,,,,,,,,,,,,,,,,,,,,,,,,,,,,,,,,,,,,,,,,,,,,,,,,,,,,,,,,,,,,,,,,,,,,
,,605fe9680cac2ea943d411ec,2022-09-08_13h02.18.038,CGTgamblingSpanTasks,2022.2.1,Win32,19.89851756,,,,,,,,2.5692,,,,,,,,,,,,,,2,v,1.4308,6.19,0,3.5692,1,0,30,30,22,1,11.62,0,6.19,0,,,,,,,,,,,,,,,,,,,,,,,,,,,,,,,,,,,,,,,,,,,,,,,,,,,,,,,,,,,,,,,,,,,,,,,,,,,,,,,,,,,,,,,,,,,,,,,,,,
,,605fe9680cac2ea943d411ec,2022-09-08_13h02.18.038,CGTgamblingSpanTasks,2022.2.1,Win32,19.89851756,,,,,,,,2.8021,,,,,,,,,,,,,,1,v,1.1979,0,1,4.3021,1.5,0,31,31,1,1,28.21,0,3.89,0,,,,,,,,,,,,,,,,,,,,,,,,,,,,,,,,,,,,,,,,,,,,,,,,,,,,,,,,,,,,,,,,,,,,,,,,,,,,,,,,,,,,,,,,,,,,,,,,,,
,,605fe9680cac2ea943d411ec,2022-09-08_13h02.18.038,CGTgamblingSpanTasks,2022.2.1,Win32,19.89851756,,,,,,,,2.704,,,,,,,,,,,,,,1,v,1.296,0,1,4.204,1.5,0,32,32,3,1,25.2,0,5.4,0,,,,,,,,,,,,,,,,,,,,,,,,,,,,,,,,,,,,,,,,,,,,,,,,,,,,,,,,,,,,,,,,,,,,,,,,,,,,,,,,,,,,,,,,,,,,,,,,,,
,,605fe9680cac2ea943d411ec,2022-09-08_13h02.18.038,CGTgamblingSpanTasks,2022.2.1,Win32,19.89851756,,,,,,,,2.4429,,,,,,,,,,,,,,2,n,1.5571,11.2,1,3.9429,1.5,0,33,33,26,1,11.2,0,6.4,0,,,,,,,,,,,,,,,,,,,,,,,,,,,,,,,,,,,,,,,,,,,,,,,,,,,,,,,,,,,,,,,,,,,,,,,,,,,,,,,,,,,,,,,,,,,,,,,,,,
,,605fe9680cac2ea943d411ec,2022-09-08_13h02.18.038,CGTgamblingSpanTasks,2022.2.1,Win32,19.89851756,,,,,,,,2.6192,,,,,,,,,,,,,,1,v,1.3808,0,1,4.1192,1.5,0,34,34,10,1,13.45,0,5.27,0,,,,,,,,,,,,,,,,,,,,,,,,,,,,,,,,,,,,,,,,,,,,,,,,,,,,,,,,,,,,,,,,,,,,,,,,,,,,,,,,,,,,,,,,,,,,,,,,,,
,,605fe9680cac2ea943d411ec,2022-09-08_13h02.18.038,CGTgamblingSpanTasks,2022.2.1,Win32,19.89851756,,,,,,,,2.863,,,,,,,,,,,,,,2,v,1.137,10.15,0,3.863,1,0,35,35,33,1,15.7,0,10.15,0,,,,,,,,,,,,,,,,,,,,,,,,,,,,,,,,,,,,,,,,,,,,,,,,,,,,,,,,,,,,,,,,,,,,,,,,,,,,,,,,,,,,,,,,,,,,,,,,,,
,,605fe9680cac2ea943d411ec,2022-09-08_13h02.18.038,CGTgamblingSpanTasks,2022.2.1,Win32,19.89851756,,,,,,,,2.5844,,,,,,,,,,,,,,2,v,1.4156,10.46,0,3.5844,1,0,36,36,39,1,15.09,0,10.46,0,,,,,,,,,,,,,,,,,,,,,,,,,,,,,,,,,,,,,,,,,,,,,,,,,,,,,,,,,,,,,,,,,,,,,,,,,,,,,,,,,,,,,,,,,,,,,,,,,,
,,605fe9680cac2ea943d411ec,2022-09-08_13h02.18.038,CGTgamblingSpanTasks,2022.2.1,Win32,19.89851756,,,,,,,,2.4333,,,,,,,,,,,,,,1,v,1.5667,17.73,1,3.9333,1.5,0,37,37,2,1,17.73,0,3.13,0,,,,,,,,,,,,,,,,,,,,,,,,,,,,,,,,,,,,,,,,,,,,,,,,,,,,,,,,,,,,,,,,,,,,,,,,,,,,,,,,,,,,,,,,,,,,,,,,,,
,,605fe9680cac2ea943d411ec,2022-09-08_13h02.18.038,CGTgamblingSpanTasks,2022.2.1,Win32,19.89851756,,,,,,,,2.0693,,,,,,,,,,,,,,1,n,1.9307,9.87,0,3.0693,1,0,38,38,29,1,16.26,0,9.87,0,,,,,,,,,,,,,,,,,,,,,,,,,,,,,,,,,,,,,,,,,,,,,,,,,,,,,,,,,,,,,,,,,,,,,,,,,,,,,,,,,,,,,,,,,,,,,,,,,,
,,605fe9680cac2ea943d411ec,2022-09-08_13h02.18.038,CGTgamblingSpanTasks,2022.2.1,Win32,19.89851756,,,,,,,,0.4109,,,,,,,,,,,,,,2,n,3.5891,0,1,1.4109,1,0,39,39,0,1,20.03,0,1.99,0,,,,,,,,,,,,,,,,,,,,,,,,,,,,,,,,,,,,,,,,,,,,,,,,,,,,,,,,,,,,,,,,,,,,,,,,,,,,,,,,,,,,,,,,,,,,,,,,,,
,,605fe9680cac2ea943d411ec,2022-09-08_13h02.18.038,CGTgamblingSpanTasks,2022.2.1,Win32,19.89851756,,,,,,,,0,,,,,,,,,,,,,,1,,,,,1,1,0,40,40,15,1,18.77,0,8.61,0,,,,,,,,,,,,,,,,,,,,,,,,,,,,,,,,,,,,,,,,,,,,,,,,,,,,,,,,,,,,,,,,,,,,,,,,,,,,,,,,,,,,,,,,,,,,,,,,,,
,,605fe9680cac2ea943d411ec,2022-09-08_13h02.18.038,CGTgamblingSpanTasks,2022.2.1,Win32,19.89851756,,,,,,,,2.1275,,,,,,,,,,,,,,2,n,1.8725,12.68,1,3.6275,1.5,0,41,41,14,1,12.68,0,5.66,0,,,,,,,,,,,,,,,,,,,,,,,,,,,,,,,,,,,,,,,,,,,,,,,,,,,,,,,,,,,,,,,,,,,,,,,,,,,,,,,,,,,,,,,,,,,,,,,,,,
,,605fe9680cac2ea943d411ec,2022-09-08_13h02.18.038,CGTgamblingSpanTasks,2022.2.1,Win32,19.89851756,,,,,,,,2.4395,,,,,,,,,,,,,,2,v,1.5605,7.55,0,3.9395,1.5,0,42,42,45,1,0,0,7.55,1,,,,,,,,,,,,,,,,,,,,,,,,,,,,,,,,,,,,,,,,,,,,,,,,,,,,,,,,,,,,,,,,,,,,,,,,,,,,,,,,,,,,,,,,,,,,,,,,,,
,,605fe9680cac2ea943d411ec,2022-09-08_13h02.18.038,CGTgamblingSpanTasks,2022.2.1,Win32,19.89851756,,,,,,,,1.9676,,,,,,,,,,,,,,1,n,2.0324,6.99,0,2.9676,1,0,43,43,43,1,16.11,6.99,6.99,1,,,,,,,,,,,,,,,,,,,,,,,,,,,,,,,,,,,,,,,,,,,,,,,,,,,,,,,,,,,,,,,,,,,,,,,,,,,,,,,,,,,,,,,,,,,,,,,,,,
,,605fe9680cac2ea943d411ec,2022-09-08_13h02.18.038,CGTgamblingSpanTasks,2022.2.1,Win32,19.89851756,,,,,,,,2.5318,,,,,,,,,,,,,,1,n,1.4682,6.63,0,3.5318,1,0,44,44,30,1,10.73,0,6.63,0,,,,,,,,,,,,,,,,,,,,,,,,,,,,,,,,,,,,,,,,,,,,,,,,,,,,,,,,,,,,,,,,,,,,,,,,,,,,,,,,,,,,,,,,,,,,,,,,,,
,,605fe9680cac2ea943d411ec,2022-09-08_13h02.18.038,CGTgamblingSpanTasks,2022.2.1,Win32,19.89851756,,,,,,,,2.8005,,,,,,,,,,,,,,1,n,1.1995,10.02,0,4.3005,1.5,0,45,45,31,1,15.96,0,10.02,0,,,,,,,,,,,,,,,,,,,,,,,,,,,,,,,,,,,,,,,,,,,,,,,,,,,,,,,,,,,,,,,,,,,,,,,,,,,,,,,,,,,,,,,,,,,,,,,,,,
,,605fe9680cac2ea943d411ec,2022-09-08_13h02.18.038,CGTgamblingSpanTasks,2022.2.1,Win32,19.89851756,,,,,,,,2.0707,,,,,,,,,,,,,,2,n,1.9293,13.1,1,3.0707,1,0,46,46,44,1,13.1,7.73,4.68,1,,,,,,,,,,,,,,,,,,,,,,,,,,,,,,,,,,,,,,,,,,,,,,,,,,,,,,,,,,,,,,,,,,,,,,,,,,,,,,,,,,,,,,,,,,,,,,,,,,
,,605fe9680cac2ea943d411ec,2022-09-08_13h02.18.038,CGTgamblingSpanTasks,2022.2.1,Win32,19.89851756,,,,,,,,0,,,,,,,,,,,,,,1,,,,,1.5,1.5,0,47,47,42,1,19.86,0,0,1,,,,,,,,,,,,,,,,,,,,,,,,,,,,,,,,,,,,,,,,,,,,,,,,,,,,,,,,,,,,,,,,,,,,,,,,,,,,,,,,,,,,,,,,,,,,,,,,,,
,,605fe9680cac2ea943d411ec,2022-09-08_13h02.18.038,CGTgamblingSpanTasks,2022.2.1,Win32,19.89851756,,,,,,,,2.7131,,,,,,,,,,,,,,2,v,1.2869,9.2,0,3.7131,1,0,48,48,21,1,17.59,0,9.2,0,,,,,,,,,,,,,,,,,,,,,,,,,,,,,,,,,,,,,,,,,,,,,,,,,,,,,,,,,,,,,,,,,,,,,,,,,,,,,,,,,,,,,,,,,,,,,,,,,,
,,605fe9680cac2ea943d411ec,2022-09-08_13h02.18.038,CGTgamblingSpanTasks,2022.2.1,Win32,19.89851756,,,,,,,,2.7618,,,,,,,,,,,,,,1,v,1.2382,14.72,1,4.2618,1.5,0,49,49,6,1,14.72,0,4.64,0,,,,,,,,,,,,,,,,,,,,,,,,,,,,,,,,,,,,,,,,,,,,,,,,,,,,,,,,,,,,,,,,,,,,,,,,,,,,,,,,,,,,,,,,,,,,,,,,,,
,,605fe9680cac2ea943d411ec,2022-09-08_13h02.18.038,CGTgamblingSpanTasks,2022.2.1,Win32,19.89851756,,,,,,,,,,,,,,,,,,,,,,,,,,,,,,,,,,,,,,bespoke_choiceset_rhoInd058_muInd033.csv,bespoke_choicesets/bespoke_choiceset_rhoInd058_muInd033.csv,58,33,0,0,0,0,1,,,,,,,,,,,,,,,,,,,,,,,,,,,,,,,,,,,,,,,,,,,,,,,,,,,,,,,,,,,,,,,,,,,,,,,,,,,,,,,,,,,,,,,,,
,,605fe9680cac2ea943d411ec,2022-09-08_13h02.18.038,CGTgamblingSpanTasks,2022.2.1,Win32,19.89851756,,,,,,,,,,,,,,,,,,,,,,,,,,,,,,,,,,,,,,,,,,,,,,,,,,,,,,,,,,,,,,,,,,,,,,,,,,,,,,,,,,,,,,,,,,,,,,,,,,,,,,,,,,,,,,,,,,,,,,,,,,,,,,,,,,,,,,,
,,605fe9680cac2ea943d411ec,2022-09-08_13h02.18.038,CGTgamblingSpanTasks,2022.2.1,Win32,19.89851756,,,,,,,,,,,,,,,,,,,,,,,,,,,,,,,,,,,,,,,,,,,,,,,v,899.6436,,,,,,,,,,,,,,,,,,,,,,,,,,,,,,,,,,,,,,,,,,,,,,,,,,,,,,,,,,,,,,,,,,,,,,,,,,,,,,,,,,,,,,,
,,605fe9680cac2ea943d411ec,2022-09-08_13h02.18.038,CGTgamblingSpanTasks,2022.2.1,Win32,19.89851756,,,,,,,,2.9495,,,,,,,,,,,,,,2,n,1.0505,27.12325385,1,3.9495,1,,,,,,27.12325385,0,0.080932047,,,,,,,,,,,,,0,0,0,14,1,0.906929184,0,,,,,,,,,,,,,,,,,,,,,,,,,,,,,,,,,,,,,,,,,,,,,,,,,,,,,,,,,,,,,,,,,,,,,,,,,,,,,,,,
,,605fe9680cac2ea943d411ec,2022-09-08_13h02.18.038,CGTgamblingSpanTasks,2022.2.1,Win32,19.89851756,,,,,,,,3.0866,,,,,,,,,,,,,,1,v,0.9134,27.76752685,1,4.0866,1,,,,,,27.76752685,0,0.083968035,,,,,,,,,,,,,0,1,1,13,1,0.906513967,0,,,,,,,,,,,,,,,,,,,,,,,,,,,,,,,,,,,,,,,,,,,,,,,,,,,,,,,,,,,,,,,,,,,,,,,,,,,,,,,,
,,605fe9680cac2ea943d411ec,2022-09-08_13h02.18.038,CGTgamblingSpanTasks,2022.2.1,Win32,19.89851756,,,,,,,,3.0734,,,,,,,,,,,,,,1,v,0.9266,27.7711693,1,4.0734,1,,,,,,27.7711693,0,2.320849632,,,,,,,,,,,,,0,2,2,94,1,0.543786368,1,,,,,,,,,,,,,,,,,,,,,,,,,,,,,,,,,,,,,,,,,,,,,,,,,,,,,,,,,,,,,,,,,,,,,,,,,,,,,,,,
,,605fe9680cac2ea943d411ec,2022-09-08_13h02.18.038,CGTgamblingSpanTasks,2022.2.1,Win32,19.89851756,,,,,,,,2.6687,,,,,,,,,,,,,,2,n,1.3313,3.395192929,1,3.6687,1,,,,,,3.395192929,0,4.251676631,,,,,,,,,,,,,0,3,3,7,1,0.023467153,0,,,,,,,,,,,,,,,,,,,,,,,,,,,,,,,,,,,,,,,,,,,,,,,,,,,,,,,,,,,,,,,,,,,,,,,,,,,,,,,,
,,605fe9680cac2ea943d411ec,2022-09-08_13h02.18.038,CGTgamblingSpanTasks,2022.2.1,Win32,19.89851756,,,,,,,,2.9892,,,,,,,,,,,,,,1,v,1.0108,0,1,3.9892,1,,,,,,24.8002852,0,0.071848086,,,,,,,,,,,,,0,4,4,16,1,0.90783559,0,,,,,,,,,,,,,,,,,,,,,,,,,,,,,,,,,,,,,,,,,,,,,,,,,,,,,,,,,,,,,,,,,,,,,,,,,,,,,,,,
,,605fe9680cac2ea943d411ec,2022-09-08_13h02.18.038,CGTgamblingSpanTasks,2022.2.1,Win32,19.89851756,,,,,,,,2.9469,,,,,,,,,,,,,,2,n,1.0531,7.066129113,1,3.9469,1,,,,,,7.066129113,0,0.585581699,,,,,,,,,,,,,0,5,5,19,1,0.545860632,1,,,,,,,,,,,,,,,,,,,,,,,,,,,,,,,,,,,,,,,,,,,,,,,,,,,,,,,,,,,,,,,,,,,,,,,,,,,,,,,,
,,605fe9680cac2ea943d411ec,2022-09-08_13h02.18.038,CGTgamblingSpanTasks,2022.2.1,Win32,19.89851756,,,,,,,,2.8411,,,,,,,,,,,,,,1,v,1.1589,0,1,4.3411,1.5,,,,,,26.16821818,0,0.093528069,,,,,,,,,,,,,0,6,6,42,1,0.901022427,0,,,,,,,,,,,,,,,,,,,,,,,,,,,,,,,,,,,,,,,,,,,,,,,,,,,,,,,,,,,,,,,,,,,,,,,,,,,,,,,,
,,605fe9680cac2ea943d411ec,2022-09-08_13h02.18.038,CGTgamblingSpanTasks,2022.2.1,Win32,19.89851756,,,,,,,,2.6591,,,,,,,,,,,,,,2,n,1.3409,0,1,4.1591,1.5,,,,,,17.4320197,0,1.448620949,,,,,,,,,,,,,0,7,7,30,1,0.545178213,1,,,,,,,,,,,,,,,,,,,,,,,,,,,,,,,,,,,,,,,,,,,,,,,,,,,,,,,,,,,,,,,,,,,,,,,,,,,,,,,,
,,605fe9680cac2ea943d411ec,2022-09-08_13h02.18.038,CGTgamblingSpanTasks,2022.2.1,Win32,19.89851756,,,,,,,,2.9505,,,,,,,,,,,,,,2,n,1.0495,15.43649625,1,3.9505,1,,,,,,15.43649625,0,1.65459324,,,,,,,,,,,,,0,8,8,33,1,0.479480163,1,,,,,,,,,,,,,,,,,,,,,,,,,,,,,,,,,,,,,,,,,,,,,,,,,,,,,,,,,,,,,,,,,,,,,,,,,,,,,,,,
,,605fe9680cac2ea943d411ec,2022-09-08_13h02.18.038,CGTgamblingSpanTasks,2022.2.1,Win32,19.89851756,,,,,,,,3.0384,,,,,,,,,,,,,,1,v,0.9616,21.46599803,1,4.5384,1.5,,,,,,21.46599803,0,0.059789256,,,,,,,,,,,,,0,9,9,8,1,0.909019081,0,,,,,,,,,,,,,,,,,,,,,,,,,,,,,,,,,,,,,,,,,,,,,,,,,,,,,,,,,,,,,,,,,,,,,,,,,,,,,,,,
,,605fe9680cac2ea943d411ec,2022-09-08_13h02.18.038,CGTgamblingSpanTasks,2022.2.1,Win32,19.89851756,,,,,,,,2.9812,,,,,,,,,,,,,,1,v,1.0188,0,1,4.4812,1.5,,,,,,19.68065872,0,1.843597162,,,,,,,,,,,,,0,10,10,80,1,0.514941058,1,,,,,,,,,,,,,,,,,,,,,,,,,,,,,,,,,,,,,,,,,,,,,,,,,,,,,,,,,,,,,,,,,,,,,,,,,,,,,,,,
,,605fe9680cac2ea943d411ec,2022-09-08_13h02.18.038,CGTgamblingSpanTasks,2022.2.1,Win32,19.89851756,,,,,,,,2.4637,,,,,,,,,,,,,,2,v,1.5363,11.39288827,0,3.9637,1.5,,,,,,20.97851654,0,11.39288827,,,,,,,,,,,,,0,11,11,2,1,0.088791079,0,,,,,,,,,,,,,,,,,,,,,,,,,,,,,,,,,,,,,,,,,,,,,,,,,,,,,,,,,,,,,,,,,,,,,,,,,,,,,,,,
,,605fe9680cac2ea943d411ec,2022-09-08_13h02.18.038,CGTgamblingSpanTasks,2022.2.1,Win32,19.89851756,,,,,,,,3.1698,,,,,,,,,,,,,,2,n,0.8302,24.479109,1,4.1698,1,,,,,,24.479109,0,0.089582697,,,,,,,,,,,,,0,12,12,89,1,0.900200232,0,,,,,,,,,,,,,,,,,,,,,,,,,,,,,,,,,,,,,,,,,,,,,,,,,,,,,,,,,,,,,,,,,,,,,,,,,,,,,,,,
,,605fe9680cac2ea943d411ec,2022-09-08_13h02.18.038,CGTgamblingSpanTasks,2022.2.1,Win32,19.89851756,,,,,,,,3.1328,,,,,,,,,,,,,,2,n,0.8672,18.20422443,1,4.1328,1,,,,,,18.20422443,0,1.635040165,,,,,,,,,,,,,0,13,13,82,1,0.525708991,1,,,,,,,,,,,,,,,,,,,,,,,,,,,,,,,,,,,,,,,,,,,,,,,,,,,,,,,,,,,,,,,,,,,,,,,,,,,,,,,,
,,605fe9680cac2ea943d411ec,2022-09-08_13h02.18.038,CGTgamblingSpanTasks,2022.2.1,Win32,19.89851756,,,,,,,,2.8503,,,,,,,,,,,,,,1,v,1.1497,22.72923833,1,3.8503,1,,,,,,22.72923833,0,0.067170781,,,,,,,,,,,,,0,14,14,86,1,0.907226703,0,,,,,,,,,,,,,,,,,,,,,,,,,,,,,,,,,,,,,,,,,,,,,,,,,,,,,,,,,,,,,,,,,,,,,,,,,,,,,,,,
,,605fe9680cac2ea943d411ec,2022-09-08_13h02.18.038,CGTgamblingSpanTasks,2022.2.1,Win32,19.89851756,,,,,,,,2.9298,,,,,,,,,,,,,,1,v,1.0702,28.9323758,1,4.4298,1.5,,,,,,28.9323758,0,2.893007023,,,,,,,,,,,,,0,15,15,11,1,0.497943321,1,,,,,,,,,,,,,,,,,,,,,,,,,,,,,,,,,,,,,,,,,,,,,,,,,,,,,,,,,,,,,,,,,,,,,,,,,,,,,,,,
,,605fe9680cac2ea943d411ec,2022-09-08_13h02.18.038,CGTgamblingSpanTasks,2022.2.1,Win32,19.89851756,,,,,,,,2.7433,,,,,,,,,,,,,,1,n,1.2567,11.35147481,0,4.2433,1.5,,,,,,17.67865084,0,11.35147481,,,,,,,,,,,,,0,16,16,91,1,0.067304606,0,,,,,,,,,,,,,,,,,,,,,,,,,,,,,,,,,,,,,,,,,,,,,,,,,,,,,,,,,,,,,,,,,,,,,,,,,,,,,,,,
,,605fe9680cac2ea943d411ec,2022-09-08_13h02.18.038,CGTgamblingSpanTasks,2022.2.1,Win32,19.89851756,,,,,,,,2.6975,,,,,,,,,,,,,,1,v,1.3025,13.4287264,1,3.6975,1,,,,,,13.4287264,0,1.317368801,,,,,,,,,,,,,0,17,17,100,1,0.502953125,1,,,,,,,,,,,,,,,,,,,,,,,,,,,,,,,,,,,,,,,,,,,,,,,,,,,,,,,,,,,,,,,,,,,,,,,,,,,,,,,,
,,605fe9680cac2ea943d411ec,2022-09-08_13h02.18.038,CGTgamblingSpanTasks,2022.2.1,Win32,19.89851756,,,,,,,,3.0714,,,,,,,,,,,,,,2,n,0.9286,27.94544945,1,4.5714,1.5,,,,,,27.94544945,0,2.32030209,,,,,,,,,,,,,0,18,18,115,1,0.545390564,1,,,,,,,,,,,,,,,,,,,,,,,,,,,,,,,,,,,,,,,,,,,,,,,,,,,,,,,,,,,,,,,,,,,,,,,,,,,,,,,,
,,605fe9680cac2ea943d411ec,2022-09-08_13h02.18.038,CGTgamblingSpanTasks,2022.2.1,Win32,19.89851756,,,,,,,,3.1265,,,,,,,,,,,,,,1,v,0.8735,0,1,4.1265,1,,,,,,21.2188881,0,2.067660742,,,,,,,,,,,,,0,19,19,107,1,0.50470775,1,,,,,,,,,,,,,,,,,,,,,,,,,,,,,,,,,,,,,,,,,,,,,,,,,,,,,,,,,,,,,,,,,,,,,,,,,,,,,,,,
,,605fe9680cac2ea943d411ec,2022-09-08_13h02.18.038,CGTgamblingSpanTasks,2022.2.1,Win32,19.89851756,,,,,,,,3.0357,,,,,,,,,,,,,,1,v,0.9643,23.59556381,1,4.5357,1.5,,,,,,23.59556381,0,2.464662219,,,,,,,,,,,,,0,20,20,22,1,0.486383205,1,,,,,,,,,,,,,,,,,,,,,,,,,,,,,,,,,,,,,,,,,,,,,,,,,,,,,,,,,,,,,,,,,,,,,,,,,,,,,,,,
,,605fe9680cac2ea943d411ec,2022-09-08_13h02.18.038,CGTgamblingSpanTasks,2022.2.1,Win32,19.89851756,,,,,,,,2.5619,,,,,,,,,,,,,,2,n,1.4381,21.39646914,1,4.0619,1.5,,,,,,21.39646914,0,0.072474078,,,,,,,,,,,,,0,21,21,3,1,0.902848133,0,,,,,,,,,,,,,,,,,,,,,,,,,,,,,,,,,,,,,,,,,,,,,,,,,,,,,,,,,,,,,,,,,,,,,,,,,,,,,,,,
,,605fe9680cac2ea943d411ec,2022-09-08_13h02.18.038,CGTgamblingSpanTasks,2022.2.1,Win32,19.89851756,,,,,,,,3.0723,,,,,,,,,,,,,,2,n,0.9277,13.96521039,1,4.0723,1,,,,,,13.96521039,0,1.591282699,,,,,,,,,,,,,0,22,22,49,1,0.462956344,1,,,,,,,,,,,,,,,,,,,,,,,,,,,,,,,,,,,,,,,,,,,,,,,,,,,,,,,,,,,,,,,,,,,,,,,,,,,,,,,,
,,605fe9680cac2ea943d411ec,2022-09-08_13h02.18.038,CGTgamblingSpanTasks,2022.2.1,Win32,19.89851756,,,,,,,,2.3627,,,,,,,,,,,,,,2,n,1.6373,12.9904115,1,3.3627,1,,,,,,12.9904115,0,11.42134125,,,,,,,,,,,,,0,23,23,118,1,0.037876033,0,,,,,,,,,,,,,,,,,,,,,,,,,,,,,,,,,,,,,,,,,,,,,,,,,,,,,,,,,,,,,,,,,,,,,,,,,,,,,,,,
,,605fe9680cac2ea943d411ec,2022-09-08_13h02.18.038,CGTgamblingSpanTasks,2022.2.1,Win32,19.89851756,,,,,,,,3.1373,,,,,,,,,,,,,,2,n,0.8627,0,1,4.1373,1,,,,,,26.11188619,0,0.081942421,,,,,,,,,,,,,0,24,24,105,1,0.905343856,0,,,,,,,,,,,,,,,,,,,,,,,,,,,,,,,,,,,,,,,,,,,,,,,,,,,,,,,,,,,,,,,,,,,,,,,,,,,,,,,,
,,605fe9680cac2ea943d411ec,2022-09-08_13h02.18.038,CGTgamblingSpanTasks,2022.2.1,Win32,19.89851756,,,,,,,,2.4567,,,,,,,,,,,,,,1,v,1.5433,8.670591867,1,3.9567,1.5,,,,,,8.670591867,0,1.025847652,,,,,,,,,,,,,0,25,25,18,1,0.452680459,1,,,,,,,,,,,,,,,,,,,,,,,,,,,,,,,,,,,,,,,,,,,,,,,,,,,,,,,,,,,,,,,,,,,,,,,,,,,,,,,,
,,605fe9680cac2ea943d411ec,2022-09-08_13h02.18.038,CGTgamblingSpanTasks,2022.2.1,Win32,19.89851756,,,,,,,,0,,,,,,,,,,,,,,2,,,,,1.5,1.5,,,,,,6.662965216,0,6.091504705,,,,,,,,,,,,,0,26,26,102,1,0.035087099,0,,,,,,,,,,,,,,,,,,,,,,,,,,,,,,,,,,,,,,,,,,,,,,,,,,,,,,,,,,,,,,,,,,,,,,,,,,,,,,,,
,,605fe9680cac2ea943d411ec,2022-09-08_13h02.18.038,CGTgamblingSpanTasks,2022.2.1,Win32,19.89851756,,,,,,,,2.6973,,,,,,,,,,,,,,1,v,1.3027,10.05300841,1,4.1973,1.5,,,,,,10.05300841,0,8.512335864,,,,,,,,,,,,,0,27,27,74,1,0.040729225,0,,,,,,,,,,,,,,,,,,,,,,,,,,,,,,,,,,,,,,,,,,,,,,,,,,,,,,,,,,,,,,,,,,,,,,,,,,,,,,,,
,,605fe9680cac2ea943d411ec,2022-09-08_13h02.18.038,CGTgamblingSpanTasks,2022.2.1,Win32,19.89851756,,,,,,,,2.2986,,,,,,,,,,,,,,2,n,1.7014,18.11029021,1,3.7986,1.5,,,,,,18.11029021,0,11.41737518,,,,,,,,,,,,,0,28,28,48,1,0.069445859,0,,,,,,,,,,,,,,,,,,,,,,,,,,,,,,,,,,,,,,,,,,,,,,,,,,,,,,,,,,,,,,,,,,,,,,,,,,,,,,,,
,,605fe9680cac2ea943d411ec,2022-09-08_13h02.18.038,CGTgamblingSpanTasks,2022.2.1,Win32,19.89851756,,,,,,,,2.4139,,,,,,,,,,,,,,1,n,1.5861,9.936178001,0,3.4139,1,,,,,,19.58698544,0,9.936178001,,,,,,,,,,,,,0,29,29,77,1,0.098812204,0,,,,,,,,,,,,,,,,,,,,,,,,,,,,,,,,,,,,,,,,,,,,,,,,,,,,,,,,,,,,,,,,,,,,,,,,,,,,,,,,
,,605fe9680cac2ea943d411ec,2022-09-08_13h02.18.038,CGTgamblingSpanTasks,2022.2.1,Win32,19.89851756,,,,,,,,2.0273,,,,,,,,,,,,,,2,v,1.9727,7.646213173,0,3.0273,1,,,,,,2.042350179,0,7.646213173,,,,,,,,,,,,,0,30,30,53,1,0.009522273,0,,,,,,,,,,,,,,,,,,,,,,,,,,,,,,,,,,,,,,,,,,,,,,,,,,,,,,,,,,,,,,,,,,,,,,,,,,,,,,,,
,,605fe9680cac2ea943d411ec,2022-09-08_13h02.18.038,CGTgamblingSpanTasks,2022.2.1,Win32,19.89851756,,,,,,,,2.5997,,,,,,,,,,,,,,1,v,1.4003,27.39221343,1,4.0997,1.5,,,,,,27.39221343,0,2.743407746,,,,,,,,,,,,,0,31,31,47,1,0.49752044,1,,,,,,,,,,,,,,,,,,,,,,,,,,,,,,,,,,,,,,,,,,,,,,,,,,,,,,,,,,,,,,,,,,,,,,,,,,,,,,,,
,,605fe9680cac2ea943d411ec,2022-09-08_13h02.18.038,CGTgamblingSpanTasks,2022.2.1,Win32,19.89851756,,,,,,,,2.898,,,,,,,,,,,,,,1,v,1.102,0,1,4.398,1.5,,,,,,23.24777057,0,2.003482335,,,,,,,,,,,,,0,32,32,59,1,0.536135174,1,,,,,,,,,,,,,,,,,,,,,,,,,,,,,,,,,,,,,,,,,,,,,,,,,,,,,,,,,,,,,,,,,,,,,,,,,,,,,,,,
,,605fe9680cac2ea943d411ec,2022-09-08_13h02.18.038,CGTgamblingSpanTasks,2022.2.1,Win32,19.89851756,,,,,,,,3.0486,,,,,,,,,,,,,,2,n,0.9514,0,1,4.0486,1,,,,,,9.012590634,0,1.002188111,,,,,,,,,,,,,0,33,33,12,1,0.46958041,1,,,,,,,,,,,,,,,,,,,,,,,,,,,,,,,,,,,,,,,,,,,,,,,,,,,,,,,,,,,,,,,,,,,,,,,,,,,,,,,,
,,605fe9680cac2ea943d411ec,2022-09-08_13h02.18.038,CGTgamblingSpanTasks,2022.2.1,Win32,19.89851756,,,,,,,,2.9893,,,,,,,,,,,,,,1,v,1.0107,17.5608285,1,3.9893,1,,,,,,17.5608285,0,1.825111303,,,,,,,,,,,,,0,34,34,104,1,0.487721116,1,,,,,,,,,,,,,,,,,,,,,,,,,,,,,,,,,,,,,,,,,,,,,,,,,,,,,,,,,,,,,,,,,,,,,,,,,,,,,,,,
,,605fe9680cac2ea943d411ec,2022-09-08_13h02.18.038,CGTgamblingSpanTasks,2022.2.1,Win32,19.89851756,,,,,,,,2.6542,,,,,,,,,,,,,,1,v,1.3458,0,1,3.6542,1,,,,,,27.57491653,0,2.99133314,,,,,,,,,,,,,0,35,35,10,1,0.47625893,1,,,,,,,,,,,,,,,,,,,,,,,,,,,,,,,,,,,,,,,,,,,,,,,,,,,,,,,,,,,,,,,,,,,,,,,,,,,,,,,,
,,605fe9680cac2ea943d411ec,2022-09-08_13h02.18.038,CGTgamblingSpanTasks,2022.2.1,Win32,19.89851756,,,,,,,,2.8975,,,,,,,,,,,,,,1,v,1.1025,0,1,4.3975,1.5,,,,,,25.56803059,0,2.543951743,,,,,,,,,,,,,0,36,36,41,1,0.499247217,1,,,,,,,,,,,,,,,,,,,,,,,,,,,,,,,,,,,,,,,,,,,,,,,,,,,,,,,,,,,,,,,,,,,,,,,,,,,,,,,,
,,605fe9680cac2ea943d411ec,2022-09-08_13h02.18.038,CGTgamblingSpanTasks,2022.2.1,Win32,19.89851756,,,,,,,,2.809,,,,,,,,,,,,,,1,v,1.191,14.11762686,1,4.309,1.5,,,,,,14.11762686,0,8.579385201,,,,,,,,,,,,,0,37,37,60,1,0.073886959,0,,,,,,,,,,,,,,,,,,,,,,,,,,,,,,,,,,,,,,,,,,,,,,,,,,,,,,,,,,,,,,,,,,,,,,,,,,,,,,,,
,,605fe9680cac2ea943d411ec,2022-09-08_13h02.18.038,CGTgamblingSpanTasks,2022.2.1,Win32,19.89851756,,,,,,,,2.671,,,,,,,,,,,,,,2,n,1.329,0,1,4.171,1.5,,,,,,28.9381277,0,2.663622024,,,,,,,,,,,,,0,38,38,103,1,0.519453367,1,,,,,,,,,,,,,,,,,,,,,,,,,,,,,,,,,,,,,,,,,,,,,,,,,,,,,,,,,,,,,,,,,,,,,,,,,,,,,,,,
,,605fe9680cac2ea943d411ec,2022-09-08_13h02.18.038,CGTgamblingSpanTasks,2022.2.1,Win32,19.89851756,,,,,,,,2.9116,,,,,,,,,,,,,,1,n,1.0884,4.462262453,0,3.9116,1,,,,,,0.192759042,0,4.462262453,,,,,,,,,,,,,0,39,39,52,1,0.003553223,0,,,,,,,,,,,,,,,,,,,,,,,,,,,,,,,,,,,,,,,,,,,,,,,,,,,,,,,,,,,,,,,,,,,,,,,,,,,,,,,,
,,605fe9680cac2ea943d411ec,2022-09-08_13h02.18.038,CGTgamblingSpanTasks,2022.2.1,Win32,19.89851756,,,,,,,,3.0771,,,,,,,,,,,,,,2,n,0.9229,0,1,4.0771,1,,,,,,25.21882231,0,0.085746782,,,,,,,,,,,,,0,40,40,64,1,0.90272076,0,,,,,,,,,,,,,,,,,,,,,,,,,,,,,,,,,,,,,,,,,,,,,,,,,,,,,,,,,,,,,,,,,,,,,,,,,,,,,,,,
,,605fe9680cac2ea943d411ec,2022-09-08_13h02.18.038,CGTgamblingSpanTasks,2022.2.1,Win32,19.89851756,,,,,,,,2.8038,,,,,,,,,,,,,,1,v,1.1962,25.76582409,1,4.3038,1.5,,,,,,25.76582409,0,2.393193076,,,,,,,,,,,,,0,41,41,46,1,0.517129855,1,,,,,,,,,,,,,,,,,,,,,,,,,,,,,,,,,,,,,,,,,,,,,,,,,,,,,,,,,,,,,,,,,,,,,,,,,,,,,,,,
,,605fe9680cac2ea943d411ec,2022-09-08_13h02.18.038,CGTgamblingSpanTasks,2022.2.1,Win32,19.89851756,,,,,,,,2.5204,,,,,,,,,,,,,,1,n,1.4796,11.93550497,0,4.0204,1.5,,,,,,14.20587264,0,11.93550497,,,,,,,,,,,,,0,42,42,21,1,0.041340301,0,,,,,,,,,,,,,,,,,,,,,,,,,,,,,,,,,,,,,,,,,,,,,,,,,,,,,,,,,,,,,,,,,,,,,,,,,,,,,,,,
,,605fe9680cac2ea943d411ec,2022-09-08_13h02.18.038,CGTgamblingSpanTasks,2022.2.1,Win32,19.89851756,,,,,,,,2.959,,,,,,,,,,,,,,1,v,1.041,25.0707644,1,3.959,1,,,,,,25.0707644,0,0.067651625,,,,,,,,,,,,,0,43,43,70,1,0.909952349,0,,,,,,,,,,,,,,,,,,,,,,,,,,,,,,,,,,,,,,,,,,,,,,,,,,,,,,,,,,,,,,,,,,,,,,,,,,,,,,,,
,,605fe9680cac2ea943d411ec,2022-09-08_13h02.18.038,CGTgamblingSpanTasks,2022.2.1,Win32,19.89851756,,,,,,,,3.143,,,,,,,,,,,,,,1,v,0.857,0,1,4.143,1,,,,,,28.68598705,0,0.050674956,,,,,,,,,,,,,0,44,44,62,1,0.920905497,0,,,,,,,,,,,,,,,,,,,,,,,,,,,,,,,,,,,,,,,,,,,,,,,,,,,,,,,,,,,,,,,,,,,,,,,,,,,,,,,,
,,605fe9680cac2ea943d411ec,2022-09-08_13h02.18.038,CGTgamblingSpanTasks,2022.2.1,Win32,19.89851756,,,,,,,,2.8822,,,,,,,,,,,,,,2,n,1.1178,0,1,4.3822,1.5,,,,,,28.33977875,0,2.768313633,,,,,,,,,,,,,0,45,45,116,1,0.50406901,1,,,,,,,,,,,,,,,,,,,,,,,,,,,,,,,,,,,,,,,,,,,,,,,,,,,,,,,,,,,,,,,,,,,,,,,,,,,,,,,,
,,605fe9680cac2ea943d411ec,2022-09-08_13h02.18.038,CGTgamblingSpanTasks,2022.2.1,Win32,19.89851756,,,,,,,,3.0033,,,,,,,,,,,,,,2,n,0.9967,18.51345298,1,4.0033,1,,,,,,18.51345298,0,1.932334278,,,,,,,,,,,,,0,46,46,31,1,0.48658696,1,,,,,,,,,,,,,,,,,,,,,,,,,,,,,,,,,,,,,,,,,,,,,,,,,,,,,,,,,,,,,,,,,,,,,,,,,,,,,,,,
,,605fe9680cac2ea943d411ec,2022-09-08_13h02.18.038,CGTgamblingSpanTasks,2022.2.1,Win32,19.89851756,,,,,,,,2.9861,,,,,,,,,,,,,,1,v,1.0139,22.62475578,1,3.9861,1,,,,,,22.62475578,0,2.397643354,,,,,,,,,,,,,0,47,47,93,1,0.482527609,1,,,,,,,,,,,,,,,,,,,,,,,,,,,,,,,,,,,,,,,,,,,,,,,,,,,,,,,,,,,,,,,,,,,,,,,,,,,,,,,,
,,605fe9680cac2ea943d411ec,2022-09-08_13h02.18.038,CGTgamblingSpanTasks,2022.2.1,Win32,19.89851756,,,,,,,,2.7976,,,,,,,,,,,,,,1,v,1.2024,7.534278541,1,4.2976,1.5,,,,,,7.534278541,0,0.747140182,,,,,,,,,,,,,0,48,48,37,1,0.50012466,1,,,,,,,,,,,,,,,,,,,,,,,,,,,,,,,,,,,,,,,,,,,,,,,,,,,,,,,,,,,,,,,,,,,,,,,,,,,,,,,,
,,605fe9680cac2ea943d411ec,2022-09-08_13h02.18.038,CGTgamblingSpanTasks,2022.2.1,Win32,19.89851756,,,,,,,,2.8919,,,,,,,,,,,,,,1,n,1.1081,7.850775577,0,4.3919,1.5,,,,,,4.622707531,0,7.850775577,,,,,,,,,,,,,0,49,49,6,1,0.017737407,0,,,,,,,,,,,,,,,,,,,,,,,,,,,,,,,,,,,,,,,,,,,,,,,,,,,,,,,,,,,,,,,,,,,,,,,,,,,,,,,,
,,605fe9680cac2ea943d411ec,2022-09-08_13h02.18.038,CGTgamblingSpanTasks,2022.2.1,Win32,19.89851756,,,,,,,,2.9931,,,,,,,,,,,,,,1,v,1.0069,0,1,4.4931,1.5,,,,,,29.75778644,0,2.810531415,,,,,,,,,,,,,0,50,50,113,1,0.512824233,1,,,,,,,,,,,,,,,,,,,,,,,,,,,,,,,,,,,,,,,,,,,,,,,,,,,,,,,,,,,,,,,,,,,,,,,,,,,,,,,,
,,605fe9680cac2ea943d411ec,2022-09-08_13h02.18.038,CGTgamblingSpanTasks,2022.2.1,Win32,19.89851756,,,,,,,,2.2853,,,,,,,,,,,,,,2,v,1.7147,11.19311486,0,3.2853,1,,,,,,8.17598802,0,11.19311486,,,,,,,,,,,,,0,51,51,110,1,0.021568003,0,,,,,,,,,,,,,,,,,,,,,,,,,,,,,,,,,,,,,,,,,,,,,,,,,,,,,,,,,,,,,,,,,,,,,,,,,,,,,,,,
,,605fe9680cac2ea943d411ec,2022-09-08_13h02.18.038,CGTgamblingSpanTasks,2022.2.1,Win32,19.89851756,,,,,,,,2.5748,,,,,,,,,,,,,,2,n,1.4252,0,1,3.5748,1,,,,,,23.4214135,0,2.485985001,,,,,,,,,,,,,0,52,52,81,1,0.482105905,1,,,,,,,,,,,,,,,,,,,,,,,,,,,,,,,,,,,,,,,,,,,,,,,,,,,,,,,,,,,,,,,,,,,,,,,,,,,,,,,,
,,605fe9680cac2ea943d411ec,2022-09-08_13h02.18.038,CGTgamblingSpanTasks,2022.2.1,Win32,19.89851756,,,,,,,,3.0023,,,,,,,,,,,,,,1,v,0.9977,21.17800335,1,4.5023,1.5,,,,,,21.17800335,0,0.059830985,,,,,,,,,,,,,0,53,53,67,1,0.908594974,0,,,,,,,,,,,,,,,,,,,,,,,,,,,,,,,,,,,,,,,,,,,,,,,,,,,,,,,,,,,,,,,,,,,,,,,,,,,,,,,,
,,605fe9680cac2ea943d411ec,2022-09-08_13h02.18.038,CGTgamblingSpanTasks,2022.2.1,Win32,19.89851756,,,,,,,,2.9062,,,,,,,,,,,,,,2,n,1.0938,0,1,4.4062,1.5,,,,,,21.16780451,0,2.469465385,,,,,,,,,,,,,0,54,54,32,1,0.456531699,1,,,,,,,,,,,,,,,,,,,,,,,,,,,,,,,,,,,,,,,,,,,,,,,,,,,,,,,,,,,,,,,,,,,,,,,,,,,,,,,,
,,605fe9680cac2ea943d411ec,2022-09-08_13h02.18.038,CGTgamblingSpanTasks,2022.2.1,Win32,19.89851756,,,,,,,,2.8832,,,,,,,,,,,,,,2,n,1.1168,19.5450126,1,4.3832,1.5,,,,,,19.5450126,0,2.123581464,,,,,,,,,,,,,0,55,55,65,1,0.475836144,1,,,,,,,,,,,,,,,,,,,,,,,,,,,,,,,,,,,,,,,,,,,,,,,,,,,,,,,,,,,,,,,,,,,,,,,,,,,,,,,,
,,605fe9680cac2ea943d411ec,2022-09-08_13h02.18.038,CGTgamblingSpanTasks,2022.2.1,Win32,19.89851756,,,,,,,,2.5718,,,,,,,,,,,,,,1,n,1.4282,6.833409611,0,4.0718,1.5,,,,,,6.325091157,0,6.833409611,,,,,,,,,,,,,0,56,56,58,1,0.027113638,0,,,,,,,,,,,,,,,,,,,,,,,,,,,,,,,,,,,,,,,,,,,,,,,,,,,,,,,,,,,,,,,,,,,,,,,,,,,,,,,,
,,605fe9680cac2ea943d411ec,2022-09-08_13h02.18.038,CGTgamblingSpanTasks,2022.2.1,Win32,19.89851756,,,,,,,,2.7658,,,,,,,,,,,,,,2,n,1.2342,0,1,3.7658,1,,,,,,21.7711579,0,2.502728921,,,,,,,,,,,,,0,57,57,101,1,0.460552621,1,,,,,,,,,,,,,,,,,,,,,,,,,,,,,,,,,,,,,,,,,,,,,,,,,,,,,,,,,,,,,,,,,,,,,,,,,,,,,,,,
,,605fe9680cac2ea943d411ec,2022-09-08_13h02.18.038,CGTgamblingSpanTasks,2022.2.1,Win32,19.89851756,,,,,,,,2.7161,,,,,,,,,,,,,,2,n,1.2839,0,1,3.7161,1,,,,,,28.14876717,0,3.117906378,,,,,,,,,,,,,0,58,58,76,1,0.470636736,1,,,,,,,,,,,,,,,,,,,,,,,,,,,,,,,,,,,,,,,,,,,,,,,,,,,,,,,,,,,,,,,,,,,,,,,,,,,,,,,,
,,605fe9680cac2ea943d411ec,2022-09-08_13h02.18.038,CGTgamblingSpanTasks,2022.2.1,Win32,19.89851756,,,,,,,,2.8112,,,,,,,,,,,,,,1,n,1.1888,7.50753835,0,4.3112,1.5,,,,,,2.231316635,0,7.50753835,,,,,,,,,,,,,0,59,59,29,1,0.010273427,0,,,,,,,,,,,,,,,,,,,,,,,,,,,,,,,,,,,,,,,,,,,,,,,,,,,,,,,,,,,,,,,,,,,,,,,,,,,,,,,,
,,605fe9680cac2ea943d411ec,2022-09-08_13h02.18.038,CGTgamblingSpanTasks,2022.2.1,Win32,19.89851756,,,,,,,,2.8143,,,,,,,,,,,,,,2,n,1.1857,8.217594828,1,4.3143,1.5,,,,,,8.217594828,0,0.951019374,,,,,,,,,,,,,0,60,60,87,1,0.458722936,1,,,,,,,,,,,,,,,,,,,,,,,,,,,,,,,,,,,,,,,,,,,,,,,,,,,,,,,,,,,,,,,,,,,,,,,,,,,,,,,,
,,605fe9680cac2ea943d411ec,2022-09-08_13h02.18.038,CGTgamblingSpanTasks,2022.2.1,Win32,19.89851756,,,,,,,,2.55,,,,,,,,,,,,,,1,v,1.45,0,1,4.05,1.5,,,,,,18.50662664,0,0.052546026,,,,,,,,,,,,,0,61,61,112,1,0.908444837,0,,,,,,,,,,,,,,,,,,,,,,,,,,,,,,,,,,,,,,,,,,,,,,,,,,,,,,,,,,,,,,,,,,,,,,,,,,,,,,,,
,,605fe9680cac2ea943d411ec,2022-09-08_13h02.18.038,CGTgamblingSpanTasks,2022.2.1,Win32,19.89851756,,,,,,,,2.8752,,,,,,,,,,,,,,1,v,1.1248,25.65316415,1,4.3752,1.5,,,,,,25.65316415,0,0.079652925,,,,,,,,,,,,,0,62,62,109,1,0.90568168,0,,,,,,,,,,,,,,,,,,,,,,,,,,,,,,,,,,,,,,,,,,,,,,,,,,,,,,,,,,,,,,,,,,,,,,,,,,,,,,,,
,,605fe9680cac2ea943d411ec,2022-09-08_13h02.18.038,CGTgamblingSpanTasks,2022.2.1,Win32,19.89851756,,,,,,,,3.042,,,,,,,,,,,,,,1,v,0.958,20.5726842,1,4.042,1,,,,,,20.5726842,0,0.073558523,,,,,,,,,,,,,0,63,63,26,1,0.901008565,0,,,,,,,,,,,,,,,,,,,,,,,,,,,,,,,,,,,,,,,,,,,,,,,,,,,,,,,,,,,,,,,,,,,,,,,,,,,,,,,,
,,605fe9680cac2ea943d411ec,2022-09-08_13h02.18.038,CGTgamblingSpanTasks,2022.2.1,Win32,19.89851756,,,,,,,,1.9416,,,,,,,,,,,,,,1,v,2.0584,0,1,3.4416,1.5,,,,,,15.73000491,0,8.830252162,,,,,,,,,,,,,0,64,64,95,1,0.084193143,0,,,,,,,,,,,,,,,,,,,,,,,,,,,,,,,,,,,,,,,,,,,,,,,,,,,,,,,,,,,,,,,,,,,,,,,,,,,,,,,,
,,605fe9680cac2ea943d411ec,2022-09-08_13h02.18.038,CGTgamblingSpanTasks,2022.2.1,Win32,19.89851756,,,,,,,,3.0054,,,,,,,,,,,,,,2,n,0.9946,28.18900855,1,4.5054,1.5,,,,,,28.18900855,0,0.05384276,,,,,,,,,,,,,0,65,65,55,1,0.919081308,0,,,,,,,,,,,,,,,,,,,,,,,,,,,,,,,,,,,,,,,,,,,,,,,,,,,,,,,,,,,,,,,,,,,,,,,,,,,,,,,,
,,605fe9680cac2ea943d411ec,2022-09-08_13h02.18.038,CGTgamblingSpanTasks,2022.2.1,Win32,19.89851756,,,,,,,,2.5146,,,,,,,,,,,,,,2,v,1.4854,11.6744431,0,4.0146,1.5,,,,,,10.43004651,0,11.6744431,,,,,,,,,,,,,0,66,66,15,1,0.026176489,0,,,,,,,,,,,,,,,,,,,,,,,,,,,,,,,,,,,,,,,,,,,,,,,,,,,,,,,,,,,,,,,,,,,,,,,,,,,,,,,,
,,605fe9680cac2ea943d411ec,2022-09-08_13h02.18.038,CGTgamblingSpanTasks,2022.2.1,Win32,19.89851756,,,,,,,,2.7662,,,,,,,,,,,,,,1,v,1.2338,22.86604061,1,4.2662,1.5,,,,,,22.86604061,0,2.293289792,,,,,,,,,,,,,0,67,67,51,1,0.49715382,1,,,,,,,,,,,,,,,,,,,,,,,,,,,,,,,,,,,,,,,,,,,,,,,,,,,,,,,,,,,,,,,,,,,,,,,,,,,,,,,,
,,605fe9680cac2ea943d411ec,2022-09-08_13h02.18.038,CGTgamblingSpanTasks,2022.2.1,Win32,19.89851756,,,,,,,,2.7512,,,,,,,,,,,,,,2,v,1.2488,5.683635938,0,3.7512,1,,,,,,4.941039335,0,5.683635938,,,,,,,,,,,,,0,68,68,9,1,0.025481984,0,,,,,,,,,,,,,,,,,,,,,,,,,,,,,,,,,,,,,,,,,,,,,,,,,,,,,,,,,,,,,,,,,,,,,,,,,,,,,,,,
,,605fe9680cac2ea943d411ec,2022-09-08_13h02.18.038,CGTgamblingSpanTasks,2022.2.1,Win32,19.89851756,,,,,,,,2.6261,,,,,,,,,,,,,,1,v,1.3739,0,1,3.6261,1,,,,,,19.36415485,0,1.966229494,,,,,,,,,,,,,0,69,69,96,1,0.493893111,1,,,,,,,,,,,,,,,,,,,,,,,,,,,,,,,,,,,,,,,,,,,,,,,,,,,,,,,,,,,,,,,,,,,,,,,,,,,,,,,,
,,605fe9680cac2ea943d411ec,2022-09-08_13h02.18.038,CGTgamblingSpanTasks,2022.2.1,Win32,19.89851756,,,,,,,,2.3899,,,,,,,,,,,,,,2,v,1.6101,11.61882862,0,3.8899,1.5,,,,,,4.022743614,0,11.61882862,,,,,,,,,,,,,0,70,70,38,1,0.011499376,0,,,,,,,,,,,,,,,,,,,,,,,,,,,,,,,,,,,,,,,,,,,,,,,,,,,,,,,,,,,,,,,,,,,,,,,,,,,,,,,,
,,605fe9680cac2ea943d411ec,2022-09-08_13h02.18.038,CGTgamblingSpanTasks,2022.2.1,Win32,19.89851756,,,,,,,,2.4821,,,,,,,,,,,,,,2,v,1.5179,8.42547829,0,3.9821,1.5,,,,,,15.87668502,0,8.42547829,,,,,,,,,,,,,0,71,71,56,1,0.092099462,0,,,,,,,,,,,,,,,,,,,,,,,,,,,,,,,,,,,,,,,,,,,,,,,,,,,,,,,,,,,,,,,,,,,,,,,,,,,,,,,,
,,605fe9680cac2ea943d411ec,2022-09-08_13h02.18.038,CGTgamblingSpanTasks,2022.2.1,Win32,19.89851756,,,,,,,,3.0479,,,,,,,,,,,,,,1,v,0.9521,0,1,4.5479,1.5,,,,,,22.87092517,0,0.059276504,,,,,,,,,,,,,0,72,72,27,1,0.911114935,0,,,,,,,,,,,,,,,,,,,,,,,,,,,,,,,,,,,,,,,,,,,,,,,,,,,,,,,,,,,,,,,,,,,,,,,,,,,,,,,,
,,605fe9680cac2ea943d411ec,2022-09-08_13h02.18.038,CGTgamblingSpanTasks,2022.2.1,Win32,19.89851756,,,,,,,,3.0406,,,,,,,,,,,,,,1,v,0.9594,17.92584289,1,4.0406,1,,,,,,17.92584289,0,1.878232496,,,,,,,,,,,,,0,73,73,5,1,0.485559263,1,,,,,,,,,,,,,,,,,,,,,,,,,,,,,,,,,,,,,,,,,,,,,,,,,,,,,,,,,,,,,,,,,,,,,,,,,,,,,,,,
,,605fe9680cac2ea943d411ec,2022-09-08_13h02.18.038,CGTgamblingSpanTasks,2022.2.1,Win32,19.89851756,,,,,,,,3.0959,,,,,,,,,,,,,,1,v,0.9041,0,1,4.5959,1.5,,,,,,27.38828234,0,0.0639233,,,,,,,,,,,,,0,74,74,43,1,0.914010176,0,,,,,,,,,,,,,,,,,,,,,,,,,,,,,,,,,,,,,,,,,,,,,,,,,,,,,,,,,,,,,,,,,,,,,,,,,,,,,,,,
,,605fe9680cac2ea943d411ec,2022-09-08_13h02.18.038,CGTgamblingSpanTasks,2022.2.1,Win32,19.89851756,,,,,,,,2.6575,,,,,,,,,,,,,,1,n,1.3425,10.68505773,0,4.1575,1.5,,,,,,17.64114152,0,10.68505773,,,,,,,,,,,,,0,75,75,98,1,0.074299362,0,,,,,,,,,,,,,,,,,,,,,,,,,,,,,,,,,,,,,,,,,,,,,,,,,,,,,,,,,,,,,,,,,,,,,,,,,,,,,,,,
,,605fe9680cac2ea943d411ec,2022-09-08_13h02.18.038,CGTgamblingSpanTasks,2022.2.1,Win32,19.89851756,,,,,,,,2.9424,,,,,,,,,,,,,,1,n,1.0576,10.41201161,0,3.9424,1,,,,,,6.307062696,0,10.41201161,,,,,,,,,,,,,0,76,76,23,1,0.018187109,0,,,,,,,,,,,,,,,,,,,,,,,,,,,,,,,,,,,,,,,,,,,,,,,,,,,,,,,,,,,,,,,,,,,,,,,,,,,,,,,,
,,605fe9680cac2ea943d411ec,2022-09-08_13h02.18.038,CGTgamblingSpanTasks,2022.2.1,Win32,19.89851756,,,,,,,,2.956,,,,,,,,,,,,,,1,v,1.044,11.16819157,1,4.456,1.5,,,,,,11.16819157,0,0.941456753,,,,,,,,,,,,,0,77,77,45,1,0.54163803,1,,,,,,,,,,,,,,,,,,,,,,,,,,,,,,,,,,,,,,,,,,,,,,,,,,,,,,,,,,,,,,,,,,,,,,,,,,,,,,,,
,,605fe9680cac2ea943d411ec,2022-09-08_13h02.18.038,CGTgamblingSpanTasks,2022.2.1,Win32,19.89851756,,,,,,,,2.8097,,,,,,,,,,,,,,1,v,1.1903,17.23907308,1,4.3097,1.5,,,,,,17.23907308,0,2.055848574,,,,,,,,,,,,,0,78,78,66,1,0.450504458,1,,,,,,,,,,,,,,,,,,,,,,,,,,,,,,,,,,,,,,,,,,,,,,,,,,,,,,,,,,,,,,,,,,,,,,,,,,,,,,,,
,,605fe9680cac2ea943d411ec,2022-09-08_13h02.18.038,CGTgamblingSpanTasks,2022.2.1,Win32,19.89851756,,,,,,,,2.7644,,,,,,,,,,,,,,1,v,1.2356,0,1,3.7644,1,,,,,,25.54604005,0,0.088845411,,,,,,,,,,,,,0,79,79,79,1,0.901957831,0,,,,,,,,,,,,,,,,,,,,,,,,,,,,,,,,,,,,,,,,,,,,,,,,,,,,,,,,,,,,,,,,,,,,,,,,,,,,,,,,
,,605fe9680cac2ea943d411ec,2022-09-08_13h02.18.038,CGTgamblingSpanTasks,2022.2.1,Win32,19.89851756,,,,,,,,3.0017,,,,,,,,,,,,,,1,v,0.9983,27.2532142,1,4.0017,1,,,,,,27.2532142,0,0.08089327,,,,,,,,,,,,,0,80,80,119,1,0.907091845,0,,,,,,,,,,,,,,,,,,,,,,,,,,,,,,,,,,,,,,,,,,,,,,,,,,,,,,,,,,,,,,,,,,,,,,,,,,,,,,,,
,,605fe9680cac2ea943d411ec,2022-09-08_13h02.18.038,CGTgamblingSpanTasks,2022.2.1,Win32,19.89851756,,,,,,,,2.9105,,,,,,,,,,,,,,2,n,1.0895,0,1,3.9105,1,,,,,,20.31034258,0,1.870404296,,,,,,,,,,,,,0,81,81,85,1,0.519325853,1,,,,,,,,,,,,,,,,,,,,,,,,,,,,,,,,,,,,,,,,,,,,,,,,,,,,,,,,,,,,,,,,,,,,,,,,,,,,,,,,
,,605fe9680cac2ea943d411ec,2022-09-08_13h02.18.038,CGTgamblingSpanTasks,2022.2.1,Win32,19.89851756,,,,,,,,2.9475,,,,,,,,,,,,,,1,v,1.0525,28.94627214,1,3.9475,1,,,,,,28.94627214,0,2.701896413,,,,,,,,,,,,,0,82,82,111,1,0.515860759,1,,,,,,,,,,,,,,,,,,,,,,,,,,,,,,,,,,,,,,,,,,,,,,,,,,,,,,,,,,,,,,,,,,,,,,,,,,,,,,,,
,,605fe9680cac2ea943d411ec,2022-09-08_13h02.18.038,CGTgamblingSpanTasks,2022.2.1,Win32,19.89851756,,,,,,,,2.5013,,,,,,,,,,,,,,1,n,1.4987,8.653432553,0,3.5013,1,,,,,,15.13999312,0,8.653432553,,,,,,,,,,,,,0,83,83,54,1,0.081767484,0,,,,,,,,,,,,,,,,,,,,,,,,,,,,,,,,,,,,,,,,,,,,,,,,,,,,,,,,,,,,,,,,,,,,,,,,,,,,,,,,
,,605fe9680cac2ea943d411ec,2022-09-08_13h02.18.038,CGTgamblingSpanTasks,2022.2.1,Win32,19.89851756,,,,,,,,2.8056,,,,,,,,,,,,,,1,v,1.1944,27.60724521,1,3.8056,1,,,,,,27.60724521,0,0.088432325,,,,,,,,,,,,,0,84,84,17,1,0.904684186,0,,,,,,,,,,,,,,,,,,,,,,,,,,,,,,,,,,,,,,,,,,,,,,,,,,,,,,,,,,,,,,,,,,,,,,,,,,,,,,,,
,,605fe9680cac2ea943d411ec,2022-09-08_13h02.18.038,CGTgamblingSpanTasks,2022.2.1,Win32,19.89851756,,,,,,,,2.9578,,,,,,,,,,,,,,2,n,1.0422,19.3050342,1,3.9578,1,,,,,,19.3050342,0,2.030232342,,,,,,,,,,,,,0,85,85,73,1,0.484573227,1,,,,,,,,,,,,,,,,,,,,,,,,,,,,,,,,,,,,,,,,,,,,,,,,,,,,,,,,,,,,,,,,,,,,,,,,,,,,,,,,
,,605fe9680cac2ea943d411ec,2022-09-08_13h02.18.038,CGTgamblingSpanTasks,2022.2.1,Win32,19.89851756,,,,,,,,2.7949,,,,,,,,,,,,,,2,n,1.2051,0,1,4.2949,1.5,,,,,,14.3363647,0,1.396635362,,,,,,,,,,,,,0,86,86,78,1,0.504775474,1,,,,,,,,,,,,,,,,,,,,,,,,,,,,,,,,,,,,,,,,,,,,,,,,,,,,,,,,,,,,,,,,,,,,,,,,,,,,,,,,
,,605fe9680cac2ea943d411ec,2022-09-08_13h02.18.038,CGTgamblingSpanTasks,2022.2.1,Win32,19.89851756,,,,,,,,2.4768,,,,,,,,,,,,,,2,n,1.5232,9.725876653,1,3.4768,1,,,,,,9.725876653,0,5.526483034,,,,,,,,,,,,,0,87,87,44,1,0.082550696,0,,,,,,,,,,,,,,,,,,,,,,,,,,,,,,,,,,,,,,,,,,,,,,,,,,,,,,,,,,,,,,,,,,,,,,,,,,,,,,,,
,,605fe9680cac2ea943d411ec,2022-09-08_13h02.18.038,CGTgamblingSpanTasks,2022.2.1,Win32,19.89851756,,,,,,,,2.8962,,,,,,,,,,,,,,2,n,1.1038,21.03408097,1,3.8962,1,,,,,,21.03408097,0,2.208275162,,,,,,,,,,,,,0,88,88,0,1,0.485031246,1,,,,,,,,,,,,,,,,,,,,,,,,,,,,,,,,,,,,,,,,,,,,,,,,,,,,,,,,,,,,,,,,,,,,,,,,,,,,,,,,
,,605fe9680cac2ea943d411ec,2022-09-08_13h02.18.038,CGTgamblingSpanTasks,2022.2.1,Win32,19.89851756,,,,,,,,2.8425,,,,,,,,,,,,,,1,v,1.1575,24.57684014,1,3.8425,1,,,,,,24.57684014,0,0.061756244,,,,,,,,,,,,,0,89,89,68,1,0.911988903,0,,,,,,,,,,,,,,,,,,,,,,,,,,,,,,,,,,,,,,,,,,,,,,,,,,,,,,,,,,,,,,,,,,,,,,,,,,,,,,,,
,,605fe9680cac2ea943d411ec,2022-09-08_13h02.18.038,CGTgamblingSpanTasks,2022.2.1,Win32,19.89851756,,,,,,,,3.051,,,,,,,,,,,,,,1,v,0.949,0,1,4.551,1.5,,,,,,22.0050376,0,2.257683666,,,,,,,,,,,,,0,90,90,4,1,0.491147312,1,,,,,,,,,,,,,,,,,,,,,,,,,,,,,,,,,,,,,,,,,,,,,,,,,,,,,,,,,,,,,,,,,,,,,,,,,,,,,,,,
,,605fe9680cac2ea943d411ec,2022-09-08_13h02.18.038,CGTgamblingSpanTasks,2022.2.1,Win32,19.89851756,,,,,,,,3.1382,,,,,,,,,,,,,,2,n,0.8618,21.48443242,1,4.1382,1,,,,,,21.48443242,0,2.229247341,,,,,,,,,,,,,0,91,91,63,1,0.488155912,1,,,,,,,,,,,,,,,,,,,,,,,,,,,,,,,,,,,,,,,,,,,,,,,,,,,,,,,,,,,,,,,,,,,,,,,,,,,,,,,,
,,605fe9680cac2ea943d411ec,2022-09-08_13h02.18.038,CGTgamblingSpanTasks,2022.2.1,Win32,19.89851756,,,,,,,,3.139,,,,,,,,,,,,,,2,n,0.861,26.36733703,1,4.139,1,,,,,,26.36733703,0,2.201057101,,,,,,,,,,,,,0,92,92,90,1,0.544064207,1,,,,,,,,,,,,,,,,,,,,,,,,,,,,,,,,,,,,,,,,,,,,,,,,,,,,,,,,,,,,,,,,,,,,,,,,,,,,,,,,
,,605fe9680cac2ea943d411ec,2022-09-08_13h02.18.038,CGTgamblingSpanTasks,2022.2.1,Win32,19.89851756,,,,,,,,2.5645,,,,,,,,,,,,,,1,n,1.4355,3.877530383,0,3.5645,1,,,,,,3.471484939,0,3.877530383,,,,,,,,,,,,,0,93,93,40,1,0.02623078,0,,,,,,,,,,,,,,,,,,,,,,,,,,,,,,,,,,,,,,,,,,,,,,,,,,,,,,,,,,,,,,,,,,,,,,,,,,,,,,,,
,,605fe9680cac2ea943d411ec,2022-09-08_13h02.18.038,CGTgamblingSpanTasks,2022.2.1,Win32,19.89851756,,,,,,,,3.0462,,,,,,,,,,,,,,2,n,0.9538,27.93093084,1,4.5462,1.5,,,,,,27.93093084,0,0.050207531,,,,,,,,,,,,,0,94,94,83,1,0.920505936,0,,,,,,,,,,,,,,,,,,,,,,,,,,,,,,,,,,,,,,,,,,,,,,,,,,,,,,,,,,,,,,,,,,,,,,,,,,,,,,,,
,,605fe9680cac2ea943d411ec,2022-09-08_13h02.18.038,CGTgamblingSpanTasks,2022.2.1,Win32,19.89851756,,,,,,,,3.0014,,,,,,,,,,,,,,2,n,0.9986,29.30724159,1,4.0014,1,,,,,,29.30724159,0,3.247012935,,,,,,,,,,,,,0,95,95,71,1,0.470571125,1,,,,,,,,,,,,,,,,,,,,,,,,,,,,,,,,,,,,,,,,,,,,,,,,,,,,,,,,,,,,,,,,,,,,,,,,,,,,,,,,
,,605fe9680cac2ea943d411ec,2022-09-08_13h02.18.038,CGTgamblingSpanTasks,2022.2.1,Win32,19.89851756,,,,,,,,3.2803,,,,,,,,,,,,,,2,n,0.7197,0,1,4.2803,1,,,,,,28.13634754,0,2.532806323,,,,,,,,,,,,,0,96,96,28,1,0.525136524,1,,,,,,,,,,,,,,,,,,,,,,,,,,,,,,,,,,,,,,,,,,,,,,,,,,,,,,,,,,,,,,,,,,,,,,,,,,,,,,,,
,,605fe9680cac2ea943d411ec,2022-09-08_13h02.18.038,CGTgamblingSpanTasks,2022.2.1,Win32,19.89851756,,,,,,,,2.8499,,,,,,,,,,,,,,2,n,1.1501,0,1,4.3499,1.5,,,,,,24.35708027,0,2.738695417,,,,,,,,,,,,,0,97,97,114,1,0.466573634,1,,,,,,,,,,,,,,,,,,,,,,,,,,,,,,,,,,,,,,,,,,,,,,,,,,,,,,,,,,,,,,,,,,,,,,,,,,,,,,,,
,,605fe9680cac2ea943d411ec,2022-09-08_13h02.18.038,CGTgamblingSpanTasks,2022.2.1,Win32,19.89851756,,,,,,,,2.0182,,,,,,,,,,,,,,2,n,1.9818,0,1,3.0182,1,,,,,,8.363821911,0,6.781500919,,,,,,,,,,,,,0,98,98,61,1,0.044227959,0,,,,,,,,,,,,,,,,,,,,,,,,,,,,,,,,,,,,,,,,,,,,,,,,,,,,,,,,,,,,,,,,,,,,,,,,,,,,,,,,
,,605fe9680cac2ea943d411ec,2022-09-08_13h02.18.038,CGTgamblingSpanTasks,2022.2.1,Win32,19.89851756,,,,,,,,2.9693,,,,,,,,,,,,,,2,n,1.0307,0,1,3.9693,1,,,,,,21.00799273,0,0.067969053,,,,,,,,,,,,,0,99,99,92,1,0.904360262,0,,,,,,,,,,,,,,,,,,,,,,,,,,,,,,,,,,,,,,,,,,,,,,,,,,,,,,,,,,,,,,,,,,,,,,,,,,,,,,,,
,,605fe9680cac2ea943d411ec,2022-09-08_13h02.18.038,CGTgamblingSpanTasks,2022.2.1,Win32,19.89851756,,,,,,,,2.8971,,,,,,,,,,,,,,2,n,1.1029,17.30137174,1,4.3971,1.5,,,,,,17.30137174,0,1.716380842,,,,,,,,,,,,,0,100,100,20,1,0.500020285,1,,,,,,,,,,,,,,,,,,,,,,,,,,,,,,,,,,,,,,,,,,,,,,,,,,,,,,,,,,,,,,,,,,,,,,,,,,,,,,,,
,,605fe9680cac2ea943d411ec,2022-09-08_13h02.18.038,CGTgamblingSpanTasks,2022.2.1,Win32,19.89851756,,,,,,,,2.988,,,,,,,,,,,,,,1,v,1.012,27.37527992,1,4.488,1.5,,,,,,27.37527992,0,2.860319095,,,,,,,,,,,,,0,101,101,39,1,0.486304156,1,,,,,,,,,,,,,,,,,,,,,,,,,,,,,,,,,,,,,,,,,,,,,,,,,,,,,,,,,,,,,,,,,,,,,,,,,,,,,,,,
,,605fe9680cac2ea943d411ec,2022-09-08_13h02.18.038,CGTgamblingSpanTasks,2022.2.1,Win32,19.89851756,,,,,,,,2.6573,,,,,,,,,,,,,,1,n,1.3427,10.3417501,0,3.6573,1,,,,,,15.21435748,0,10.3417501,,,,,,,,,,,,,0,102,102,72,1,0.060969226,0,,,,,,,,,,,,,,,,,,,,,,,,,,,,,,,,,,,,,,,,,,,,,,,,,,,,,,,,,,,,,,,,,,,,,,,,,,,,,,,,
,,605fe9680cac2ea943d411ec,2022-09-08_13h02.18.038,CGTgamblingSpanTasks,2022.2.1,Win32,19.89851756,,,,,,,,2.8996,,,,,,,,,,,,,,1,v,1.1004,27.53810185,1,3.8996,1,,,,,,27.53810185,0,0.097022401,,,,,,,,,,,,,0,103,103,50,1,0.901515865,0,,,,,,,,,,,,,,,,,,,,,,,,,,,,,,,,,,,,,,,,,,,,,,,,,,,,,,,,,,,,,,,,,,,,,,,,,,,,,,,,
,,605fe9680cac2ea943d411ec,2022-09-08_13h02.18.038,CGTgamblingSpanTasks,2022.2.1,Win32,19.89851756,,,,,,,,2.7534,,,,,,,,,,,,,,2,n,1.2466,29.77342428,1,4.2534,1.5,,,,,,29.77342428,0,2.838865588,,,,,,,,,,,,,0,104,104,57,1,0.510363415,1,,,,,,,,,,,,,,,,,,,,,,,,,,,,,,,,,,,,,,,,,,,,,,,,,,,,,,,,,,,,,,,,,,,,,,,,,,,,,,,,
,,605fe9680cac2ea943d411ec,2022-09-08_13h02.18.038,CGTgamblingSpanTasks,2022.2.1,Win32,19.89851756,,,,,,,,2.704,,,,,,,,,,,,,,1,v,1.296,17.85020524,1,3.704,1,,,,,,17.85020524,0,2.058701084,,,,,,,,,,,,,0,105,105,25,1,0.459662216,1,,,,,,,,,,,,,,,,,,,,,,,,,,,,,,,,,,,,,,,,,,,,,,,,,,,,,,,,,,,,,,,,,,,,,,,,,,,,,,,,
,,605fe9680cac2ea943d411ec,2022-09-08_13h02.18.038,CGTgamblingSpanTasks,2022.2.1,Win32,19.89851756,,,,,,,,2.9781,,,,,,,,,,,,,,1,v,1.0219,0,1,4.4781,1.5,,,,,,22.25959835,0,0.065383587,,,,,,,,,,,,,0,106,106,97,1,0.907413875,0,,,,,,,,,,,,,,,,,,,,,,,,,,,,,,,,,,,,,,,,,,,,,,,,,,,,,,,,,,,,,,,,,,,,,,,,,,,,,,,,
,,605fe9680cac2ea943d411ec,2022-09-08_13h02.18.038,CGTgamblingSpanTasks,2022.2.1,Win32,19.89851756,,,,,,,,2.9944,,,,,,,,,,,,,,2,n,1.0056,11.08143071,1,3.9944,1,,,,,,11.08143071,0,1.207538756,,,,,,,,,,,,,0,107,107,84,1,0.475047453,1,,,,,,,,,,,,,,,,,,,,,,,,,,,,,,,,,,,,,,,,,,,,,,,,,,,,,,,,,,,,,,,,,,,,,,,,,,,,,,,,
,,605fe9680cac2ea943d411ec,2022-09-08_13h02.18.038,CGTgamblingSpanTasks,2022.2.1,Win32,19.89851756,,,,,,,,3.1591,,,,,,,,,,,,,,1,v,0.8409,27.4965044,1,4.6591,1.5,,,,,,27.4965044,0,2.461467004,,,,,,,,,,,,,0,108,108,36,1,0.526550878,1,,,,,,,,,,,,,,,,,,,,,,,,,,,,,,,,,,,,,,,,,,,,,,,,,,,,,,,,,,,,,,,,,,,,,,,,,,,,,,,,
,,605fe9680cac2ea943d411ec,2022-09-08_13h02.18.038,CGTgamblingSpanTasks,2022.2.1,Win32,19.89851756,,,,,,,,2.1374,,,,,,,,,,,,,,2,v,1.8626,10.31611309,0,3.6374,1.5,,,,,,19.30622782,0,10.31611309,,,,,,,,,,,,,0,109,109,1,1,0.091105656,0,,,,,,,,,,,,,,,,,,,,,,,,,,,,,,,,,,,,,,,,,,,,,,,,,,,,,,,,,,,,,,,,,,,,,,,,,,,,,,,,
,,605fe9680cac2ea943d411ec,2022-09-08_13h02.18.038,CGTgamblingSpanTasks,2022.2.1,Win32,19.89851756,,,,,,,,2.4101,,,,,,,,,,,,,,1,n,1.5899,4.904872644,0,3.4101,1,,,,,,4.698775357,0,4.904872644,,,,,,,,,,,,,0,110,110,75,1,0.028064484,0,,,,,,,,,,,,,,,,,,,,,,,,,,,,,,,,,,,,,,,,,,,,,,,,,,,,,,,,,,,,,,,,,,,,,,,,,,,,,,,,
,,605fe9680cac2ea943d411ec,2022-09-08_13h02.18.038,CGTgamblingSpanTasks,2022.2.1,Win32,19.89851756,,,,,,,,3.0467,,,,,,,,,,,,,,2,n,0.9533,0,1,4.5467,1.5,,,,,,25.26994993,0,2.78925142,,,,,,,,,,,,,0,111,111,108,1,0.471582922,1,,,,,,,,,,,,,,,,,,,,,,,,,,,,,,,,,,,,,,,,,,,,,,,,,,,,,,,,,,,,,,,,,,,,,,,,,,,,,,,,
,,605fe9680cac2ea943d411ec,2022-09-08_13h02.18.038,CGTgamblingSpanTasks,2022.2.1,Win32,19.89851756,,,,,,,,3.1377,,,,,,,,,,,,,,1,v,0.8623,26.4985979,1,4.6377,1.5,,,,,,26.4985979,0,0.051324376,,,,,,,,,,,,,0,112,112,106,1,0.918747215,0,,,,,,,,,,,,,,,,,,,,,,,,,,,,,,,,,,,,,,,,,,,,,,,,,,,,,,,,,,,,,,,,,,,,,,,,,,,,,,,,
,,605fe9680cac2ea943d411ec,2022-09-08_13h02.18.038,CGTgamblingSpanTasks,2022.2.1,Win32,19.89851756,,,,,,,,3.0884,,,,,,,,,,,,,,1,v,0.9116,0,1,4.0884,1,,,,,,27.77179191,0,0.074524436,,,,,,,,,,,,,0,113,113,99,1,0.910114387,0,,,,,,,,,,,,,,,,,,,,,,,,,,,,,,,,,,,,,,,,,,,,,,,,,,,,,,,,,,,,,,,,,,,,,,,,,,,,,,,,
,,605fe9680cac2ea943d411ec,2022-09-08_13h02.18.038,CGTgamblingSpanTasks,2022.2.1,Win32,19.89851756,,,,,,,,2.1354,,,,,,,,,,,,,,2,n,1.8646,0,1,3.1354,1,,,,,,13.84410806,0,1.535873964,,,,,,,,,,,,,0,114,114,88,1,0.470209002,1,,,,,,,,,,,,,,,,,,,,,,,,,,,,,,,,,,,,,,,,,,,,,,,,,,,,,,,,,,,,,,,,,,,,,,,,,,,,,,,,
,,605fe9680cac2ea943d411ec,2022-09-08_13h02.18.038,CGTgamblingSpanTasks,2022.2.1,Win32,19.89851756,,,,,,,,2.9731,,,,,,,,,,,,,,1,v,1.0269,18.16238569,1,4.4731,1.5,,,,,,18.16238569,0,1.540604093,,,,,,,,,,,,,0,115,115,34,1,0.540092491,1,,,,,,,,,,,,,,,,,,,,,,,,,,,,,,,,,,,,,,,,,,,,,,,,,,,,,,,,,,,,,,,,,,,,,,,,,,,,,,,,
,,605fe9680cac2ea943d411ec,2022-09-08_13h02.18.038,CGTgamblingSpanTasks,2022.2.1,Win32,19.89851756,,,,,,,,2.9281,,,,,,,,,,,,,,1,v,1.0719,29.76099779,1,3.9281,1,,,,,,29.76099779,0,0.095763086,,,,,,,,,,,,,0,116,116,35,1,0.904537896,0,,,,,,,,,,,,,,,,,,,,,,,,,,,,,,,,,,,,,,,,,,,,,,,,,,,,,,,,,,,,,,,,,,,,,,,,,,,,,,,,
,,605fe9680cac2ea943d411ec,2022-09-08_13h02.18.038,CGTgamblingSpanTasks,2022.2.1,Win32,19.89851756,,,,,,,,2.8106,,,,,,,,,,,,,,1,v,1.1894,23.0613391,1,4.3106,1.5,,,,,,23.0613391,0,2.387726776,,,,,,,,,,,,,0,117,117,69,1,0.488727763,1,,,,,,,,,,,,,,,,,,,,,,,,,,,,,,,,,,,,,,,,,,,,,,,,,,,,,,,,,,,,,,,,,,,,,,,,,,,,,,,,
,,605fe9680cac2ea943d411ec,2022-09-08_13h02.18.038,CGTgamblingSpanTasks,2022.2.1,Win32,19.89851756,,,,,,,,2.8588,,,,,,,,,,,,,,1,v,1.1412,24.66627941,1,4.3588,1.5,,,,,,24.66627941,0,2.765426402,,,,,,,,,,,,,0,118,118,24,1,0.467360588,1,,,,,,,,,,,,,,,,,,,,,,,,,,,,,,,,,,,,,,,,,,,,,,,,,,,,,,,,,,,,,,,,,,,,,,,,,,,,,,,,
,,605fe9680cac2ea943d411ec,2022-09-08_13h02.18.038,CGTgamblingSpanTasks,2022.2.1,Win32,19.89851756,,,,,,,,2.9691,,,,,,,,,,,,,,1,v,1.0309,27.88092897,1,4.4691,1.5,,,,,,27.88092897,0,2.771762788,,,,,,,,,,,,,0,119,119,117,1,0.499466648,1,,,,,,,,,,,,,,,,,,,,,,,,,,,,,,,,,,,,,,,,,,,,,,,,,,,,,,,,,,,,,,,,,,,,,,,,,,,,,,,,
,,605fe9680cac2ea943d411ec,2022-09-08_13h02.18.038,CGTgamblingSpanTasks,2022.2.1,Win32,19.89851756,,,,,,,,,,,,,,,,,,,,,,,,,,,,,,,,,,,,,,,,,,,,,,,,,,,,,,,,return,816.5886,,,,,,,,,,,,,,,,,,,,,,,,,,,,,,,,,,,,,,,,,,,,,,,,,,,,,,,,,,,,,,,,,,,,,,,,,,,,,,
,,605fe9680cac2ea943d411ec,2022-09-08_13h02.18.038,CGTgamblingSpanTasks,2022.2.1,Win32,19.89851756,,,,,,,,,,,,,,,,,,,,,,,,,,,,,,,,,,,,,,,,,,,,,,,,,,,,,,,,,,return,2.3182,,,,,,,,,,,,,,,,,,,,,,,,,,,,,,,,,,,,,,,,,,,,,,,,,,,,,,,,,,,,,,,,,,,,,,,,,,,,
,,605fe9680cac2ea943d411ec,2022-09-08_13h02.18.038,CGTgamblingSpanTasks,2022.2.1,Win32,19.89851756,,,,,,,,,,,,,,,,,,,,,,,,,,,,,,,,,,,,,,,,,,,,,,,,,,,,,,,,,,,,return,1.1488,,,,,,,,,,,,,,,,,,,,,,,,,,,,,,,,,,,,,,,,,,,,,,,,,,,,,,,,,,,,,,,,,,,,,,,,,,
,,605fe9680cac2ea943d411ec,2022-09-08_13h02.18.038,CGTgamblingSpanTasks,2022.2.1,Win32,19.89851756,,,,,,,,,,,,,,,,,,,,,,,,,,,,,,,,,,,,,,,,,,,,,,,,,,,,,,,,,,,,,,342,1,0.069337442,-0.365947612,1,0,0,cont_buttonPractice,0,0,0,0,1,3,342,24,2,42,,,,,,,,,,,,,,,,,,,,,,,,,,,,,,,,,,,,,,,,,,,,,,,,,,,,,,,,
,,605fe9680cac2ea943d411ec,2022-09-08_13h02.18.038,CGTgamblingSpanTasks,2022.2.1,Win32,19.89851756,,,,,,,,,,,,,,,,,,,,,,,,,,,,,,,,,,,,,,,,,,,,,,,,,,,,,,,,,,,,,,937,1,0.053929122,-0.376733436,1,0,0,cont_buttonPractice,0,1,1,1,1,3,937,73,2,37,,,,,,,,,,,,,,,,,,,,,,,,,,,,,,,,,,,,,,,,,,,,,,,,,,,,,,,,
,,605fe9680cac2ea943d411ec,2022-09-08_13h02.18.038,CGTgamblingSpanTasks,2022.2.1,Win32,19.89851756,,,,,,,,,,,,,,,,,,,,,,,,,,,,,,,,,,,,,,,,,,,,,,,,,,,,,,,,,,,,,,,,,,,,,,,,,,,,,,,,return,1.7799,,,,,,,,,,,,,,,,,,,,,,,,,,,,,,,,,,,,,,,,,,,,,,,,,,,,,,
,,605fe9680cac2ea943d411ec,2022-09-08_13h02.18.038,CGTgamblingSpanTasks,2022.2.1,Win32,19.89851756,,,,,,,,,,,,,,,,,,,,,,,,,,,,,,,,,,,,,,,,,,,,,,,,,,,,,,,,,,,,,,,,,,,,,,,,,,,,,,,,,,"[5,8,4]",0,0,0,0,1,,,,,,,,,,,,,,,,,,,,,,,,,,,,,,,,,,,,,,,,,,,,,,,,
,,605fe9680cac2ea943d411ec,2022-09-08_13h02.18.038,CGTgamblingSpanTasks,2022.2.1,Win32,19.89851756,,,,,,,,,,,,,,,,,,,,,,,,,,,,,,,,,,,,,,,,,,,,,,,,,,,,,,,,,,,,,,,,,,,,,,,,,,,,,,,,,,"[5,8,4]",1,0,1,0,1,,,,,,,,,,,,,,,,,,,,,,,,,,,,,,,,,,,,,,,,,,,,,,,,
,,605fe9680cac2ea943d411ec,2022-09-08_13h02.18.038,CGTgamblingSpanTasks,2022.2.1,Win32,19.89851756,,,,,,,,,,,,,,,,,,,,,,,,,,,,,,,,,,,,,,,,,,,,,,,,,,,,,,,,,,,,,,,,,,,,,,,,,,,,,,,,,,"[5,8,4]",2,0,2,0,1,,,,,,,,,,,,,,,,,,,,,,,,,,,,,,,,,,,,,,,,,,,,,,,,
,,605fe9680cac2ea943d411ec,2022-09-08_13h02.18.038,CGTgamblingSpanTasks,2022.2.1,Win32,19.89851756,,,,,,,,,,,,,,,,,,,,,,,,,,,,,,,,,,,,,,,,,,,,,,,,,,,,,,,,,,,,,,,1,,,,,,,,,,,,,,,,,,,,,,,,,584,0.00770416,-0.407550077,1,0,0,cont_button,0,0,0,0,1,1,,,,,,,,,,,,,,,,,,,,,,,,,,,,,,,,,,,
,,605fe9680cac2ea943d411ec,2022-09-08_13h02.18.038,CGTgamblingSpanTasks,2022.2.1,Win32,19.89851756,,,,,,,,,,,,,,,,,,,,,,,,,,,,,,,,,,,,,,,,,,,,,,,,,,,,,,,,,,,,,,,,,,,,,,,,,,,,,,,,,,"[8,6,7,3]",0,0,0,0,1,,,,,,,,,,,,,,,,,,,,,,,,,,,,,,,,,,,,,,,,,,,,,,,,
,,605fe9680cac2ea943d411ec,2022-09-08_13h02.18.038,CGTgamblingSpanTasks,2022.2.1,Win32,19.89851756,,,,,,,,,,,,,,,,,,,,,,,,,,,,,,,,,,,,,,,,,,,,,,,,,,,,,,,,,,,,,,,,,,,,,,,,,,,,,,,,,,"[8,6,7,3]",1,0,1,0,1,,,,,,,,,,,,,,,,,,,,,,,,,,,,,,,,,,,,,,,,,,,,,,,,
,,605fe9680cac2ea943d411ec,2022-09-08_13h02.18.038,CGTgamblingSpanTasks,2022.2.1,Win32,19.89851756,,,,,,,,,,,,,,,,,,,,,,,,,,,,,,,,,,,,,,,,,,,,,,,,,,,,,,,,,,,,,,,,,,,,,,,,,,,,,,,,,,"[8,6,7,3]",2,0,2,0,1,,,,,,,,,,,,,,,,,,,,,,,,,,,,,,,,,,,,,,,,,,,,,,,,
,,605fe9680cac2ea943d411ec,2022-09-08_13h02.18.038,CGTgamblingSpanTasks,2022.2.1,Win32,19.89851756,,,,,,,,,,,,,,,,,,,,,,,,,,,,,,,,,,,,,,,,,,,,,,,,,,,,,,,,,,,,,,,,,,,,,,,,,,,,,,,,,,"[8,6,7,3]",3,0,3,0,1,,,,,,,,,,,,,,,,,,,,,,,,,,,,,,,,,,,,,,,,,,,,,,,,
,,605fe9680cac2ea943d411ec,2022-09-08_13h02.18.038,CGTgamblingSpanTasks,2022.2.1,Win32,19.89851756,,,,,,,,,,,,,,,,,,,,,,,,,,,,,,,,,,,,,,,,,,,,,,,,,,,,,,,,,,,,,,,1,,,,,,,,,,,,,,,,,,,,,,,,,8673,-0.003081664,-0.402927581,1,0,0,cont_button,0,1,1,1,1,2,,,,,,,,,,,,,,,,,,,,,,,,,,,,,,,,,,,
,,605fe9680cac2ea943d411ec,2022-09-08_13h02.18.038,CGTgamblingSpanTasks,2022.2.1,Win32,19.89851756,,,,,,,,,,,,,,,,,,,,,,,,,,,,,,,,,,,,,,,,,,,,,,,,,,,,,,,,,,,,,,,,,,,,,,,,,,,,,,,,,,"[4,1,2,7,8]",0,0,0,0,1,,,,,,,,,,,,,,,,,,,,,,,,,,,,,,,,,,,,,,,,,,,,,,,,
,,605fe9680cac2ea943d411ec,2022-09-08_13h02.18.038,CGTgamblingSpanTasks,2022.2.1,Win32,19.89851756,,,,,,,,,,,,,,,,,,,,,,,,,,,,,,,,,,,,,,,,,,,,,,,,,,,,,,,,,,,,,,,,,,,,,,,,,,,,,,,,,,"[4,1,2,7,8]",1,0,1,0,1,,,,,,,,,,,,,,,,,,,,,,,,,,,,,,,,,,,,,,,,,,,,,,,,
,,605fe9680cac2ea943d411ec,2022-09-08_13h02.18.038,CGTgamblingSpanTasks,2022.2.1,Win32,19.89851756,,,,,,,,,,,,,,,,,,,,,,,,,,,,,,,,,,,,,,,,,,,,,,,,,,,,,,,,,,,,,,,,,,,,,,,,,,,,,,,,,,"[4,1,2,7,8]",2,0,2,0,1,,,,,,,,,,,,,,,,,,,,,,,,,,,,,,,,,,,,,,,,,,,,,,,,
,,605fe9680cac2ea943d411ec,2022-09-08_13h02.18.038,CGTgamblingSpanTasks,2022.2.1,Win32,19.89851756,,,,,,,,,,,,,,,,,,,,,,,,,,,,,,,,,,,,,,,,,,,,,,,,,,,,,,,,,,,,,,,,,,,,,,,,,,,,,,,,,,"[4,1,2,7,8]",3,0,3,0,1,,,,,,,,,,,,,,,,,,,,,,,,,,,,,,,,,,,,,,,,,,,,,,,,
,,605fe9680cac2ea943d411ec,2022-09-08_13h02.18.038,CGTgamblingSpanTasks,2022.2.1,Win32,19.89851756,,,,,,,,,,,,,,,,,,,,,,,,,,,,,,,,,,,,,,,,,,,,,,,,,,,,,,,,,,,,,,,,,,,,,,,,,,,,,,,,,,"[4,1,2,7,8]",4,0,4,0,1,,,,,,,,,,,,,,,,,,,,,,,,,,,,,,,,,,,,,,,,,,,,,,,,
,,605fe9680cac2ea943d411ec,2022-09-08_13h02.18.038,CGTgamblingSpanTasks,2022.2.1,Win32,19.89851756,,,,,,,,,,,,,,,,,,,,,,,,,,,,,,,,,,,,,,,,,,,,,,,,,,,,,,,,,,,,,,,1,,,,,,,,,,,,,,,,,,,,,,,,,41278,0.107858243,-0.382896764,1,0,0,cont_button,0,2,2,2,1,3,,,,,,,,,,,,,,,,,,,,,,,,,,,,,,,,,,,
,,605fe9680cac2ea943d411ec,2022-09-08_13h02.18.038,CGTgamblingSpanTasks,2022.2.1,Win32,19.89851756,,,,,,,,,,,,,,,,,,,,,,,,,,,,,,,,,,,,,,,,,,,,,,,,,,,,,,,,,,,,,,,,,,,,,,,,,,,,,,,,,,"[3,5,9,7,1,2]",0,0,0,0,1,,,,,,,,,,,,,,,,,,,,,,,,,,,,,,,,,,,,,,,,,,,,,,,,
,,605fe9680cac2ea943d411ec,2022-09-08_13h02.18.038,CGTgamblingSpanTasks,2022.2.1,Win32,19.89851756,,,,,,,,,,,,,,,,,,,,,,,,,,,,,,,,,,,,,,,,,,,,,,,,,,,,,,,,,,,,,,,,,,,,,,,,,,,,,,,,,,"[3,5,9,7,1,2]",1,0,1,0,1,,,,,,,,,,,,,,,,,,,,,,,,,,,,,,,,,,,,,,,,,,,,,,,,
,,605fe9680cac2ea943d411ec,2022-09-08_13h02.18.038,CGTgamblingSpanTasks,2022.2.1,Win32,19.89851756,,,,,,,,,,,,,,,,,,,,,,,,,,,,,,,,,,,,,,,,,,,,,,,,,,,,,,,,,,,,,,,,,,,,,,,,,,,,,,,,,,"[3,5,9,7,1,2]",2,0,2,0,1,,,,,,,,,,,,,,,,,,,,,,,,,,,,,,,,,,,,,,,,,,,,,,,,
,,605fe9680cac2ea943d411ec,2022-09-08_13h02.18.038,CGTgamblingSpanTasks,2022.2.1,Win32,19.89851756,,,,,,,,,,,,,,,,,,,,,,,,,,,,,,,,,,,,,,,,,,,,,,,,,,,,,,,,,,,,,,,,,,,,,,,,,,,,,,,,,,"[3,5,9,7,1,2]",3,0,3,0,1,,,,,,,,,,,,,,,,,,,,,,,,,,,,,,,,,,,,,,,,,,,,,,,,
,,605fe9680cac2ea943d411ec,2022-09-08_13h02.18.038,CGTgamblingSpanTasks,2022.2.1,Win32,19.89851756,,,,,,,,,,,,,,,,,,,,,,,,,,,,,,,,,,,,,,,,,,,,,,,,,,,,,,,,,,,,,,,,,,,,,,,,,,,,,,,,,,"[3,5,9,7,1,2]",4,0,4,0,1,,,,,,,,,,,,,,,,,,,,,,,,,,,,,,,,,,,,,,,,,,,,,,,,
,,605fe9680cac2ea943d411ec,2022-09-08_13h02.18.038,CGTgamblingSpanTasks,2022.2.1,Win32,19.89851756,,,,,,,,,,,,,,,,,,,,,,,,,,,,,,,,,,,,,,,,,,,,,,,,,,,,,,,,,,,,,,,,,,,,,,,,,,,,,,,,,,"[3,5,9,7,1,2]",5,0,5,0,1,,,,,,,,,,,,,,,,,,,,,,,,,,,,,,,,,,,,,,,,,,,,,,,,
,,605fe9680cac2ea943d411ec,2022-09-08_13h02.18.038,CGTgamblingSpanTasks,2022.2.1,Win32,19.89851756,,,,,,,,,,,,,,,,,,,,,,,,,,,,,,,,,,,,,,,,,,,,,,,,,,,,,,,,,,,,,,,1,,,,,,,,,,,,,,,,,,,,,,,,,359712,0.107858243,-0.382896764,1,0,0,cont_button,0,3,3,3,1,4,,,,,,,,,,,,,,,,,,,,,,,,,,,,,,,,,,,
,,605fe9680cac2ea943d411ec,2022-09-08_13h02.18.038,CGTgamblingSpanTasks,2022.2.1,Win32,19.89851756,,,,,,,,,,,,,,,,,,,,,,,,,,,,,,,,,,,,,,,,,,,,,,,,,,,,,,,,,,,,,,,,,,,,,,,,,,,,,,,,,,"[7,4,1,6,2,9,3]",0,0,0,0,1,,,,,,,,,,,,,,,,,,,,,,,,,,,,,,,,,,,,,,,,,,,,,,,,
,,605fe9680cac2ea943d411ec,2022-09-08_13h02.18.038,CGTgamblingSpanTasks,2022.2.1,Win32,19.89851756,,,,,,,,,,,,,,,,,,,,,,,,,,,,,,,,,,,,,,,,,,,,,,,,,,,,,,,,,,,,,,,,,,,,,,,,,,,,,,,,,,"[7,4,1,6,2,9,3]",1,0,1,0,1,,,,,,,,,,,,,,,,,,,,,,,,,,,,,,,,,,,,,,,,,,,,,,,,
,,605fe9680cac2ea943d411ec,2022-09-08_13h02.18.038,CGTgamblingSpanTasks,2022.2.1,Win32,19.89851756,,,,,,,,,,,,,,,,,,,,,,,,,,,,,,,,,,,,,,,,,,,,,,,,,,,,,,,,,,,,,,,,,,,,,,,,,,,,,,,,,,"[7,4,1,6,2,9,3]",2,0,2,0,1,,,,,,,,,,,,,,,,,,,,,,,,,,,,,,,,,,,,,,,,,,,,,,,,
,,605fe9680cac2ea943d411ec,2022-09-08_13h02.18.038,CGTgamblingSpanTasks,2022.2.1,Win32,19.89851756,,,,,,,,,,,,,,,,,,,,,,,,,,,,,,,,,,,,,,,,,,,,,,,,,,,,,,,,,,,,,,,,,,,,,,,,,,,,,,,,,,"[7,4,1,6,2,9,3]",3,0,3,0,1,,,,,,,,,,,,,,,,,,,,,,,,,,,,,,,,,,,,,,,,,,,,,,,,
,,605fe9680cac2ea943d411ec,2022-09-08_13h02.18.038,CGTgamblingSpanTasks,2022.2.1,Win32,19.89851756,,,,,,,,,,,,,,,,,,,,,,,,,,,,,,,,,,,,,,,,,,,,,,,,,,,,,,,,,,,,,,,,,,,,,,,,,,,,,,,,,,"[7,4,1,6,2,9,3]",4,0,4,0,1,,,,,,,,,,,,,,,,,,,,,,,,,,,,,,,,,,,,,,,,,,,,,,,,
,,605fe9680cac2ea943d411ec,2022-09-08_13h02.18.038,CGTgamblingSpanTasks,2022.2.1,Win32,19.89851756,,,,,,,,,,,,,,,,,,,,,,,,,,,,,,,,,,,,,,,,,,,,,,,,,,,,,,,,,,,,,,,,,,,,,,,,,,,,,,,,,,"[7,4,1,6,2,9,3]",5,0,5,0,1,,,,,,,,,,,,,,,,,,,,,,,,,,,,,,,,,,,,,,,,,,,,,,,,
,,605fe9680cac2ea943d411ec,2022-09-08_13h02.18.038,CGTgamblingSpanTasks,2022.2.1,Win32,19.89851756,,,,,,,,,,,,,,,,,,,,,,,,,,,,,,,,,,,,,,,,,,,,,,,,,,,,,,,,,,,,,,,,,,,,,,,,,,,,,,,,,,"[7,4,1,6,2,9,3]",6,0,6,0,1,,,,,,,,,,,,,,,,,,,,,,,,,,,,,,,,,,,,,,,,,,,,,,,,
,,605fe9680cac2ea943d411ec,2022-09-08_13h02.18.038,CGTgamblingSpanTasks,2022.2.1,Win32,19.89851756,,,,,,,,,,,,,,,,,,,,,,,,,,,,,,,,,,,,,,,,,,,,,,,,,,,,,,,,,,,,,,,1,,,,,,,,,,,,,,,,,,,,,,,,,7416293,0.101694915,-0.378274268,1,0,0,cont_button,0,4,4,4,1,5,,,,,,,,,,,,,,,,,,,,,,,,,,,,,,,,,,,
,,605fe9680cac2ea943d411ec,2022-09-08_13h02.18.038,CGTgamblingSpanTasks,2022.2.1,Win32,19.89851756,,,,,,,,,,,,,,,,,,,,,,,,,,,,,,,,,,,,,,,,,,,,,,,,,,,,,,,,,,,,,,,,,,,,,,,,,,,,,,,,,,"[1,9,7,3,8,5,2,4]",0,0,0,0,1,,,,,,,,,,,,,,,,,,,,,,,,,,,,,,,,,,,,,,,,,,,,,,,,
,,605fe9680cac2ea943d411ec,2022-09-08_13h02.18.038,CGTgamblingSpanTasks,2022.2.1,Win32,19.89851756,,,,,,,,,,,,,,,,,,,,,,,,,,,,,,,,,,,,,,,,,,,,,,,,,,,,,,,,,,,,,,,,,,,,,,,,,,,,,,,,,,"[1,9,7,3,8,5,2,4]",1,0,1,0,1,,,,,,,,,,,,,,,,,,,,,,,,,,,,,,,,,,,,,,,,,,,,,,,,
,,605fe9680cac2ea943d411ec,2022-09-08_13h02.18.038,CGTgamblingSpanTasks,2022.2.1,Win32,19.89851756,,,,,,,,,,,,,,,,,,,,,,,,,,,,,,,,,,,,,,,,,,,,,,,,,,,,,,,,,,,,,,,,,,,,,,,,,,,,,,,,,,"[1,9,7,3,8,5,2,4]",2,0,2,0,1,,,,,,,,,,,,,,,,,,,,,,,,,,,,,,,,,,,,,,,,,,,,,,,,
,,605fe9680cac2ea943d411ec,2022-09-08_13h02.18.038,CGTgamblingSpanTasks,2022.2.1,Win32,19.89851756,,,,,,,,,,,,,,,,,,,,,,,,,,,,,,,,,,,,,,,,,,,,,,,,,,,,,,,,,,,,,,,,,,,,,,,,,,,,,,,,,,"[1,9,7,3,8,5,2,4]",3,0,3,0,1,,,,,,,,,,,,,,,,,,,,,,,,,,,,,,,,,,,,,,,,,,,,,,,,
,,605fe9680cac2ea943d411ec,2022-09-08_13h02.18.038,CGTgamblingSpanTasks,2022.2.1,Win32,19.89851756,,,,,,,,,,,,,,,,,,,,,,,,,,,,,,,,,,,,,,,,,,,,,,,,,,,,,,,,,,,,,,,,,,,,,,,,,,,,,,,,,,"[1,9,7,3,8,5,2,4]",4,0,4,0,1,,,,,,,,,,,,,,,,,,,,,,,,,,,,,,,,,,,,,,,,,,,,,,,,
,,605fe9680cac2ea943d411ec,2022-09-08_13h02.18.038,CGTgamblingSpanTasks,2022.2.1,Win32,19.89851756,,,,,,,,,,,,,,,,,,,,,,,,,,,,,,,,,,,,,,,,,,,,,,,,,,,,,,,,,,,,,,,,,,,,,,,,,,,,,,,,,,"[1,9,7,3,8,5,2,4]",5,0,5,0,1,,,,,,,,,,,,,,,,,,,,,,,,,,,,,,,,,,,,,,,,,,,,,,,,
,,605fe9680cac2ea943d411ec,2022-09-08_13h02.18.038,CGTgamblingSpanTasks,2022.2.1,Win32,19.89851756,,,,,,,,,,,,,,,,,,,,,,,,,,,,,,,,,,,,,,,,,,,,,,,,,,,,,,,,,,,,,,,,,,,,,,,,,,,,,,,,,,"[1,9,7,3,8,5,2,4]",6,0,6,0,1,,,,,,,,,,,,,,,,,,,,,,,,,,,,,,,,,,,,,,,,,,,,,,,,
,,605fe9680cac2ea943d411ec,2022-09-08_13h02.18.038,CGTgamblingSpanTasks,2022.2.1,Win32,19.89851756,,,,,,,,,,,,,,,,,,,,,,,,,,,,,,,,,,,,,,,,,,,,,,,,,,,,,,,,,,,,,,,,,,,,,,,,,,,,,,,,,,"[1,9,7,3,8,5,2,4]",7,0,7,0,1,,,,,,,,,,,,,,,,,,,,,,,,,,,,,,,,,,,,,,,,,,,,,,,,
,,605fe9680cac2ea943d411ec,2022-09-08_13h02.18.038,CGTgamblingSpanTasks,2022.2.1,Win32,19.89851756,,,,,,,,,,,,,,,,,,,,,,,,,,,,,,,,,,,,,,,,,,,,,,,,,,,,,,,,,,,,,,,1,,,,,,,,,,,,,,,,,,,,,,,,,19738524,0.101694915,-0.381355932,1,0,0,cont_button,0,5,5,5,1,6,,,,,,,,,,,,,,,,,,,,,,,,,,,,,,,,,,,
,,605fe9680cac2ea943d411ec,2022-09-08_13h02.18.038,CGTgamblingSpanTasks,2022.2.1,Win32,19.89851756,,,,,,,,,,,,,,,,,,,,,,,,,,,,,,,,,,,,,,,,,,,,,,,,,,,,,,,,,,,,,,,,,,,,,,,,,,,,,,,,,,"[9,7,5,8,4,3,6,1,2]",0,0,0,0,1,,,,,,,,,,,,,,,,,,,,,,,,,,,,,,,,,,,,,,,,,,,,,,,,
,,605fe9680cac2ea943d411ec,2022-09-08_13h02.18.038,CGTgamblingSpanTasks,2022.2.1,Win32,19.89851756,,,,,,,,,,,,,,,,,,,,,,,,,,,,,,,,,,,,,,,,,,,,,,,,,,,,,,,,,,,,,,,,,,,,,,,,,,,,,,,,,,"[9,7,5,8,4,3,6,1,2]",1,0,1,0,1,,,,,,,,,,,,,,,,,,,,,,,,,,,,,,,,,,,,,,,,,,,,,,,,
,,605fe9680cac2ea943d411ec,2022-09-08_13h02.18.038,CGTgamblingSpanTasks,2022.2.1,Win32,19.89851756,,,,,,,,,,,,,,,,,,,,,,,,,,,,,,,,,,,,,,,,,,,,,,,,,,,,,,,,,,,,,,,,,,,,,,,,,,,,,,,,,,"[9,7,5,8,4,3,6,1,2]",2,0,2,0,1,,,,,,,,,,,,,,,,,,,,,,,,,,,,,,,,,,,,,,,,,,,,,,,,
,,605fe9680cac2ea943d411ec,2022-09-08_13h02.18.038,CGTgamblingSpanTasks,2022.2.1,Win32,19.89851756,,,,,,,,,,,,,,,,,,,,,,,,,,,,,,,,,,,,,,,,,,,,,,,,,,,,,,,,,,,,,,,,,,,,,,,,,,,,,,,,,,"[9,7,5,8,4,3,6,1,2]",3,0,3,0,1,,,,,,,,,,,,,,,,,,,,,,,,,,,,,,,,,,,,,,,,,,,,,,,,
,,605fe9680cac2ea943d411ec,2022-09-08_13h02.18.038,CGTgamblingSpanTasks,2022.2.1,Win32,19.89851756,,,,,,,,,,,,,,,,,,,,,,,,,,,,,,,,,,,,,,,,,,,,,,,,,,,,,,,,,,,,,,,,,,,,,,,,,,,,,,,,,,"[9,7,5,8,4,3,6,1,2]",4,0,4,0,1,,,,,,,,,,,,,,,,,,,,,,,,,,,,,,,,,,,,,,,,,,,,,,,,
,,605fe9680cac2ea943d411ec,2022-09-08_13h02.18.038,CGTgamblingSpanTasks,2022.2.1,Win32,19.89851756,,,,,,,,,,,,,,,,,,,,,,,,,,,,,,,,,,,,,,,,,,,,,,,,,,,,,,,,,,,,,,,,,,,,,,,,,,,,,,,,,,"[9,7,5,8,4,3,6,1,2]",5,0,5,0,1,,,,,,,,,,,,,,,,,,,,,,,,,,,,,,,,,,,,,,,,,,,,,,,,
,,605fe9680cac2ea943d411ec,2022-09-08_13h02.18.038,CGTgamblingSpanTasks,2022.2.1,Win32,19.89851756,,,,,,,,,,,,,,,,,,,,,,,,,,,,,,,,,,,,,,,,,,,,,,,,,,,,,,,,,,,,,,,,,,,,,,,,,,,,,,,,,,"[9,7,5,8,4,3,6,1,2]",6,0,6,0,1,,,,,,,,,,,,,,,,,,,,,,,,,,,,,,,,,,,,,,,,,,,,,,,,
,,605fe9680cac2ea943d411ec,2022-09-08_13h02.18.038,CGTgamblingSpanTasks,2022.2.1,Win32,19.89851756,,,,,,,,,,,,,,,,,,,,,,,,,,,,,,,,,,,,,,,,,,,,,,,,,,,,,,,,,,,,,,,,,,,,,,,,,,,,,,,,,,"[9,7,5,8,4,3,6,1,2]",7,0,7,0,1,,,,,,,,,,,,,,,,,,,,,,,,,,,,,,,,,,,,,,,,,,,,,,,,
,,605fe9680cac2ea943d411ec,2022-09-08_13h02.18.038,CGTgamblingSpanTasks,2022.2.1,Win32,19.89851756,,,,,,,,,,,,,,,,,,,,,,,,,,,,,,,,,,,,,,,,,,,,,,,,,,,,,,,,,,,,,,,,,,,,,,,,,,,,,,,,,,"[9,7,5,8,4,3,6,1,2]",8,0,8,0,1,,,,,,,,,,,,,,,,,,,,,,,,,,,,,,,,,,,,,,,,,,,,,,,,
,,605fe9680cac2ea943d411ec,2022-09-08_13h02.18.038,CGTgamblingSpanTasks,2022.2.1,Win32,19.89851756,,,,,,,,,,,,,,,,,,,,,,,,,,,,,,,,,,,,,,,,,,,,,,,,,,,,,,,,,,,,,,,1,,,,,,,,,,,,,,,,,,,,,,,,,975843612,0.101694915,-0.384437596,1,0,0,cont_button,0,6,6,6,1,7,,,,,,,,,,,,,,,,,,,,,,,,,,,,,,,,,,,
,,605fe9680cac2ea943d411ec,2022-09-08_13h02.18.038,CGTgamblingSpanTasks,2022.2.1,Win32,19.89851756,,,,,,,,,,,,,,,,,,,,,,,,,,,,,,,,,,,,,,,,,,,,,,,,,,,,,,,,,,,,,,,,,,,,,,,,,,,,,,,,,,"[5,9,3,6,8,1,4,2,7,7]",0,0,0,0,1,,,,,,,,,,,,,,,,,,,,,,,,,,,,,,,,,,,,,,,,,,,,,,,,
,,605fe9680cac2ea943d411ec,2022-09-08_13h02.18.038,CGTgamblingSpanTasks,2022.2.1,Win32,19.89851756,,,,,,,,,,,,,,,,,,,,,,,,,,,,,,,,,,,,,,,,,,,,,,,,,,,,,,,,,,,,,,,,,,,,,,,,,,,,,,,,,,"[5,9,3,6,8,1,4,2,7,7]",1,0,1,0,1,,,,,,,,,,,,,,,,,,,,,,,,,,,,,,,,,,,,,,,,,,,,,,,,
,,605fe9680cac2ea943d411ec,2022-09-08_13h02.18.038,CGTgamblingSpanTasks,2022.2.1,Win32,19.89851756,,,,,,,,,,,,,,,,,,,,,,,,,,,,,,,,,,,,,,,,,,,,,,,,,,,,,,,,,,,,,,,,,,,,,,,,,,,,,,,,,,"[5,9,3,6,8,1,4,2,7,7]",2,0,2,0,1,,,,,,,,,,,,,,,,,,,,,,,,,,,,,,,,,,,,,,,,,,,,,,,,
,,605fe9680cac2ea943d411ec,2022-09-08_13h02.18.038,CGTgamblingSpanTasks,2022.2.1,Win32,19.89851756,,,,,,,,,,,,,,,,,,,,,,,,,,,,,,,,,,,,,,,,,,,,,,,,,,,,,,,,,,,,,,,,,,,,,,,,,,,,,,,,,,"[5,9,3,6,8,1,4,2,7,7]",3,0,3,0,1,,,,,,,,,,,,,,,,,,,,,,,,,,,,,,,,,,,,,,,,,,,,,,,,
,,605fe9680cac2ea943d411ec,2022-09-08_13h02.18.038,CGTgamblingSpanTasks,2022.2.1,Win32,19.89851756,,,,,,,,,,,,,,,,,,,,,,,,,,,,,,,,,,,,,,,,,,,,,,,,,,,,,,,,,,,,,,,,,,,,,,,,,,,,,,,,,,"[5,9,3,6,8,1,4,2,7,7]",4,0,4,0,1,,,,,,,,,,,,,,,,,,,,,,,,,,,,,,,,,,,,,,,,,,,,,,,,
,,605fe9680cac2ea943d411ec,2022-09-08_13h02.18.038,CGTgamblingSpanTasks,2022.2.1,Win32,19.89851756,,,,,,,,,,,,,,,,,,,,,,,,,,,,,,,,,,,,,,,,,,,,,,,,,,,,,,,,,,,,,,,,,,,,,,,,,,,,,,,,,,"[5,9,3,6,8,1,4,2,7,7]",5,0,5,0,1,,,,,,,,,,,,,,,,,,,,,,,,,,,,,,,,,,,,,,,,,,,,,,,,
,,605fe9680cac2ea943d411ec,2022-09-08_13h02.18.038,CGTgamblingSpanTasks,2022.2.1,Win32,19.89851756,,,,,,,,,,,,,,,,,,,,,,,,,,,,,,,,,,,,,,,,,,,,,,,,,,,,,,,,,,,,,,,,,,,,,,,,,,,,,,,,,,"[5,9,3,6,8,1,4,2,7,7]",6,0,6,0,1,,,,,,,,,,,,,,,,,,,,,,,,,,,,,,,,,,,,,,,,,,,,,,,,
,,605fe9680cac2ea943d411ec,2022-09-08_13h02.18.038,CGTgamblingSpanTasks,2022.2.1,Win32,19.89851756,,,,,,,,,,,,,,,,,,,,,,,,,,,,,,,,,,,,,,,,,,,,,,,,,,,,,,,,,,,,,,,,,,,,,,,,,,,,,,,,,,"[5,9,3,6,8,1,4,2,7,7]",7,0,7,0,1,,,,,,,,,,,,,,,,,,,,,,,,,,,,,,,,,,,,,,,,,,,,,,,,
,,605fe9680cac2ea943d411ec,2022-09-08_13h02.18.038,CGTgamblingSpanTasks,2022.2.1,Win32,19.89851756,,,,,,,,,,,,,,,,,,,,,,,,,,,,,,,,,,,,,,,,,,,,,,,,,,,,,,,,,,,,,,,,,,,,,,,,,,,,,,,,,,"[5,9,3,6,8,1,4,2,7,7]",8,0,8,0,1,,,,,,,,,,,,,,,,,,,,,,,,,,,,,,,,,,,,,,,,,,,,,,,,
,,605fe9680cac2ea943d411ec,2022-09-08_13h02.18.038,CGTgamblingSpanTasks,2022.2.1,Win32,19.89851756,,,,,,,,,,,,,,,,,,,,,,,,,,,,,,,,,,,,,,,,,,,,,,,,,,,,,,,,,,,,,,,,,,,,,,,,,,,,,,,,,,"[5,9,3,6,8,1,4,2,7,7]",9,0,9,0,1,,,,,,,,,,,,,,,,,,,,,,,,,,,,,,,,,,,,,,,,,,,,,,,,
,,605fe9680cac2ea943d411ec,2022-09-08_13h02.18.038,CGTgamblingSpanTasks,2022.2.1,Win32,19.89851756,,,,,,,,,,,,,,,,,,,,,,,,,,,,,,,,,,,,,,,,,,,,,,,,,,,,,,,,,,,,,,,1,,,,,,,,,,,,,,,,,,,,,,,,,5936814277,0.063174114,-0.404468413,1,0,0,cont_button,0,7,7,7,1,8,,,,,,,,,,,,,,,,,,,,,,,,,,,,,,,,,,,
,,605fe9680cac2ea943d411ec,2022-09-08_13h02.18.038,CGTgamblingSpanTasks,2022.2.1,Win32,19.89851756,,,,,,,,,,,,,,,,,,,,,,,,,,,,,,,,,,,,,,,,,,,,,,,,,,,,,,,,,,,,,,,,,,,,,,,,,,,,,,,,,,"[6,2,3,1,4,5,8,9,7,7,6]",0,0,0,0,1,,,,,,,,,,,,,,,,,,,,,,,,,,,,,,,,,,,,,,,,,,,,,,,,
,,605fe9680cac2ea943d411ec,2022-09-08_13h02.18.038,CGTgamblingSpanTasks,2022.2.1,Win32,19.89851756,,,,,,,,,,,,,,,,,,,,,,,,,,,,,,,,,,,,,,,,,,,,,,,,,,,,,,,,,,,,,,,,,,,,,,,,,,,,,,,,,,"[6,2,3,1,4,5,8,9,7,7,6]",1,0,1,0,1,,,,,,,,,,,,,,,,,,,,,,,,,,,,,,,,,,,,,,,,,,,,,,,,
,,605fe9680cac2ea943d411ec,2022-09-08_13h02.18.038,CGTgamblingSpanTasks,2022.2.1,Win32,19.89851756,,,,,,,,,,,,,,,,,,,,,,,,,,,,,,,,,,,,,,,,,,,,,,,,,,,,,,,,,,,,,,,,,,,,,,,,,,,,,,,,,,"[6,2,3,1,4,5,8,9,7,7,6]",2,0,2,0,1,,,,,,,,,,,,,,,,,,,,,,,,,,,,,,,,,,,,,,,,,,,,,,,,
,,605fe9680cac2ea943d411ec,2022-09-08_13h02.18.038,CGTgamblingSpanTasks,2022.2.1,Win32,19.89851756,,,,,,,,,,,,,,,,,,,,,,,,,,,,,,,,,,,,,,,,,,,,,,,,,,,,,,,,,,,,,,,,,,,,,,,,,,,,,,,,,,"[6,2,3,1,4,5,8,9,7,7,6]",3,0,3,0,1,,,,,,,,,,,,,,,,,,,,,,,,,,,,,,,,,,,,,,,,,,,,,,,,
,,605fe9680cac2ea943d411ec,2022-09-08_13h02.18.038,CGTgamblingSpanTasks,2022.2.1,Win32,19.89851756,,,,,,,,,,,,,,,,,,,,,,,,,,,,,,,,,,,,,,,,,,,,,,,,,,,,,,,,,,,,,,,,,,,,,,,,,,,,,,,,,,"[6,2,3,1,4,5,8,9,7,7,6]",4,0,4,0,1,,,,,,,,,,,,,,,,,,,,,,,,,,,,,,,,,,,,,,,,,,,,,,,,
,,605fe9680cac2ea943d411ec,2022-09-08_13h02.18.038,CGTgamblingSpanTasks,2022.2.1,Win32,19.89851756,,,,,,,,,,,,,,,,,,,,,,,,,,,,,,,,,,,,,,,,,,,,,,,,,,,,,,,,,,,,,,,,,,,,,,,,,,,,,,,,,,"[6,2,3,1,4,5,8,9,7,7,6]",5,0,5,0,1,,,,,,,,,,,,,,,,,,,,,,,,,,,,,,,,,,,,,,,,,,,,,,,,
,,605fe9680cac2ea943d411ec,2022-09-08_13h02.18.038,CGTgamblingSpanTasks,2022.2.1,Win32,19.89851756,,,,,,,,,,,,,,,,,,,,,,,,,,,,,,,,,,,,,,,,,,,,,,,,,,,,,,,,,,,,,,,,,,,,,,,,,,,,,,,,,,"[6,2,3,1,4,5,8,9,7,7,6]",6,0,6,0,1,,,,,,,,,,,,,,,,,,,,,,,,,,,,,,,,,,,,,,,,,,,,,,,,
,,605fe9680cac2ea943d411ec,2022-09-08_13h02.18.038,CGTgamblingSpanTasks,2022.2.1,Win32,19.89851756,,,,,,,,,,,,,,,,,,,,,,,,,,,,,,,,,,,,,,,,,,,,,,,,,,,,,,,,,,,,,,,,,,,,,,,,,,,,,,,,,,"[6,2,3,1,4,5,8,9,7,7,6]",7,0,7,0,1,,,,,,,,,,,,,,,,,,,,,,,,,,,,,,,,,,,,,,,,,,,,,,,,
,,605fe9680cac2ea943d411ec,2022-09-08_13h02.18.038,CGTgamblingSpanTasks,2022.2.1,Win32,19.89851756,,,,,,,,,,,,,,,,,,,,,,,,,,,,,,,,,,,,,,,,,,,,,,,,,,,,,,,,,,,,,,,,,,,,,,,,,,,,,,,,,,"[6,2,3,1,4,5,8,9,7,7,6]",8,0,8,0,1,,,,,,,,,,,,,,,,,,,,,,,,,,,,,,,,,,,,,,,,,,,,,,,,
,,605fe9680cac2ea943d411ec,2022-09-08_13h02.18.038,CGTgamblingSpanTasks,2022.2.1,Win32,19.89851756,,,,,,,,,,,,,,,,,,,,,,,,,,,,,,,,,,,,,,,,,,,,,,,,,,,,,,,,,,,,,,,,,,,,,,,,,,,,,,,,,,"[6,2,3,1,4,5,8,9,7,7,6]",9,0,9,0,1,,,,,,,,,,,,,,,,,,,,,,,,,,,,,,,,,,,,,,,,,,,,,,,,
,,605fe9680cac2ea943d411ec,2022-09-08_13h02.18.038,CGTgamblingSpanTasks,2022.2.1,Win32,19.89851756,,,,,,,,,,,,,,,,,,,,,,,,,,,,,,,,,,,,,,,,,,,,,,,,,,,,,,,,,,,,,,,,,,,,,,,,,,,,,,,,,,"[6,2,3,1,4,5,8,9,7,7,6]",10,0,10,0,1,,,,,,,,,,,,,,,,,,,,,,,,,,,,,,,,,,,,,,,,,,,,,,,,
,,605fe9680cac2ea943d411ec,2022-09-08_13h02.18.038,CGTgamblingSpanTasks,2022.2.1,Win32,19.89851756,,,,,,,,,,,,,,,,,,,,,,,,,,,,,,,,,,,,,,,,,,,,,,,,,,,,,,,,,,,,,,,1,,,,,,,,,,,,,,,,,,,,,,,,,62314589776,0.064714946,-0.407550077,1,0,0,cont_button,0,8,8,8,1,9,,,,,,,,,,,,,,,,,,,,,,,,,,,,,,,,,,,
,,605fe9680cac2ea943d411ec,2022-09-08_13h02.18.038,CGTgamblingSpanTasks,2022.2.1,Win32,19.89851756,,,,,,,,,,,,,,,,,,,,,,,,,,,,,,,,,,,,,,,,,,,,,,,,,,,,,,,,,,,,,,,,,,,,,,,,,,,,,,,,,,"[3,8,5,1,7,6,2,9,4,4,3,5]",0,0,0,0,1,,,,,,,,,,,,,,,,,,,,,,,,,,,,,,,,,,,,,,,,,,,,,,,,
,,605fe9680cac2ea943d411ec,2022-09-08_13h02.18.038,CGTgamblingSpanTasks,2022.2.1,Win32,19.89851756,,,,,,,,,,,,,,,,,,,,,,,,,,,,,,,,,,,,,,,,,,,,,,,,,,,,,,,,,,,,,,,,,,,,,,,,,,,,,,,,,,"[3,8,5,1,7,6,2,9,4,4,3,5]",1,0,1,0,1,,,,,,,,,,,,,,,,,,,,,,,,,,,,,,,,,,,,,,,,,,,,,,,,
,,605fe9680cac2ea943d411ec,2022-09-08_13h02.18.038,CGTgamblingSpanTasks,2022.2.1,Win32,19.89851756,,,,,,,,,,,,,,,,,,,,,,,,,,,,,,,,,,,,,,,,,,,,,,,,,,,,,,,,,,,,,,,,,,,,,,,,,,,,,,,,,,"[3,8,5,1,7,6,2,9,4,4,3,5]",2,0,2,0,1,,,,,,,,,,,,,,,,,,,,,,,,,,,,,,,,,,,,,,,,,,,,,,,,
,,605fe9680cac2ea943d411ec,2022-09-08_13h02.18.038,CGTgamblingSpanTasks,2022.2.1,Win32,19.89851756,,,,,,,,,,,,,,,,,,,,,,,,,,,,,,,,,,,,,,,,,,,,,,,,,,,,,,,,,,,,,,,,,,,,,,,,,,,,,,,,,,"[3,8,5,1,7,6,2,9,4,4,3,5]",3,0,3,0,1,,,,,,,,,,,,,,,,,,,,,,,,,,,,,,,,,,,,,,,,,,,,,,,,
,,605fe9680cac2ea943d411ec,2022-09-08_13h02.18.038,CGTgamblingSpanTasks,2022.2.1,Win32,19.89851756,,,,,,,,,,,,,,,,,,,,,,,,,,,,,,,,,,,,,,,,,,,,,,,,,,,,,,,,,,,,,,,,,,,,,,,,,,,,,,,,,,"[3,8,5,1,7,6,2,9,4,4,3,5]",4,0,4,0,1,,,,,,,,,,,,,,,,,,,,,,,,,,,,,,,,,,,,,,,,,,,,,,,,
,,605fe9680cac2ea943d411ec,2022-09-08_13h02.18.038,CGTgamblingSpanTasks,2022.2.1,Win32,19.89851756,,,,,,,,,,,,,,,,,,,,,,,,,,,,,,,,,,,,,,,,,,,,,,,,,,,,,,,,,,,,,,,,,,,,,,,,,,,,,,,,,,"[3,8,5,1,7,6,2,9,4,4,3,5]",5,0,5,0,1,,,,,,,,,,,,,,,,,,,,,,,,,,,,,,,,,,,,,,,,,,,,,,,,
,,605fe9680cac2ea943d411ec,2022-09-08_13h02.18.038,CGTgamblingSpanTasks,2022.2.1,Win32,19.89851756,,,,,,,,,,,,,,,,,,,,,,,,,,,,,,,,,,,,,,,,,,,,,,,,,,,,,,,,,,,,,,,,,,,,,,,,,,,,,,,,,,"[3,8,5,1,7,6,2,9,4,4,3,5]",6,0,6,0,1,,,,,,,,,,,,,,,,,,,,,,,,,,,,,,,,,,,,,,,,,,,,,,,,
,,605fe9680cac2ea943d411ec,2022-09-08_13h02.18.038,CGTgamblingSpanTasks,2022.2.1,Win32,19.89851756,,,,,,,,,,,,,,,,,,,,,,,,,,,,,,,,,,,,,,,,,,,,,,,,,,,,,,,,,,,,,,,,,,,,,,,,,,,,,,,,,,"[3,8,5,1,7,6,2,9,4,4,3,5]",7,0,7,0,1,,,,,,,,,,,,,,,,,,,,,,,,,,,,,,,,,,,,,,,,,,,,,,,,
,,605fe9680cac2ea943d411ec,2022-09-08_13h02.18.038,CGTgamblingSpanTasks,2022.2.1,Win32,19.89851756,,,,,,,,,,,,,,,,,,,,,,,,,,,,,,,,,,,,,,,,,,,,,,,,,,,,,,,,,,,,,,,,,,,,,,,,,,,,,,,,,,"[3,8,5,1,7,6,2,9,4,4,3,5]",8,0,8,0,1,,,,,,,,,,,,,,,,,,,,,,,,,,,,,,,,,,,,,,,,,,,,,,,,
,,605fe9680cac2ea943d411ec,2022-09-08_13h02.18.038,CGTgamblingSpanTasks,2022.2.1,Win32,19.89851756,,,,,,,,,,,,,,,,,,,,,,,,,,,,,,,,,,,,,,,,,,,,,,,,,,,,,,,,,,,,,,,,,,,,,,,,,,,,,,,,,,"[3,8,5,1,7,6,2,9,4,4,3,5]",9,0,9,0,1,,,,,,,,,,,,,,,,,,,,,,,,,,,,,,,,,,,,,,,,,,,,,,,,
,,605fe9680cac2ea943d411ec,2022-09-08_13h02.18.038,CGTgamblingSpanTasks,2022.2.1,Win32,19.89851756,,,,,,,,,,,,,,,,,,,,,,,,,,,,,,,,,,,,,,,,,,,,,,,,,,,,,,,,,,,,,,,,,,,,,,,,,,,,,,,,,,"[3,8,5,1,7,6,2,9,4,4,3,5]",10,0,10,0,1,,,,,,,,,,,,,,,,,,,,,,,,,,,,,,,,,,,,,,,,,,,,,,,,
,,605fe9680cac2ea943d411ec,2022-09-08_13h02.18.038,CGTgamblingSpanTasks,2022.2.1,Win32,19.89851756,,,,,,,,,,,,,,,,,,,,,,,,,,,,,,,,,,,,,,,,,,,,,,,,,,,,,,,,,,,,,,,,,,,,,,,,,,,,,,,,,,"[3,8,5,1,7,6,2,9,4,4,3,5]",11,0,11,0,1,,,,,,,,,,,,,,,,,,,,,,,,,,,,,,,,,,,,,,,,,,,,,,,,
,,605fe9680cac2ea943d411ec,2022-09-08_13h02.18.038,CGTgamblingSpanTasks,2022.2.1,Win32,19.89851756,,,,,,,,,,,,,,,,,,,,,,,,,,,,,,,,,,,,,,,,,,,,,,,,,,,,,,,,,,,,,,,1,,,,,,,,,,,,,,,,,,,,,,,,,385176294435,0.084745763,-0.393682589,1,0,0,cont_button,0,9,9,9,1,10,,,,,,,,,,,,,,,,,,,,,,,,,,,,,,,,,,,
,,605fe9680cac2ea943d411ec,2022-09-08_13h02.18.038,CGTgamblingSpanTasks,2022.2.1,Win32,19.89851756,,,,,,,,,,,,,,,,,,,,,,,,,,,,,,,,,,,,,,,,,,,,,,,,,,,,,,,,,,,,,,,,,,,,,,,,,,,,,,,,,,"[8,4,6,7,5,3,9,1,2,2,9,8,4]",0,0,0,0,1,,,,,,,,,,,,,,,,,,,,,,,,,,,,,,,,,,,,,,,,,,,,,,,,
,,605fe9680cac2ea943d411ec,2022-09-08_13h02.18.038,CGTgamblingSpanTasks,2022.2.1,Win32,19.89851756,,,,,,,,,,,,,,,,,,,,,,,,,,,,,,,,,,,,,,,,,,,,,,,,,,,,,,,,,,,,,,,,,,,,,,,,,,,,,,,,,,"[8,4,6,7,5,3,9,1,2,2,9,8,4]",1,0,1,0,1,,,,,,,,,,,,,,,,,,,,,,,,,,,,,,,,,,,,,,,,,,,,,,,,
,,605fe9680cac2ea943d411ec,2022-09-08_13h02.18.038,CGTgamblingSpanTasks,2022.2.1,Win32,19.89851756,,,,,,,,,,,,,,,,,,,,,,,,,,,,,,,,,,,,,,,,,,,,,,,,,,,,,,,,,,,,,,,,,,,,,,,,,,,,,,,,,,"[8,4,6,7,5,3,9,1,2,2,9,8,4]",2,0,2,0,1,,,,,,,,,,,,,,,,,,,,,,,,,,,,,,,,,,,,,,,,,,,,,,,,
,,605fe9680cac2ea943d411ec,2022-09-08_13h02.18.038,CGTgamblingSpanTasks,2022.2.1,Win32,19.89851756,,,,,,,,,,,,,,,,,,,,,,,,,,,,,,,,,,,,,,,,,,,,,,,,,,,,,,,,,,,,,,,,,,,,,,,,,,,,,,,,,,"[8,4,6,7,5,3,9,1,2,2,9,8,4]",3,0,3,0,1,,,,,,,,,,,,,,,,,,,,,,,,,,,,,,,,,,,,,,,,,,,,,,,,
,,605fe9680cac2ea943d411ec,2022-09-08_13h02.18.038,CGTgamblingSpanTasks,2022.2.1,Win32,19.89851756,,,,,,,,,,,,,,,,,,,,,,,,,,,,,,,,,,,,,,,,,,,,,,,,,,,,,,,,,,,,,,,,,,,,,,,,,,,,,,,,,,"[8,4,6,7,5,3,9,1,2,2,9,8,4]",4,0,4,0,1,,,,,,,,,,,,,,,,,,,,,,,,,,,,,,,,,,,,,,,,,,,,,,,,
,,605fe9680cac2ea943d411ec,2022-09-08_13h02.18.038,CGTgamblingSpanTasks,2022.2.1,Win32,19.89851756,,,,,,,,,,,,,,,,,,,,,,,,,,,,,,,,,,,,,,,,,,,,,,,,,,,,,,,,,,,,,,,,,,,,,,,,,,,,,,,,,,"[8,4,6,7,5,3,9,1,2,2,9,8,4]",5,0,5,0,1,,,,,,,,,,,,,,,,,,,,,,,,,,,,,,,,,,,,,,,,,,,,,,,,
,,605fe9680cac2ea943d411ec,2022-09-08_13h02.18.038,CGTgamblingSpanTasks,2022.2.1,Win32,19.89851756,,,,,,,,,,,,,,,,,,,,,,,,,,,,,,,,,,,,,,,,,,,,,,,,,,,,,,,,,,,,,,,,,,,,,,,,,,,,,,,,,,"[8,4,6,7,5,3,9,1,2,2,9,8,4]",6,0,6,0,1,,,,,,,,,,,,,,,,,,,,,,,,,,,,,,,,,,,,,,,,,,,,,,,,
,,605fe9680cac2ea943d411ec,2022-09-08_13h02.18.038,CGTgamblingSpanTasks,2022.2.1,Win32,19.89851756,,,,,,,,,,,,,,,,,,,,,,,,,,,,,,,,,,,,,,,,,,,,,,,,,,,,,,,,,,,,,,,,,,,,,,,,,,,,,,,,,,"[8,4,6,7,5,3,9,1,2,2,9,8,4]",7,0,7,0,1,,,,,,,,,,,,,,,,,,,,,,,,,,,,,,,,,,,,,,,,,,,,,,,,
,,605fe9680cac2ea943d411ec,2022-09-08_13h02.18.038,CGTgamblingSpanTasks,2022.2.1,Win32,19.89851756,,,,,,,,,,,,,,,,,,,,,,,,,,,,,,,,,,,,,,,,,,,,,,,,,,,,,,,,,,,,,,,,,,,,,,,,,,,,,,,,,,"[8,4,6,7,5,3,9,1,2,2,9,8,4]",8,0,8,0,1,,,,,,,,,,,,,,,,,,,,,,,,,,,,,,,,,,,,,,,,,,,,,,,,
,,605fe9680cac2ea943d411ec,2022-09-08_13h02.18.038,CGTgamblingSpanTasks,2022.2.1,Win32,19.89851756,,,,,,,,,,,,,,,,,,,,,,,,,,,,,,,,,,,,,,,,,,,,,,,,,,,,,,,,,,,,,,,,,,,,,,,,,,,,,,,,,,"[8,4,6,7,5,3,9,1,2,2,9,8,4]",9,0,9,0,1,,,,,,,,,,,,,,,,,,,,,,,,,,,,,,,,,,,,,,,,,,,,,,,,
,,605fe9680cac2ea943d411ec,2022-09-08_13h02.18.038,CGTgamblingSpanTasks,2022.2.1,Win32,19.89851756,,,,,,,,,,,,,,,,,,,,,,,,,,,,,,,,,,,,,,,,,,,,,,,,,,,,,,,,,,,,,,,,,,,,,,,,,,,,,,,,,,"[8,4,6,7,5,3,9,1,2,2,9,8,4]",10,0,10,0,1,,,,,,,,,,,,,,,,,,,,,,,,,,,,,,,,,,,,,,,,,,,,,,,,
,,605fe9680cac2ea943d411ec,2022-09-08_13h02.18.038,CGTgamblingSpanTasks,2022.2.1,Win32,19.89851756,,,,,,,,,,,,,,,,,,,,,,,,,,,,,,,,,,,,,,,,,,,,,,,,,,,,,,,,,,,,,,,,,,,,,,,,,,,,,,,,,,"[8,4,6,7,5,3,9,1,2,2,9,8,4]",11,0,11,0,1,,,,,,,,,,,,,,,,,,,,,,,,,,,,,,,,,,,,,,,,,,,,,,,,
,,605fe9680cac2ea943d411ec,2022-09-08_13h02.18.038,CGTgamblingSpanTasks,2022.2.1,Win32,19.89851756,,,,,,,,,,,,,,,,,,,,,,,,,,,,,,,,,,,,,,,,,,,,,,,,,,,,,,,,,,,,,,,,,,,,,,,,,,,,,,,,,,"[8,4,6,7,5,3,9,1,2,2,9,8,4]",12,0,12,0,1,,,,,,,,,,,,,,,,,,,,,,,,,,,,,,,,,,,,,,,,,,,,,,,,
,,605fe9680cac2ea943d411ec,2022-09-08_13h02.18.038,CGTgamblingSpanTasks,2022.2.1,Win32,19.89851756,,,,,,,,,,,,,,,,,,,,,,,,,,,,,,,,,,,,,,,,,,,,,,,,,,,,,,,,,,,,,,,1,,,,,,,,,,,,,,,,,,,,,,,,,8467539122984,0.083204931,-0.393682589,1,0,0,cont_button,0,10,10,10,1,11,,,,,,,,,,,,,,,,,,,,,,,,,,,,,,,,,,,
,,605fe9680cac2ea943d411ec,2022-09-08_13h02.18.038,CGTgamblingSpanTasks,2022.2.1,Win32,19.89851756,,,,,,,,,,,,,,,,,,,,,,,,,,,,,,,,,,,,,,,,,,,,,,,,,,,,,,,,,,,,,,,,,,,,,,,,,,,,,,,,,,"[2,6,1,7,4,5,3,9,8,8,4,6,7,5]",0,0,0,0,1,,,,,,,,,,,,,,,,,,,,,,,,,,,,,,,,,,,,,,,,,,,,,,,,
,,605fe9680cac2ea943d411ec,2022-09-08_13h02.18.038,CGTgamblingSpanTasks,2022.2.1,Win32,19.89851756,,,,,,,,,,,,,,,,,,,,,,,,,,,,,,,,,,,,,,,,,,,,,,,,,,,,,,,,,,,,,,,,,,,,,,,,,,,,,,,,,,"[2,6,1,7,4,5,3,9,8,8,4,6,7,5]",1,0,1,0,1,,,,,,,,,,,,,,,,,,,,,,,,,,,,,,,,,,,,,,,,,,,,,,,,
,,605fe9680cac2ea943d411ec,2022-09-08_13h02.18.038,CGTgamblingSpanTasks,2022.2.1,Win32,19.89851756,,,,,,,,,,,,,,,,,,,,,,,,,,,,,,,,,,,,,,,,,,,,,,,,,,,,,,,,,,,,,,,,,,,,,,,,,,,,,,,,,,"[2,6,1,7,4,5,3,9,8,8,4,6,7,5]",2,0,2,0,1,,,,,,,,,,,,,,,,,,,,,,,,,,,,,,,,,,,,,,,,,,,,,,,,
,,605fe9680cac2ea943d411ec,2022-09-08_13h02.18.038,CGTgamblingSpanTasks,2022.2.1,Win32,19.89851756,,,,,,,,,,,,,,,,,,,,,,,,,,,,,,,,,,,,,,,,,,,,,,,,,,,,,,,,,,,,,,,,,,,,,,,,,,,,,,,,,,"[2,6,1,7,4,5,3,9,8,8,4,6,7,5]",3,0,3,0,1,,,,,,,,,,,,,,,,,,,,,,,,,,,,,,,,,,,,,,,,,,,,,,,,
,,605fe9680cac2ea943d411ec,2022-09-08_13h02.18.038,CGTgamblingSpanTasks,2022.2.1,Win32,19.89851756,,,,,,,,,,,,,,,,,,,,,,,,,,,,,,,,,,,,,,,,,,,,,,,,,,,,,,,,,,,,,,,,,,,,,,,,,,,,,,,,,,"[2,6,1,7,4,5,3,9,8,8,4,6,7,5]",4,0,4,0,1,,,,,,,,,,,,,,,,,,,,,,,,,,,,,,,,,,,,,,,,,,,,,,,,
,,605fe9680cac2ea943d411ec,2022-09-08_13h02.18.038,CGTgamblingSpanTasks,2022.2.1,Win32,19.89851756,,,,,,,,,,,,,,,,,,,,,,,,,,,,,,,,,,,,,,,,,,,,,,,,,,,,,,,,,,,,,,,,,,,,,,,,,,,,,,,,,,"[2,6,1,7,4,5,3,9,8,8,4,6,7,5]",5,0,5,0,1,,,,,,,,,,,,,,,,,,,,,,,,,,,,,,,,,,,,,,,,,,,,,,,,
,,605fe9680cac2ea943d411ec,2022-09-08_13h02.18.038,CGTgamblingSpanTasks,2022.2.1,Win32,19.89851756,,,,,,,,,,,,,,,,,,,,,,,,,,,,,,,,,,,,,,,,,,,,,,,,,,,,,,,,,,,,,,,,,,,,,,,,,,,,,,,,,,"[2,6,1,7,4,5,3,9,8,8,4,6,7,5]",6,0,6,0,1,,,,,,,,,,,,,,,,,,,,,,,,,,,,,,,,,,,,,,,,,,,,,,,,
,,605fe9680cac2ea943d411ec,2022-09-08_13h02.18.038,CGTgamblingSpanTasks,2022.2.1,Win32,19.89851756,,,,,,,,,,,,,,,,,,,,,,,,,,,,,,,,,,,,,,,,,,,,,,,,,,,,,,,,,,,,,,,,,,,,,,,,,,,,,,,,,,"[2,6,1,7,4,5,3,9,8,8,4,6,7,5]",7,0,7,0,1,,,,,,,,,,,,,,,,,,,,,,,,,,,,,,,,,,,,,,,,,,,,,,,,
,,605fe9680cac2ea943d411ec,2022-09-08_13h02.18.038,CGTgamblingSpanTasks,2022.2.1,Win32,19.89851756,,,,,,,,,,,,,,,,,,,,,,,,,,,,,,,,,,,,,,,,,,,,,,,,,,,,,,,,,,,,,,,,,,,,,,,,,,,,,,,,,,"[2,6,1,7,4,5,3,9,8,8,4,6,7,5]",8,0,8,0,1,,,,,,,,,,,,,,,,,,,,,,,,,,,,,,,,,,,,,,,,,,,,,,,,
,,605fe9680cac2ea943d411ec,2022-09-08_13h02.18.038,CGTgamblingSpanTasks,2022.2.1,Win32,19.89851756,,,,,,,,,,,,,,,,,,,,,,,,,,,,,,,,,,,,,,,,,,,,,,,,,,,,,,,,,,,,,,,,,,,,,,,,,,,,,,,,,,"[2,6,1,7,4,5,3,9,8,8,4,6,7,5]",9,0,9,0,1,,,,,,,,,,,,,,,,,,,,,,,,,,,,,,,,,,,,,,,,,,,,,,,,
,,605fe9680cac2ea943d411ec,2022-09-08_13h02.18.038,CGTgamblingSpanTasks,2022.2.1,Win32,19.89851756,,,,,,,,,,,,,,,,,,,,,,,,,,,,,,,,,,,,,,,,,,,,,,,,,,,,,,,,,,,,,,,,,,,,,,,,,,,,,,,,,,"[2,6,1,7,4,5,3,9,8,8,4,6,7,5]",10,0,10,0,1,,,,,,,,,,,,,,,,,,,,,,,,,,,,,,,,,,,,,,,,,,,,,,,,
,,605fe9680cac2ea943d411ec,2022-09-08_13h02.18.038,CGTgamblingSpanTasks,2022.2.1,Win32,19.89851756,,,,,,,,,,,,,,,,,,,,,,,,,,,,,,,,,,,,,,,,,,,,,,,,,,,,,,,,,,,,,,,,,,,,,,,,,,,,,,,,,,"[2,6,1,7,4,5,3,9,8,8,4,6,7,5]",11,0,11,0,1,,,,,,,,,,,,,,,,,,,,,,,,,,,,,,,,,,,,,,,,,,,,,,,,
,,605fe9680cac2ea943d411ec,2022-09-08_13h02.18.038,CGTgamblingSpanTasks,2022.2.1,Win32,19.89851756,,,,,,,,,,,,,,,,,,,,,,,,,,,,,,,,,,,,,,,,,,,,,,,,,,,,,,,,,,,,,,,,,,,,,,,,,,,,,,,,,,"[2,6,1,7,4,5,3,9,8,8,4,6,7,5]",12,0,12,0,1,,,,,,,,,,,,,,,,,,,,,,,,,,,,,,,,,,,,,,,,,,,,,,,,
,,605fe9680cac2ea943d411ec,2022-09-08_13h02.18.038,CGTgamblingSpanTasks,2022.2.1,Win32,19.89851756,,,,,,,,,,,,,,,,,,,,,,,,,,,,,,,,,,,,,,,,,,,,,,,,,,,,,,,,,,,,,,,,,,,,,,,,,,,,,,,,,,"[2,6,1,7,4,5,3,9,8,8,4,6,7,5]",13,0,13,0,1,,,,,,,,,,,,,,,,,,,,,,,,,,,,,,,,,,,,,,,,,,,,,,,,
,,605fe9680cac2ea943d411ec,2022-09-08_13h02.18.038,CGTgamblingSpanTasks,2022.2.1,Win32,19.89851756,,,,,,,,,,,,,,,,,,,,,,,,,,,,,,,,,,,,,,,,,,,,,,,,,,,,,,,,,,,,,,,1,,,,,,,,,,,,,,,,,,,,,,,,,26174539884675,0.083204931,-0.393682589,1,0,0,cont_button,0,11,11,11,1,12,,,,,,,,,,,,,,,,,,,,,,,,,,,,,,,,,,,
,,605fe9680cac2ea943d411ec,2022-09-08_13h02.18.038,CGTgamblingSpanTasks,2022.2.1,Win32,19.89851756,,,,,,,,,,,,,,,,,,,,,,,,,,,,,,,,,,,,,,,,,,,,,,,,,,,,,,,,,,,,,,,,,,,,,,,,,,,,,,,,,,"[3,6,8,4,5,1,2,9,7,7,6,4,1,8,5]",0,0,0,0,1,,,,,,,,,,,,,,,,,,,,,,,,,,,,,,,,,,,,,,,,,,,,,,,,
,,605fe9680cac2ea943d411ec,2022-09-08_13h02.18.038,CGTgamblingSpanTasks,2022.2.1,Win32,19.89851756,,,,,,,,,,,,,,,,,,,,,,,,,,,,,,,,,,,,,,,,,,,,,,,,,,,,,,,,,,,,,,,,,,,,,,,,,,,,,,,,,,"[3,6,8,4,5,1,2,9,7,7,6,4,1,8,5]",1,0,1,0,1,,,,,,,,,,,,,,,,,,,,,,,,,,,,,,,,,,,,,,,,,,,,,,,,
,,605fe9680cac2ea943d411ec,2022-09-08_13h02.18.038,CGTgamblingSpanTasks,2022.2.1,Win32,19.89851756,,,,,,,,,,,,,,,,,,,,,,,,,,,,,,,,,,,,,,,,,,,,,,,,,,,,,,,,,,,,,,,,,,,,,,,,,,,,,,,,,,"[3,6,8,4,5,1,2,9,7,7,6,4,1,8,5]",2,0,2,0,1,,,,,,,,,,,,,,,,,,,,,,,,,,,,,,,,,,,,,,,,,,,,,,,,
,,605fe9680cac2ea943d411ec,2022-09-08_13h02.18.038,CGTgamblingSpanTasks,2022.2.1,Win32,19.89851756,,,,,,,,,,,,,,,,,,,,,,,,,,,,,,,,,,,,,,,,,,,,,,,,,,,,,,,,,,,,,,,,,,,,,,,,,,,,,,,,,,"[3,6,8,4,5,1,2,9,7,7,6,4,1,8,5]",3,0,3,0,1,,,,,,,,,,,,,,,,,,,,,,,,,,,,,,,,,,,,,,,,,,,,,,,,
,,605fe9680cac2ea943d411ec,2022-09-08_13h02.18.038,CGTgamblingSpanTasks,2022.2.1,Win32,19.89851756,,,,,,,,,,,,,,,,,,,,,,,,,,,,,,,,,,,,,,,,,,,,,,,,,,,,,,,,,,,,,,,,,,,,,,,,,,,,,,,,,,"[3,6,8,4,5,1,2,9,7,7,6,4,1,8,5]",4,0,4,0,1,,,,,,,,,,,,,,,,,,,,,,,,,,,,,,,,,,,,,,,,,,,,,,,,
,,605fe9680cac2ea943d411ec,2022-09-08_13h02.18.038,CGTgamblingSpanTasks,2022.2.1,Win32,19.89851756,,,,,,,,,,,,,,,,,,,,,,,,,,,,,,,,,,,,,,,,,,,,,,,,,,,,,,,,,,,,,,,,,,,,,,,,,,,,,,,,,,"[3,6,8,4,5,1,2,9,7,7,6,4,1,8,5]",5,0,5,0,1,,,,,,,,,,,,,,,,,,,,,,,,,,,,,,,,,,,,,,,,,,,,,,,,
,,605fe9680cac2ea943d411ec,2022-09-08_13h02.18.038,CGTgamblingSpanTasks,2022.2.1,Win32,19.89851756,,,,,,,,,,,,,,,,,,,,,,,,,,,,,,,,,,,,,,,,,,,,,,,,,,,,,,,,,,,,,,,,,,,,,,,,,,,,,,,,,,"[3,6,8,4,5,1,2,9,7,7,6,4,1,8,5]",6,0,6,0,1,,,,,,,,,,,,,,,,,,,,,,,,,,,,,,,,,,,,,,,,,,,,,,,,
,,605fe9680cac2ea943d411ec,2022-09-08_13h02.18.038,CGTgamblingSpanTasks,2022.2.1,Win32,19.89851756,,,,,,,,,,,,,,,,,,,,,,,,,,,,,,,,,,,,,,,,,,,,,,,,,,,,,,,,,,,,,,,,,,,,,,,,,,,,,,,,,,"[3,6,8,4,5,1,2,9,7,7,6,4,1,8,5]",7,0,7,0,1,,,,,,,,,,,,,,,,,,,,,,,,,,,,,,,,,,,,,,,,,,,,,,,,
,,605fe9680cac2ea943d411ec,2022-09-08_13h02.18.038,CGTgamblingSpanTasks,2022.2.1,Win32,19.89851756,,,,,,,,,,,,,,,,,,,,,,,,,,,,,,,,,,,,,,,,,,,,,,,,,,,,,,,,,,,,,,,,,,,,,,,,,,,,,,,,,,"[3,6,8,4,5,1,2,9,7,7,6,4,1,8,5]",8,0,8,0,1,,,,,,,,,,,,,,,,,,,,,,,,,,,,,,,,,,,,,,,,,,,,,,,,
,,605fe9680cac2ea943d411ec,2022-09-08_13h02.18.038,CGTgamblingSpanTasks,2022.2.1,Win32,19.89851756,,,,,,,,,,,,,,,,,,,,,,,,,,,,,,,,,,,,,,,,,,,,,,,,,,,,,,,,,,,,,,,,,,,,,,,,,,,,,,,,,,"[3,6,8,4,5,1,2,9,7,7,6,4,1,8,5]",9,0,9,0,1,,,,,,,,,,,,,,,,,,,,,,,,,,,,,,,,,,,,,,,,,,,,,,,,
,,605fe9680cac2ea943d411ec,2022-09-08_13h02.18.038,CGTgamblingSpanTasks,2022.2.1,Win32,19.89851756,,,,,,,,,,,,,,,,,,,,,,,,,,,,,,,,,,,,,,,,,,,,,,,,,,,,,,,,,,,,,,,,,,,,,,,,,,,,,,,,,,"[3,6,8,4,5,1,2,9,7,7,6,4,1,8,5]",10,0,10,0,1,,,,,,,,,,,,,,,,,,,,,,,,,,,,,,,,,,,,,,,,,,,,,,,,
,,605fe9680cac2ea943d411ec,2022-09-08_13h02.18.038,CGTgamblingSpanTasks,2022.2.1,Win32,19.89851756,,,,,,,,,,,,,,,,,,,,,,,,,,,,,,,,,,,,,,,,,,,,,,,,,,,,,,,,,,,,,,,,,,,,,,,,,,,,,,,,,,"[3,6,8,4,5,1,2,9,7,7,6,4,1,8,5]",11,0,11,0,1,,,,,,,,,,,,,,,,,,,,,,,,,,,,,,,,,,,,,,,,,,,,,,,,
,,605fe9680cac2ea943d411ec,2022-09-08_13h02.18.038,CGTgamblingSpanTasks,2022.2.1,Win32,19.89851756,,,,,,,,,,,,,,,,,,,,,,,,,,,,,,,,,,,,,,,,,,,,,,,,,,,,,,,,,,,,,,,,,,,,,,,,,,,,,,,,,,"[3,6,8,4,5,1,2,9,7,7,6,4,1,8,5]",12,0,12,0,1,,,,,,,,,,,,,,,,,,,,,,,,,,,,,,,,,,,,,,,,,,,,,,,,
,,605fe9680cac2ea943d411ec,2022-09-08_13h02.18.038,CGTgamblingSpanTasks,2022.2.1,Win32,19.89851756,,,,,,,,,,,,,,,,,,,,,,,,,,,,,,,,,,,,,,,,,,,,,,,,,,,,,,,,,,,,,,,,,,,,,,,,,,,,,,,,,,"[3,6,8,4,5,1,2,9,7,7,6,4,1,8,5]",13,0,13,0,1,,,,,,,,,,,,,,,,,,,,,,,,,,,,,,,,,,,,,,,,,,,,,,,,
,,605fe9680cac2ea943d411ec,2022-09-08_13h02.18.038,CGTgamblingSpanTasks,2022.2.1,Win32,19.89851756,,,,,,,,,,,,,,,,,,,,,,,,,,,,,,,,,,,,,,,,,,,,,,,,,,,,,,,,,,,,,,,,,,,,,,,,,,,,,,,,,,"[3,6,8,4,5,1,2,9,7,7,6,4,1,8,5]",14,0,14,0,1,,,,,,,,,,,,,,,,,,,,,,,,,,,,,,,,,,,,,,,,,,,,,,,,
,,605fe9680cac2ea943d411ec,2022-09-08_13h02.18.038,CGTgamblingSpanTasks,2022.2.1,Win32,19.89851756,,,,,,,,,,,,,,,,,,,,,,,,,,,,,,,,,,,,,,,,,,,,,,,,,,,,,,,,,,,,,,,1,,,,,,,,,,,,,,,,,,,,,,,,,368451297764185,0.083204931,-0.393682589,1,0,0,cont_button,0,12,12,12,1,13,,,,,,,,,,,,,,,,,,,,,,,,,,,,,,,,,,,
,,605fe9680cac2ea943d411ec,2022-09-08_13h02.18.038,CGTgamblingSpanTasks,2022.2.1,Win32,19.89851756,,,,,,,,,,,,,,,,,,,,,,,,,,,,,,,,,,,,,,,,,,,,,,,,,,,,,,,,,,,,,,,,,,,,,,,,,,,,,,,,,,"[3,5,7,2,6,8,9,1,4,4,9,7,6,2,3,1]",0,0,0,0,1,,,,,,,,,,,,,,,,,,,,,,,,,,,,,,,,,,,,,,,,,,,,,,,,
,,605fe9680cac2ea943d411ec,2022-09-08_13h02.18.038,CGTgamblingSpanTasks,2022.2.1,Win32,19.89851756,,,,,,,,,,,,,,,,,,,,,,,,,,,,,,,,,,,,,,,,,,,,,,,,,,,,,,,,,,,,,,,,,,,,,,,,,,,,,,,,,,"[3,5,7,2,6,8,9,1,4,4,9,7,6,2,3,1]",1,0,1,0,1,,,,,,,,,,,,,,,,,,,,,,,,,,,,,,,,,,,,,,,,,,,,,,,,
,,605fe9680cac2ea943d411ec,2022-09-08_13h02.18.038,CGTgamblingSpanTasks,2022.2.1,Win32,19.89851756,,,,,,,,,,,,,,,,,,,,,,,,,,,,,,,,,,,,,,,,,,,,,,,,,,,,,,,,,,,,,,,,,,,,,,,,,,,,,,,,,,"[3,5,7,2,6,8,9,1,4,4,9,7,6,2,3,1]",2,0,2,0,1,,,,,,,,,,,,,,,,,,,,,,,,,,,,,,,,,,,,,,,,,,,,,,,,
,,605fe9680cac2ea943d411ec,2022-09-08_13h02.18.038,CGTgamblingSpanTasks,2022.2.1,Win32,19.89851756,,,,,,,,,,,,,,,,,,,,,,,,,,,,,,,,,,,,,,,,,,,,,,,,,,,,,,,,,,,,,,,,,,,,,,,,,,,,,,,,,,"[3,5,7,2,6,8,9,1,4,4,9,7,6,2,3,1]",3,0,3,0,1,,,,,,,,,,,,,,,,,,,,,,,,,,,,,,,,,,,,,,,,,,,,,,,,
,,605fe9680cac2ea943d411ec,2022-09-08_13h02.18.038,CGTgamblingSpanTasks,2022.2.1,Win32,19.89851756,,,,,,,,,,,,,,,,,,,,,,,,,,,,,,,,,,,,,,,,,,,,,,,,,,,,,,,,,,,,,,,,,,,,,,,,,,,,,,,,,,"[3,5,7,2,6,8,9,1,4,4,9,7,6,2,3,1]",4,0,4,0,1,,,,,,,,,,,,,,,,,,,,,,,,,,,,,,,,,,,,,,,,,,,,,,,,
,,605fe9680cac2ea943d411ec,2022-09-08_13h02.18.038,CGTgamblingSpanTasks,2022.2.1,Win32,19.89851756,,,,,,,,,,,,,,,,,,,,,,,,,,,,,,,,,,,,,,,,,,,,,,,,,,,,,,,,,,,,,,,,,,,,,,,,,,,,,,,,,,"[3,5,7,2,6,8,9,1,4,4,9,7,6,2,3,1]",5,0,5,0,1,,,,,,,,,,,,,,,,,,,,,,,,,,,,,,,,,,,,,,,,,,,,,,,,
,,605fe9680cac2ea943d411ec,2022-09-08_13h02.18.038,CGTgamblingSpanTasks,2022.2.1,Win32,19.89851756,,,,,,,,,,,,,,,,,,,,,,,,,,,,,,,,,,,,,,,,,,,,,,,,,,,,,,,,,,,,,,,,,,,,,,,,,,,,,,,,,,"[3,5,7,2,6,8,9,1,4,4,9,7,6,2,3,1]",6,0,6,0,1,,,,,,,,,,,,,,,,,,,,,,,,,,,,,,,,,,,,,,,,,,,,,,,,
,,605fe9680cac2ea943d411ec,2022-09-08_13h02.18.038,CGTgamblingSpanTasks,2022.2.1,Win32,19.89851756,,,,,,,,,,,,,,,,,,,,,,,,,,,,,,,,,,,,,,,,,,,,,,,,,,,,,,,,,,,,,,,,,,,,,,,,,,,,,,,,,,"[3,5,7,2,6,8,9,1,4,4,9,7,6,2,3,1]",7,0,7,0,1,,,,,,,,,,,,,,,,,,,,,,,,,,,,,,,,,,,,,,,,,,,,,,,,
,,605fe9680cac2ea943d411ec,2022-09-08_13h02.18.038,CGTgamblingSpanTasks,2022.2.1,Win32,19.89851756,,,,,,,,,,,,,,,,,,,,,,,,,,,,,,,,,,,,,,,,,,,,,,,,,,,,,,,,,,,,,,,,,,,,,,,,,,,,,,,,,,"[3,5,7,2,6,8,9,1,4,4,9,7,6,2,3,1]",8,0,8,0,1,,,,,,,,,,,,,,,,,,,,,,,,,,,,,,,,,,,,,,,,,,,,,,,,
,,605fe9680cac2ea943d411ec,2022-09-08_13h02.18.038,CGTgamblingSpanTasks,2022.2.1,Win32,19.89851756,,,,,,,,,,,,,,,,,,,,,,,,,,,,,,,,,,,,,,,,,,,,,,,,,,,,,,,,,,,,,,,,,,,,,,,,,,,,,,,,,,"[3,5,7,2,6,8,9,1,4,4,9,7,6,2,3,1]",9,0,9,0,1,,,,,,,,,,,,,,,,,,,,,,,,,,,,,,,,,,,,,,,,,,,,,,,,
,,605fe9680cac2ea943d411ec,2022-09-08_13h02.18.038,CGTgamblingSpanTasks,2022.2.1,Win32,19.89851756,,,,,,,,,,,,,,,,,,,,,,,,,,,,,,,,,,,,,,,,,,,,,,,,,,,,,,,,,,,,,,,,,,,,,,,,,,,,,,,,,,"[3,5,7,2,6,8,9,1,4,4,9,7,6,2,3,1]",10,0,10,0,1,,,,,,,,,,,,,,,,,,,,,,,,,,,,,,,,,,,,,,,,,,,,,,,,
,,605fe9680cac2ea943d411ec,2022-09-08_13h02.18.038,CGTgamblingSpanTasks,2022.2.1,Win32,19.89851756,,,,,,,,,,,,,,,,,,,,,,,,,,,,,,,,,,,,,,,,,,,,,,,,,,,,,,,,,,,,,,,,,,,,,,,,,,,,,,,,,,"[3,5,7,2,6,8,9,1,4,4,9,7,6,2,3,1]",11,0,11,0,1,,,,,,,,,,,,,,,,,,,,,,,,,,,,,,,,,,,,,,,,,,,,,,,,
,,605fe9680cac2ea943d411ec,2022-09-08_13h02.18.038,CGTgamblingSpanTasks,2022.2.1,Win32,19.89851756,,,,,,,,,,,,,,,,,,,,,,,,,,,,,,,,,,,,,,,,,,,,,,,,,,,,,,,,,,,,,,,,,,,,,,,,,,,,,,,,,,"[3,5,7,2,6,8,9,1,4,4,9,7,6,2,3,1]",12,0,12,0,1,,,,,,,,,,,,,,,,,,,,,,,,,,,,,,,,,,,,,,,,,,,,,,,,
,,605fe9680cac2ea943d411ec,2022-09-08_13h02.18.038,CGTgamblingSpanTasks,2022.2.1,Win32,19.89851756,,,,,,,,,,,,,,,,,,,,,,,,,,,,,,,,,,,,,,,,,,,,,,,,,,,,,,,,,,,,,,,,,,,,,,,,,,,,,,,,,,"[3,5,7,2,6,8,9,1,4,4,9,7,6,2,3,1]",13,0,13,0,1,,,,,,,,,,,,,,,,,,,,,,,,,,,,,,,,,,,,,,,,,,,,,,,,
,,605fe9680cac2ea943d411ec,2022-09-08_13h02.18.038,CGTgamblingSpanTasks,2022.2.1,Win32,19.89851756,,,,,,,,,,,,,,,,,,,,,,,,,,,,,,,,,,,,,,,,,,,,,,,,,,,,,,,,,,,,,,,,,,,,,,,,,,,,,,,,,,"[3,5,7,2,6,8,9,1,4,4,9,7,6,2,3,1]",14,0,14,0,1,,,,,,,,,,,,,,,,,,,,,,,,,,,,,,,,,,,,,,,,,,,,,,,,
,,605fe9680cac2ea943d411ec,2022-09-08_13h02.18.038,CGTgamblingSpanTasks,2022.2.1,Win32,19.89851756,,,,,,,,,,,,,,,,,,,,,,,,,,,,,,,,,,,,,,,,,,,,,,,,,,,,,,,,,,,,,,,,,,,,,,,,,,,,,,,,,,"[3,5,7,2,6,8,9,1,4,4,9,7,6,2,3,1]",15,0,15,0,1,,,,,,,,,,,,,,,,,,,,,,,,,,,,,,,,,,,,,,,,,,,,,,,,
,,605fe9680cac2ea943d411ec,2022-09-08_13h02.18.038,CGTgamblingSpanTasks,2022.2.1,Win32,19.89851756,,,,,,,,,,,,,,,,,,,,,,,,,,,,,,,,,,,,,,,,,,,,,,,,,,,,,,,,,,,,,,,1,,,,,,,,,,,,,,,,,,,,,,,,,3572689144976231,0.084745763,-0.395223421,1,0,0,cont_button,0,13,13,13,1,14,,,,,,,,,,,,,,,,,,,,,,,,,,,,,,,,,,,
,,605fe9680cac2ea943d411ec,2022-09-08_13h02.18.038,CGTgamblingSpanTasks,2022.2.1,Win32,19.89851756,,,,,,,,,,,,,,,,,,,,,,,,,,,,,,,,,,,,,,,,,,,,,,,,,,,,,,,,,,,,,,,,,,,,,,,,,,,,,,,,,,,,,,,,,,,,,,,,,,,,,return,508.1542,,,,,,,,,,,,,,,,,,,,,,,,,,,,,,,,,
,,605fe9680cac2ea943d411ec,2022-09-08_13h02.18.038,CGTgamblingSpanTasks,2022.2.1,Win32,19.89851756,,,,,,,,,,,,,,,,,,,,,,,,,,,,,,,,,,,,,,,,,,,,,,,,,,,,,,,,,,,,,,,,,,,,,,,,,,,,,,,,,,,,,,,,,,,,,,,,,,,,,,,return,1.7987,,,,,,,,,,,,,,,,,,,,,,,,,,,,,,,
,,605fe9680cac2ea943d411ec,2022-09-08_13h02.18.038,CGTgamblingSpanTasks,2022.2.1,Win32,19.89851756,,,,,,,,,,,,,,,,,,,,,,,,,,,,,,,,,,,,,,,,,,,,,,,,,,,,,,,,,,,,,,,1,,,,,,,,,,,,3,342,24,2,42,,,,,,,,,,,,,,,,,,,,,,,,,,42,0.047730829,-0.410798122,1,0,0,cont_buttonPractice_2,0,0,0,0,1,,,,,,,,,,,,,,,,,,,
,,605fe9680cac2ea943d411ec,2022-09-08_13h02.18.038,CGTgamblingSpanTasks,2022.2.1,Win32,19.89851756,,,,,,,,,,,,,,,,,,,,,,,,,,,,,,,,,,,,,,,,,,,,,,,,,,,,,,,,,,,,,,,1,,,,,,,,,,,,3,937,73,2,37,,,,,,,,,,,,,,,,,,,,,,,,,,37,0.047730829,-0.410798122,1,0,0,cont_buttonPractice_2,0,1,1,1,1,,,,,,,,,,,,,,,,,,,
,,605fe9680cac2ea943d411ec,2022-09-08_13h02.18.038,CGTgamblingSpanTasks,2022.2.1,Win32,19.89851756,,,,,,,,,,,,,,,,,,,,,,,,,,,,,,,,,,,,,,,,,,,,,,,,,,,,,,,,,,,,,,,,,,,,,,,,,,,,,,,,,,,,,,,,,,,,,,,,,,,,,,,,,,,,,,,,,,,,,return,283.5473,,,,,,,,,,,,,,,,,
,,605fe9680cac2ea943d411ec,2022-09-08_13h02.18.038,CGTgamblingSpanTasks,2022.2.1,Win32,19.89851756,,,,,,,,,,,,,,,,,,,,,,,,,,,,,,,,,,,,,,,,,,,,,,,,,,,,,,,,,,,,,,,,,,,,,,,,,,,,,,,,,,"[9,2]",,,,,,,,,,,,,,,,,,,,,,,,,,,,,,,,,,,,,0,0,0,0,1,,,,,,,,,,,,
,,605fe9680cac2ea943d411ec,2022-09-08_13h02.18.038,CGTgamblingSpanTasks,2022.2.1,Win32,19.89851756,,,,,,,,,,,,,,,,,,,,,,,,,,,,,,,,,,,,,,,,,,,,,,,,,,,,,,,,,,,,,,,,,,,,,,,,,,,,,,,,,,"[9,2]",,,,,,,,,,,,,,,,,,,,,,,,,,,,,,,,,,,,,1,0,1,0,1,,,,,,,,,,,,
,,605fe9680cac2ea943d411ec,2022-09-08_13h02.18.038,CGTgamblingSpanTasks,2022.2.1,Win32,19.89851756,,,,,,,,,,,,,,,,,,,,,,,,,,,,,,,,,,,,,,,,,,,,,,,,,,,,,,,,,,,,,,,1,,,,,,,,,,,,,,,,,,,,,,,,,,,,,,,,,,,,,1,,,,,,,,,,,,,,,,,,,,,,,,29,0.12788906,-0.375192604,1,0,0,cont_buttonBS,0,0,0,0,1
