initITIstatic,initITIdynamic,participant,date,expName,psychopyVersion,OS,frameRate,inst1.keys,inst1.rt,startPracResp.keys,startPracResp.rt,choice1.keys,choice1.rt,outcome,extraITI,trials.thisRepN,trials.thisTrialN,trials.thisN,trials.thisIndex,trials.ran,riskyGain,riskyLoss,alternative,isi,iti,loc,postPractResp.keys,postPractResp.rt,realloc,realChoice.keys,realChoice.rt,outcomes,choices,actualITI,init ITI,staticRDM.thisRepN,staticRDM.thisTrialN,staticRDM.thisN,staticRDM.thisIndex,staticRDM.ran,riskyoption1,riskyoption2,safeoption,ischecktrial,dynamicChoiceSetName,dynamicChoiceSetPath,bestRho,bestMu,trials_2.thisRepN,trials_2.thisTrialN,trials_2.thisN,trials_2.thisIndex,trials_2.ran,key_resp.keys,key_resp.rt,dynamicRDM.thisRepN,dynamicRDM.thisTrialN,dynamicRDM.thisN,dynamicRDM.thisIndex,dynamicRDM.ran,choiceP,easy0difficult1,stopBreak.keys,stopBreak.rt,movealong.keys,movealong.rt,startPractice.keys,startPractice.rt,textboxPractice.text,correct,mousePractice.x,mousePractice.y,mousePractice.leftButton,mousePractice.midButton,mousePractice.rightButton,mousePractice.clicked_name,trialFSPractice.thisRepN,trialFSPractice.thisTrialN,trialFSPractice.thisN,trialFSPractice.thisIndex,trialFSPractice.ran,digitSpanForward,digits,digitsReverse,digitSpanReverse,digitsReverseCorrAnswer,startFSreal.keys,startFSreal.rt,digitsForTrial,digitLoop.thisRepN,digitLoop.thisTrialN,digitLoop.thisN,digitLoop.thisIndex,digitLoop.ran,textbox.text,mouse_3.x,mouse_3.y,mouse_3.leftButton,mouse_3.midButton,mouse_3.rightButton,mouse_3.clicked_name,trialsFS.thisRepN,trialsFS.thisTrialN,trialsFS.thisN,trialsFS.thisIndex,trialsFS.ran,trialNumber,moveToBS.keys,moveToBS.rt,startBSprac.keys,startBSprac.rt,textboxPractice_2.text,mousePractice_2.x,mousePractice_2.y,mousePractice_2.leftButton,mousePractice_2.midButton,mousePractice_2.rightButton,mousePractice_2.clicked_name,trialsPracticeBS.thisRepN,trialsPracticeBS.thisTrialN,trialsPracticeBS.thisN,trialsPracticeBS.thisIndex,trialsPracticeBS.ran,startBSreal.keys,startBSreal.rt,digitLoopBS.thisRepN,digitLoopBS.thisTrialN,digitLoopBS.thisN,digitLoopBS.thisIndex,digitLoopBS.ran,textboxBS.text,mouseBS.x,mouseBS.y,mouseBS.leftButton,mouseBS.midButton,mouseBS.rightButton,mouseBS.clicked_name,trialsBS.thisRepN,trialsBS.thisTrialN,trialsBS.thisN,trialsBS.thisIndex,trialsBS.ran
"[1,1,1.5,1,1.5,1,1.5,1,1.5,1.5,1.5,1.5,1,1.5,1,1.5,1,1,1,1.5,1,1.5,1.5,1.5,1.5,1,1.5,1.5,1,1.5,1,1.5,1,1,1,1.5,1.5,1.5,1.5,1,1,1.5,1.5,1.5,1,1,1,1,1,1]","[1.5,1,1,1.5,1.5,1,1.5,1.5,1,1,1.5,1.5,1.5,1.5,1.5,1.5,1.5,1.5,1,1,1,1,1,1,1.5,1,1,1,1,1,1,1,1.5,1,1.5,1.5,1.5,1.5,1,1.5,1,1,1,1.5,1.5,1,1,1.5,1.5,1,1.5,1.5,1.5,1.5,1.5,1,1.5,1.5,1.5,1,1.5,1,1.5,1,1.5,1,1.5,1.5,1.5,1.5,1,1.5,1.5,1.5,1.5,1,1.5,1,1,1.5,1,1,1,1.5,1,1.5,1,1,1.5,1,1,1.5,1,1,1,1,1.5,1.5,1,1,1,1.5,1,1,1,1,1.5,1.5,1.5,1,1.5,1,1,1.5,1,1,1,1.5,1.5,1.5]",620bde55a922fc3f247f6e52,2022-09-08_13h55.18.924,CGTgamblingSpanTasks,2022.2.1,Win32,29.99220203,,,,,,,,,,,,,,,,,,,,,,,,,,,,,,,,,,,,,,,,,,,,,,,,,,,,,,,,,,,,,,,,,,,,,,,,,,,,,,,,,,,,,,,,,,,,,,,,,,,,,,,,,,,,,,,,,,,,,,,,,,,,,,,,,,,,,,,
,,620bde55a922fc3f247f6e52,2022-09-08_13h55.18.924,CGTgamblingSpanTasks,2022.2.1,Win32,29.99220203,return,5.0075,,,,,,,,,,,,,,,,,,,,,,,,,,,,,,,,,,,,,,,,,,,,,,,,,,,,,,,,,,,,,,,,,,,,,,,,,,,,,,,,,,,,,,,,,,,,,,,,,,,,,,,,,,,,,,,,,,,,,,,,,,,,,,,,,,,,,
,,620bde55a922fc3f247f6e52,2022-09-08_13h55.18.924,CGTgamblingSpanTasks,2022.2.1,Win32,29.99220203,,,v,14.3057,,,,,,,,,,,,,,,,,,,,,,,,,,,,,,,,,,,,,,,,,,,,,,,,,,,,,,,,,,,,,,,,,,,,,,,,,,,,,,,,,,,,,,,,,,,,,,,,,,,,,,,,,,,,,,,,,,,,,,,,,,,,,,,,,,,
,,620bde55a922fc3f247f6e52,2022-09-08_13h55.18.924,CGTgamblingSpanTasks,2022.2.1,Win32,29.99220203,,,,,n,2.7847,9.45,1.2153,0,0,0,0,1,18.23,0,9.45,2,1,1,,,,,,,,,,,,,,,,,,,,,,,,,,,,,,,,,,,,,,,,,,,,,,,,,,,,,,,,,,,,,,,,,,,,,,,,,,,,,,,,,,,,,,,,,,,,,,,,,,,,,,,,,,,,,,,,,,,,
,,620bde55a922fc3f247f6e52,2022-09-08_13h55.18.924,CGTgamblingSpanTasks,2022.2.1,Win32,29.99220203,,,,,n,2.738,35.16,1.262,0,1,1,1,1,53.27,0,35.16,1,1.5,1,,,,,,,,,,,,,,,,,,,,,,,,,,,,,,,,,,,,,,,,,,,,,,,,,,,,,,,,,,,,,,,,,,,,,,,,,,,,,,,,,,,,,,,,,,,,,,,,,,,,,,,,,,,,,,,,,,,,
,,620bde55a922fc3f247f6e52,2022-09-08_13h55.18.924,CGTgamblingSpanTasks,2022.2.1,Win32,29.99220203,,,,,n,2.422,0,1.578,0,2,2,2,1,8.27,0,1.15,1,1.5,2,,,,,,,,,,,,,,,,,,,,,,,,,,,,,,,,,,,,,,,,,,,,,,,,,,,,,,,,,,,,,,,,,,,,,,,,,,,,,,,,,,,,,,,,,,,,,,,,,,,,,,,,,,,,,,,,,,,,
,,620bde55a922fc3f247f6e52,2022-09-08_13h55.18.924,CGTgamblingSpanTasks,2022.2.1,Win32,29.99220203,,,,,n,1.7142,40.41,2.2858,0,3,3,3,1,45.88,0,40.41,3,1,1,,,,,,,,,,,,,,,,,,,,,,,,,,,,,,,,,,,,,,,,,,,,,,,,,,,,,,,,,,,,,,,,,,,,,,,,,,,,,,,,,,,,,,,,,,,,,,,,,,,,,,,,,,,,,,,,,,,,
,,620bde55a922fc3f247f6e52,2022-09-08_13h55.18.924,CGTgamblingSpanTasks,2022.2.1,Win32,29.99220203,,,,,v,2.7226,11.96,1.2774,0,4,4,4,1,21.56,0,11.96,1,1.5,2,,,,,,,,,,,,,,,,,,,,,,,,,,,,,,,,,,,,,,,,,,,,,,,,,,,,,,,,,,,,,,,,,,,,,,,,,,,,,,,,,,,,,,,,,,,,,,,,,,,,,,,,,,,,,,,,,,,,
,,620bde55a922fc3f247f6e52,2022-09-08_13h55.18.924,CGTgamblingSpanTasks,2022.2.1,Win32,29.99220203,,,,,,,,,,,,,,,,,,,,v,3.9034,,,,,,,,,,,,,,,,,,,,,,,,,,,,,,,,,,,,,,,,,,,,,,,,,,,,,,,,,,,,,,,,,,,,,,,,,,,,,,,,,,,,,,,,,,,,,,,,,,,,,,,,,,,,,,,,,,
,,620bde55a922fc3f247f6e52,2022-09-08_13h55.18.924,CGTgamblingSpanTasks,2022.2.1,Win32,29.99220203,,,,,,,,1.9536,,,,,,,,,,,,,,2,n,2.0464,0,1,2.9536,1,0,0,0,6,1,14.72,0,4.64,0,,,,,,,,,,,,,,,,,,,,,,,,,,,,,,,,,,,,,,,,,,,,,,,,,,,,,,,,,,,,,,,,,,,,,,,,,,,,,,,,,,,,,,,,,,,,,,,,,,
,,620bde55a922fc3f247f6e52,2022-09-08_13h55.18.924,CGTgamblingSpanTasks,2022.2.1,Win32,29.99220203,,,,,,,,1.4835,,,,,,,,,,,,,,1,n,2.5165,9.87,0,2.4835,1,0,1,1,29,1,16.26,0,9.87,0,,,,,,,,,,,,,,,,,,,,,,,,,,,,,,,,,,,,,,,,,,,,,,,,,,,,,,,,,,,,,,,,,,,,,,,,,,,,,,,,,,,,,,,,,,,,,,,,,,
,,620bde55a922fc3f247f6e52,2022-09-08_13h55.18.924,CGTgamblingSpanTasks,2022.2.1,Win32,29.99220203,,,,,,,,2.2345,,,,,,,,,,,,,,2,v,1.7655,6.53,0,3.7345,1.5,0,2,2,28,1,10.95,0,6.53,0,,,,,,,,,,,,,,,,,,,,,,,,,,,,,,,,,,,,,,,,,,,,,,,,,,,,,,,,,,,,,,,,,,,,,,,,,,,,,,,,,,,,,,,,,,,,,,,,,,
,,620bde55a922fc3f247f6e52,2022-09-08_13h55.18.924,CGTgamblingSpanTasks,2022.2.1,Win32,29.99220203,,,,,,,,0.6611,,,,,,,,,,,,,,2,v,3.3389,6.51,0,1.6611,1,0,3,3,5,1,22.97,0,6.51,0,,,,,,,,,,,,,,,,,,,,,,,,,,,,,,,,,,,,,,,,,,,,,,,,,,,,,,,,,,,,,,,,,,,,,,,,,,,,,,,,,,,,,,,,,,,,,,,,,,
,,620bde55a922fc3f247f6e52,2022-09-08_13h55.18.924,CGTgamblingSpanTasks,2022.2.1,Win32,29.99220203,,,,,,,,2.6075,,,,,,,,,,,,,,1,n,1.3925,10.15,0,4.1075,1.5,0,4,4,33,1,15.7,0,10.15,0,,,,,,,,,,,,,,,,,,,,,,,,,,,,,,,,,,,,,,,,,,,,,,,,,,,,,,,,,,,,,,,,,,,,,,,,,,,,,,,,,,,,,,,,,,,,,,,,,,
,,620bde55a922fc3f247f6e52,2022-09-08_13h55.18.924,CGTgamblingSpanTasks,2022.2.1,Win32,29.99220203,,,,,,,,1.6549,,,,,,,,,,,,,,2,v,2.3451,9.7,0,2.6549,1,0,5,5,27,1,16.6,0,9.7,0,,,,,,,,,,,,,,,,,,,,,,,,,,,,,,,,,,,,,,,,,,,,,,,,,,,,,,,,,,,,,,,,,,,,,,,,,,,,,,,,,,,,,,,,,,,,,,,,,,
,,620bde55a922fc3f247f6e52,2022-09-08_13h55.18.924,CGTgamblingSpanTasks,2022.2.1,Win32,29.99220203,,,,,,,,0.4091,,,,,,,,,,,,,,2,v,3.5909,6.73,0,1.9091,1.5,0,6,6,32,1,10.55,0,6.73,0,,,,,,,,,,,,,,,,,,,,,,,,,,,,,,,,,,,,,,,,,,,,,,,,,,,,,,,,,,,,,,,,,,,,,,,,,,,,,,,,,,,,,,,,,,,,,,,,,,
,,620bde55a922fc3f247f6e52,2022-09-08_13h55.18.924,CGTgamblingSpanTasks,2022.2.1,Win32,29.99220203,,,,,,,,2.4845,,,,,,,,,,,,,,1,v,1.5155,0,1,3.4845,1,0,7,7,8,1,13.94,0,5.03,0,,,,,,,,,,,,,,,,,,,,,,,,,,,,,,,,,,,,,,,,,,,,,,,,,,,,,,,,,,,,,,,,,,,,,,,,,,,,,,,,,,,,,,,,,,,,,,,,,,
,,620bde55a922fc3f247f6e52,2022-09-08_13h55.18.924,CGTgamblingSpanTasks,2022.2.1,Win32,29.99220203,,,,,,,,2.6385,,,,,,,,,,,,,,2,v,1.3615,3.13,0,4.1385,1.5,0,8,8,47,1,0,0,3.13,1,,,,,,,,,,,,,,,,,,,,,,,,,,,,,,,,,,,,,,,,,,,,,,,,,,,,,,,,,,,,,,,,,,,,,,,,,,,,,,,,,,,,,,,,,,,,,,,,,,
,,620bde55a922fc3f247f6e52,2022-09-08_13h55.18.924,CGTgamblingSpanTasks,2022.2.1,Win32,29.99220203,,,,,,,,2.2827,,,,,,,,,,,,,,1,n,1.7173,8.84,0,3.7827,1.5,0,9,9,17,1,18.33,0,8.84,0,,,,,,,,,,,,,,,,,,,,,,,,,,,,,,,,,,,,,,,,,,,,,,,,,,,,,,,,,,,,,,,,,,,,,,,,,,,,,,,,,,,,,,,,,,,,,,,,,,
,,620bde55a922fc3f247f6e52,2022-09-08_13h55.18.924,CGTgamblingSpanTasks,2022.2.1,Win32,29.99220203,,,,,,,,2.5193,,,,,,,,,,,,,,2,n,1.4807,19.86,1,4.0193,1.5,0,10,10,42,1,19.86,0,0,1,,,,,,,,,,,,,,,,,,,,,,,,,,,,,,,,,,,,,,,,,,,,,,,,,,,,,,,,,,,,,,,,,,,,,,,,,,,,,,,,,,,,,,,,,,,,,,,,,,
,,620bde55a922fc3f247f6e52,2022-09-08_13h55.18.924,CGTgamblingSpanTasks,2022.2.1,Win32,29.99220203,,,,,,,,0,,,,,,,,,,,,,,2,,,,,1.5,1.5,0,11,11,49,1,6.79,0,9.92,1,,,,,,,,,,,,,,,,,,,,,,,,,,,,,,,,,,,,,,,,,,,,,,,,,,,,,,,,,,,,,,,,,,,,,,,,,,,,,,,,,,,,,,,,,,,,,,,,,,
,,620bde55a922fc3f247f6e52,2022-09-08_13h55.18.924,CGTgamblingSpanTasks,2022.2.1,Win32,29.99220203,,,,,,,,2.2902,,,,,,,,,,,,,,2,v,1.7098,6.29,0,3.2902,1,0,12,12,24,1,11.43,0,6.29,0,,,,,,,,,,,,,,,,,,,,,,,,,,,,,,,,,,,,,,,,,,,,,,,,,,,,,,,,,,,,,,,,,,,,,,,,,,,,,,,,,,,,,,,,,,,,,,,,,,
,,620bde55a922fc3f247f6e52,2022-09-08_13h55.18.924,CGTgamblingSpanTasks,2022.2.1,Win32,29.99220203,,,,,,,,2.1963,,,,,,,,,,,,,,2,v,1.8037,6.19,0,3.6963,1.5,0,13,13,22,1,11.62,0,6.19,0,,,,,,,,,,,,,,,,,,,,,,,,,,,,,,,,,,,,,,,,,,,,,,,,,,,,,,,,,,,,,,,,,,,,,,,,,,,,,,,,,,,,,,,,,,,,,,,,,,
,,620bde55a922fc3f247f6e52,2022-09-08_13h55.18.924,CGTgamblingSpanTasks,2022.2.1,Win32,29.99220203,,,,,,,,2.7103,,,,,,,,,,,,,,2,n,1.2897,13.45,1,3.7103,1,0,14,14,10,1,13.45,0,5.27,0,,,,,,,,,,,,,,,,,,,,,,,,,,,,,,,,,,,,,,,,,,,,,,,,,,,,,,,,,,,,,,,,,,,,,,,,,,,,,,,,,,,,,,,,,,,,,,,,,,
,,620bde55a922fc3f247f6e52,2022-09-08_13h55.18.924,CGTgamblingSpanTasks,2022.2.1,Win32,29.99220203,,,,,,,,2.3629,,,,,,,,,,,,,,1,n,1.6371,8.61,0,3.8629,1.5,0,15,15,15,1,18.77,0,8.61,0,,,,,,,,,,,,,,,,,,,,,,,,,,,,,,,,,,,,,,,,,,,,,,,,,,,,,,,,,,,,,,,,,,,,,,,,,,,,,,,,,,,,,,,,,,,,,,,,,,
,,620bde55a922fc3f247f6e52,2022-09-08_13h55.18.924,CGTgamblingSpanTasks,2022.2.1,Win32,29.99220203,,,,,,,,2.1902,,,,,,,,,,,,,,2,n,1.8098,12.08,1,3.1902,1,0,16,16,18,1,12.08,0,5.96,0,,,,,,,,,,,,,,,,,,,,,,,,,,,,,,,,,,,,,,,,,,,,,,,,,,,,,,,,,,,,,,,,,,,,,,,,,,,,,,,,,,,,,,,,,,,,,,,,,,
,,620bde55a922fc3f247f6e52,2022-09-08_13h55.18.924,CGTgamblingSpanTasks,2022.2.1,Win32,29.99220203,,,,,,,,2.9937,,,,,,,,,,,,,,2,v,1.0063,10.25,0,3.9937,1,0,17,17,46,1,0,0,10.25,1,,,,,,,,,,,,,,,,,,,,,,,,,,,,,,,,,,,,,,,,,,,,,,,,,,,,,,,,,,,,,,,,,,,,,,,,,,,,,,,,,,,,,,,,,,,,,,,,,,
,,620bde55a922fc3f247f6e52,2022-09-08_13h55.18.924,CGTgamblingSpanTasks,2022.2.1,Win32,29.99220203,,,,,,,,2.1346,,,,,,,,,,,,,,2,n,1.8654,13.1,1,3.1346,1,0,18,18,44,1,13.1,7.73,4.68,1,,,,,,,,,,,,,,,,,,,,,,,,,,,,,,,,,,,,,,,,,,,,,,,,,,,,,,,,,,,,,,,,,,,,,,,,,,,,,,,,,,,,,,,,,,,,,,,,,,
,,620bde55a922fc3f247f6e52,2022-09-08_13h55.18.924,CGTgamblingSpanTasks,2022.2.1,Win32,29.99220203,,,,,,,,2.8543,,,,,,,,,,,,,,2,n,1.1457,12.36,1,4.3543,1.5,0,19,19,16,1,12.36,0,5.82,0,,,,,,,,,,,,,,,,,,,,,,,,,,,,,,,,,,,,,,,,,,,,,,,,,,,,,,,,,,,,,,,,,,,,,,,,,,,,,,,,,,,,,,,,,,,,,,,,,,
,,620bde55a922fc3f247f6e52,2022-09-08_13h55.18.924,CGTgamblingSpanTasks,2022.2.1,Win32,29.99220203,,,,,,,,2.551,,,,,,,,,,,,,,1,v,1.449,0,1,3.551,1,0,20,20,41,1,14.26,0,0,1,,,,,,,,,,,,,,,,,,,,,,,,,,,,,,,,,,,,,,,,,,,,,,,,,,,,,,,,,,,,,,,,,,,,,,,,,,,,,,,,,,,,,,,,,,,,,,,,,,
,,620bde55a922fc3f247f6e52,2022-09-08_13h55.18.924,CGTgamblingSpanTasks,2022.2.1,Win32,29.99220203,,,,,,,,2.012,,,,,,,,,,,,,,2,n,1.988,0,1,3.512,1.5,0,21,21,3,1,25.2,0,5.4,0,,,,,,,,,,,,,,,,,,,,,,,,,,,,,,,,,,,,,,,,,,,,,,,,,,,,,,,,,,,,,,,,,,,,,,,,,,,,,,,,,,,,,,,,,,,,,,,,,,
,,620bde55a922fc3f247f6e52,2022-09-08_13h55.18.924,CGTgamblingSpanTasks,2022.2.1,Win32,29.99220203,,,,,,,,2.8263,,,,,,,,,,,,,,2,v,1.1737,7.55,0,4.3263,1.5,0,22,22,45,1,0,0,7.55,1,,,,,,,,,,,,,,,,,,,,,,,,,,,,,,,,,,,,,,,,,,,,,,,,,,,,,,,,,,,,,,,,,,,,,,,,,,,,,,,,,,,,,,,,,,,,,,,,,,
,,620bde55a922fc3f247f6e52,2022-09-08_13h55.18.924,CGTgamblingSpanTasks,2022.2.1,Win32,29.99220203,,,,,,,,2.6276,,,,,,,,,,,,,,1,n,1.3724,9.03,0,4.1276,1.5,0,23,23,19,1,17.94,0,9.03,0,,,,,,,,,,,,,,,,,,,,,,,,,,,,,,,,,,,,,,,,,,,,,,,,,,,,,,,,,,,,,,,,,,,,,,,,,,,,,,,,,,,,,,,,,,,,,,,,,,
,,620bde55a922fc3f247f6e52,2022-09-08_13h55.18.924,CGTgamblingSpanTasks,2022.2.1,Win32,29.99220203,,,,,,,,2.5852,,,,,,,,,,,,,,1,n,1.4148,10.02,0,4.0852,1.5,0,24,24,31,1,15.96,0,10.02,0,,,,,,,,,,,,,,,,,,,,,,,,,,,,,,,,,,,,,,,,,,,,,,,,,,,,,,,,,,,,,,,,,,,,,,,,,,,,,,,,,,,,,,,,,,,,,,,,,,
,,620bde55a922fc3f247f6e52,2022-09-08_13h55.18.924,CGTgamblingSpanTasks,2022.2.1,Win32,29.99220203,,,,,,,,2.2161,,,,,,,,,,,,,,1,n,1.7839,6.63,0,3.2161,1,0,25,25,30,1,10.73,0,6.63,0,,,,,,,,,,,,,,,,,,,,,,,,,,,,,,,,,,,,,,,,,,,,,,,,,,,,,,,,,,,,,,,,,,,,,,,,,,,,,,,,,,,,,,,,,,,,,,,,,,
,,620bde55a922fc3f247f6e52,2022-09-08_13h55.18.924,CGTgamblingSpanTasks,2022.2.1,Win32,29.99220203,,,,,,,,2.4828,,,,,,,,,,,,,,2,n,1.5172,0,1,3.9828,1.5,0,26,26,40,1,10.35,0,0,1,,,,,,,,,,,,,,,,,,,,,,,,,,,,,,,,,,,,,,,,,,,,,,,,,,,,,,,,,,,,,,,,,,,,,,,,,,,,,,,,,,,,,,,,,,,,,,,,,,
,,620bde55a922fc3f247f6e52,2022-09-08_13h55.18.924,CGTgamblingSpanTasks,2022.2.1,Win32,29.99220203,,,,,,,,2.8943,,,,,,,,,,,,,,2,n,1.1057,20.03,1,4.3943,1.5,0,27,27,0,1,20.03,0,1.99,0,,,,,,,,,,,,,,,,,,,,,,,,,,,,,,,,,,,,,,,,,,,,,,,,,,,,,,,,,,,,,,,,,,,,,,,,,,,,,,,,,,,,,,,,,,,,,,,,,,
,,620bde55a922fc3f247f6e52,2022-09-08_13h55.18.924,CGTgamblingSpanTasks,2022.2.1,Win32,29.99220203,,,,,,,,2.2418,,,,,,,,,,,,,,2,v,1.7582,5.48,0,3.2418,1,0,28,28,12,1,13.04,0,5.48,0,,,,,,,,,,,,,,,,,,,,,,,,,,,,,,,,,,,,,,,,,,,,,,,,,,,,,,,,,,,,,,,,,,,,,,,,,,,,,,,,,,,,,,,,,,,,,,,,,,
,,620bde55a922fc3f247f6e52,2022-09-08_13h55.18.924,CGTgamblingSpanTasks,2022.2.1,Win32,29.99220203,,,,,,,,2.2488,,,,,,,,,,,,,,1,n,1.7512,7.34,0,3.7488,1.5,0,29,29,7,1,21.32,0,7.34,0,,,,,,,,,,,,,,,,,,,,,,,,,,,,,,,,,,,,,,,,,,,,,,,,,,,,,,,,,,,,,,,,,,,,,,,,,,,,,,,,,,,,,,,,,,,,,,,,,,
,,620bde55a922fc3f247f6e52,2022-09-08_13h55.18.924,CGTgamblingSpanTasks,2022.2.1,Win32,29.99220203,,,,,,,,2.3704,,,,,,,,,,,,,,2,v,1.6296,8.07,0,3.3704,1,0,30,30,11,1,19.86,0,8.07,0,,,,,,,,,,,,,,,,,,,,,,,,,,,,,,,,,,,,,,,,,,,,,,,,,,,,,,,,,,,,,,,,,,,,,,,,,,,,,,,,,,,,,,,,,,,,,,,,,,
,,620bde55a922fc3f247f6e52,2022-09-08_13h55.18.924,CGTgamblingSpanTasks,2022.2.1,Win32,29.99220203,,,,,,,,1.6966,,,,,,,,,,,,,,2,n,2.3034,10.24,1,3.1966,1.5,0,31,31,36,1,10.24,0,6.88,0,,,,,,,,,,,,,,,,,,,,,,,,,,,,,,,,,,,,,,,,,,,,,,,,,,,,,,,,,,,,,,,,,,,,,,,,,,,,,,,,,,,,,,,,,,,,,,,,,,
,,620bde55a922fc3f247f6e52,2022-09-08_13h55.18.924,CGTgamblingSpanTasks,2022.2.1,Win32,29.99220203,,,,,,,,2.6412,,,,,,,,,,,,,,2,v,1.3588,9.2,0,3.6412,1,0,32,32,21,1,17.59,0,9.2,0,,,,,,,,,,,,,,,,,,,,,,,,,,,,,,,,,,,,,,,,,,,,,,,,,,,,,,,,,,,,,,,,,,,,,,,,,,,,,,,,,,,,,,,,,,,,,,,,,,
,,620bde55a922fc3f247f6e52,2022-09-08_13h55.18.924,CGTgamblingSpanTasks,2022.2.1,Win32,29.99220203,,,,,,,,2.4751,,,,,,,,,,,,,,1,v,1.5249,0,1,3.4751,1,0,33,33,1,1,28.21,0,3.89,0,,,,,,,,,,,,,,,,,,,,,,,,,,,,,,,,,,,,,,,,,,,,,,,,,,,,,,,,,,,,,,,,,,,,,,,,,,,,,,,,,,,,,,,,,,,,,,,,,,
,,620bde55a922fc3f247f6e52,2022-09-08_13h55.18.924,CGTgamblingSpanTasks,2022.2.1,Win32,29.99220203,,,,,,,,2.7329,,,,,,,,,,,,,,2,v,1.2671,8.36,0,3.7329,1,0,34,34,13,1,19.28,0,8.36,0,,,,,,,,,,,,,,,,,,,,,,,,,,,,,,,,,,,,,,,,,,,,,,,,,,,,,,,,,,,,,,,,,,,,,,,,,,,,,,,,,,,,,,,,,,,,,,,,,,
,,620bde55a922fc3f247f6e52,2022-09-08_13h55.18.924,CGTgamblingSpanTasks,2022.2.1,Win32,29.99220203,,,,,,,,2.7775,,,,,,,,,,,,,,1,n,1.2225,10.68,0,4.2775,1.5,0,35,35,48,1,10.68,0,10.68,1,,,,,,,,,,,,,,,,,,,,,,,,,,,,,,,,,,,,,,,,,,,,,,,,,,,,,,,,,,,,,,,,,,,,,,,,,,,,,,,,,,,,,,,,,,,,,,,,,,
,,620bde55a922fc3f247f6e52,2022-09-08_13h55.18.924,CGTgamblingSpanTasks,2022.2.1,Win32,29.99220203,,,,,,,,2.896,,,,,,,,,,,,,,1,n,1.104,9.36,0,4.396,1.5,0,36,36,23,1,17.28,0,9.36,0,,,,,,,,,,,,,,,,,,,,,,,,,,,,,,,,,,,,,,,,,,,,,,,,,,,,,,,,,,,,,,,,,,,,,,,,,,,,,,,,,,,,,,,,,,,,,,,,,,
,,620bde55a922fc3f247f6e52,2022-09-08_13h55.18.924,CGTgamblingSpanTasks,2022.2.1,Win32,29.99220203,,,,,,,,2.4322,,,,,,,,,,,,,,1,n,1.5678,6.4,0,3.9322,1.5,0,37,37,26,1,11.2,0,6.4,0,,,,,,,,,,,,,,,,,,,,,,,,,,,,,,,,,,,,,,,,,,,,,,,,,,,,,,,,,,,,,,,,,,,,,,,,,,,,,,,,,,,,,,,,,,,,,,,,,,
,,620bde55a922fc3f247f6e52,2022-09-08_13h55.18.924,CGTgamblingSpanTasks,2022.2.1,Win32,29.99220203,,,,,,,,2.7762,,,,,,,,,,,,,,2,n,1.2238,0,1,4.2762,1.5,0,38,38,2,1,17.73,0,3.13,0,,,,,,,,,,,,,,,,,,,,,,,,,,,,,,,,,,,,,,,,,,,,,,,,,,,,,,,,,,,,,,,,,,,,,,,,,,,,,,,,,,,,,,,,,,,,,,,,,,
,,620bde55a922fc3f247f6e52,2022-09-08_13h55.18.924,CGTgamblingSpanTasks,2022.2.1,Win32,29.99220203,,,,,,,,2.6685,,,,,,,,,,,,,,1,n,1.3315,6.94,0,3.6685,1,0,39,39,38,1,10.12,0,6.94,0,,,,,,,,,,,,,,,,,,,,,,,,,,,,,,,,,,,,,,,,,,,,,,,,,,,,,,,,,,,,,,,,,,,,,,,,,,,,,,,,,,,,,,,,,,,,,,,,,,
,,620bde55a922fc3f247f6e52,2022-09-08_13h55.18.924,CGTgamblingSpanTasks,2022.2.1,Win32,29.99220203,,,,,,,,1.547,,,,,,,,,,,,,,2,v,2.453,6.81,0,2.547,1,0,40,40,34,1,10.39,0,6.81,0,,,,,,,,,,,,,,,,,,,,,,,,,,,,,,,,,,,,,,,,,,,,,,,,,,,,,,,,,,,,,,,,,,,,,,,,,,,,,,,,,,,,,,,,,,,,,,,,,,
,,620bde55a922fc3f247f6e52,2022-09-08_13h55.18.924,CGTgamblingSpanTasks,2022.2.1,Win32,29.99220203,,,,,,,,2.583,,,,,,,,,,,,,,1,v,1.417,12.68,1,4.083,1.5,0,41,41,14,1,12.68,0,5.66,0,,,,,,,,,,,,,,,,,,,,,,,,,,,,,,,,,,,,,,,,,,,,,,,,,,,,,,,,,,,,,,,,,,,,,,,,,,,,,,,,,,,,,,,,,,,,,,,,,,
,,620bde55a922fc3f247f6e52,2022-09-08_13h55.18.924,CGTgamblingSpanTasks,2022.2.1,Win32,29.99220203,,,,,,,,2.2473,,,,,,,,,,,,,,1,n,1.7527,7.73,0,3.7473,1.5,0,42,42,9,1,20.53,0,7.73,0,,,,,,,,,,,,,,,,,,,,,,,,,,,,,,,,,,,,,,,,,,,,,,,,,,,,,,,,,,,,,,,,,,,,,,,,,,,,,,,,,,,,,,,,,,,,,,,,,,
,,620bde55a922fc3f247f6e52,2022-09-08_13h55.18.924,CGTgamblingSpanTasks,2022.2.1,Win32,29.99220203,,,,,,,,2.1264,,,,,,,,,,,,,,1,n,1.8736,6.99,0,3.6264,1.5,0,43,43,43,1,16.11,6.99,6.99,1,,,,,,,,,,,,,,,,,,,,,,,,,,,,,,,,,,,,,,,,,,,,,,,,,,,,,,,,,,,,,,,,,,,,,,,,,,,,,,,,,,,,,,,,,,,,,,,,,,
,,620bde55a922fc3f247f6e52,2022-09-08_13h55.18.924,CGTgamblingSpanTasks,2022.2.1,Win32,29.99220203,,,,,,,,2.1957,,,,,,,,,,,,,,2,v,1.8043,10.46,0,3.1957,1,0,44,44,39,1,15.09,0,10.46,0,,,,,,,,,,,,,,,,,,,,,,,,,,,,,,,,,,,,,,,,,,,,,,,,,,,,,,,,,,,,,,,,,,,,,,,,,,,,,,,,,,,,,,,,,,,,,,,,,,
,,620bde55a922fc3f247f6e52,2022-09-08_13h55.18.924,CGTgamblingSpanTasks,2022.2.1,Win32,29.99220203,,,,,,,,1.0017,,,,,,,,,,,,,,1,n,2.9983,10.37,0,2.0017,1,0,45,45,37,1,15.27,0,10.37,0,,,,,,,,,,,,,,,,,,,,,,,,,,,,,,,,,,,,,,,,,,,,,,,,,,,,,,,,,,,,,,,,,,,,,,,,,,,,,,,,,,,,,,,,,,,,,,,,,,
,,620bde55a922fc3f247f6e52,2022-09-08_13h55.18.924,CGTgamblingSpanTasks,2022.2.1,Win32,29.99220203,,,,,,,,2.6429,,,,,,,,,,,,,,2,n,1.3571,0,1,3.6429,1,0,46,46,4,1,16,0,4,0,,,,,,,,,,,,,,,,,,,,,,,,,,,,,,,,,,,,,,,,,,,,,,,,,,,,,,,,,,,,,,,,,,,,,,,,,,,,,,,,,,,,,,,,,,,,,,,,,,
,,620bde55a922fc3f247f6e52,2022-09-08_13h55.18.924,CGTgamblingSpanTasks,2022.2.1,Win32,29.99220203,,,,,,,,2.8906,,,,,,,,,,,,,,2,v,1.1094,10.27,0,3.8906,1,0,47,47,35,1,15.47,0,10.27,0,,,,,,,,,,,,,,,,,,,,,,,,,,,,,,,,,,,,,,,,,,,,,,,,,,,,,,,,,,,,,,,,,,,,,,,,,,,,,,,,,,,,,,,,,,,,,,,,,,
,,620bde55a922fc3f247f6e52,2022-09-08_13h55.18.924,CGTgamblingSpanTasks,2022.2.1,Win32,29.99220203,,,,,,,,2.4113,,,,,,,,,,,,,,1,n,1.5887,9.5,0,3.4113,1,0,48,48,25,1,17,0,9.5,0,,,,,,,,,,,,,,,,,,,,,,,,,,,,,,,,,,,,,,,,,,,,,,,,,,,,,,,,,,,,,,,,,,,,,,,,,,,,,,,,,,,,,,,,,,,,,,,,,,
,,620bde55a922fc3f247f6e52,2022-09-08_13h55.18.924,CGTgamblingSpanTasks,2022.2.1,Win32,29.99220203,,,,,,,,1.2463,,,,,,,,,,,,,,1,n,2.7537,6.08,0,2.2463,1,0,49,49,20,1,11.84,0,6.08,0,,,,,,,,,,,,,,,,,,,,,,,,,,,,,,,,,,,,,,,,,,,,,,,,,,,,,,,,,,,,,,,,,,,,,,,,,,,,,,,,,,,,,,,,,,,,,,,,,,
,,620bde55a922fc3f247f6e52,2022-09-08_13h55.18.924,CGTgamblingSpanTasks,2022.2.1,Win32,29.99220203,,,,,,,,,,,,,,,,,,,,,,,,,,,,,,,,,,,,,,bespoke_choiceset_rhoInd034_muInd023.csv,bespoke_choicesets/bespoke_choiceset_rhoInd034_muInd023.csv,34,23,0,0,0,0,1,,,,,,,,,,,,,,,,,,,,,,,,,,,,,,,,,,,,,,,,,,,,,,,,,,,,,,,,,,,,,,,,,,,,,,,,,,,,,,,,,,,,,,,,,
,,620bde55a922fc3f247f6e52,2022-09-08_13h55.18.924,CGTgamblingSpanTasks,2022.2.1,Win32,29.99220203,,,,,,,,,,,,,,,,,,,,,,,,,,,,,,,,,,,,,,,,,,,,,,,,,,,,,,,,,,,,,,,,,,,,,,,,,,,,,,,,,,,,,,,,,,,,,,,,,,,,,,,,,,,,,,,,,,,,,,,,,,,,,,,,,,,,,,,
,,620bde55a922fc3f247f6e52,2022-09-08_13h55.18.924,CGTgamblingSpanTasks,2022.2.1,Win32,29.99220203,,,,,,,,,,,,,,,,,,,,,,,,,,,,,,,,,,,,,,,,,,,,,,,v,480.8741,,,,,,,,,,,,,,,,,,,,,,,,,,,,,,,,,,,,,,,,,,,,,,,,,,,,,,,,,,,,,,,,,,,,,,,,,,,,,,,,,,,,,,,
,,620bde55a922fc3f247f6e52,2022-09-08_13h55.18.924,CGTgamblingSpanTasks,2022.2.1,Win32,29.99220203,,,,,,,,2.7569,,,,,,,,,,,,,,1,v,1.2431,0,1,4.2569,1.5,,,,,,28.18900855,0,0.05384276,,,,,,,,,,,,,0,0,0,55,1,0.919081308,0,,,,,,,,,,,,,,,,,,,,,,,,,,,,,,,,,,,,,,,,,,,,,,,,,,,,,,,,,,,,,,,,,,,,,,,,,,,,,,,,
,,620bde55a922fc3f247f6e52,2022-09-08_13h55.18.924,CGTgamblingSpanTasks,2022.2.1,Win32,29.99220203,,,,,,,,2.8944,,,,,,,,,,,,,,1,v,1.1056,0,1,3.8944,1,,,,,,27.37527992,0,2.860319095,,,,,,,,,,,,,0,1,1,39,1,0.486304156,1,,,,,,,,,,,,,,,,,,,,,,,,,,,,,,,,,,,,,,,,,,,,,,,,,,,,,,,,,,,,,,,,,,,,,,,,,,,,,,,,
,,620bde55a922fc3f247f6e52,2022-09-08_13h55.18.924,CGTgamblingSpanTasks,2022.2.1,Win32,29.99220203,,,,,,,,1.9473,,,,,,,,,,,,,,1,v,2.0527,0,1,2.9473,1,,,,,,3.395192929,0,4.251676631,,,,,,,,,,,,,0,2,2,7,1,0.023467153,0,,,,,,,,,,,,,,,,,,,,,,,,,,,,,,,,,,,,,,,,,,,,,,,,,,,,,,,,,,,,,,,,,,,,,,,,,,,,,,,,
,,620bde55a922fc3f247f6e52,2022-09-08_13h55.18.924,CGTgamblingSpanTasks,2022.2.1,Win32,29.99220203,,,,,,,,2.6486,,,,,,,,,,,,,,1,n,1.3514,5.683635938,0,4.1486,1.5,,,,,,4.941039335,0,5.683635938,,,,,,,,,,,,,0,3,3,9,1,0.025481984,0,,,,,,,,,,,,,,,,,,,,,,,,,,,,,,,,,,,,,,,,,,,,,,,,,,,,,,,,,,,,,,,,,,,,,,,,,,,,,,,,
,,620bde55a922fc3f247f6e52,2022-09-08_13h55.18.924,CGTgamblingSpanTasks,2022.2.1,Win32,29.99220203,,,,,,,,2.6581,,,,,,,,,,,,,,2,v,1.3419,4.904872644,0,4.1581,1.5,,,,,,4.698775357,0,4.904872644,,,,,,,,,,,,,0,4,4,75,1,0.028064484,0,,,,,,,,,,,,,,,,,,,,,,,,,,,,,,,,,,,,,,,,,,,,,,,,,,,,,,,,,,,,,,,,,,,,,,,,,,,,,,,,
,,620bde55a922fc3f247f6e52,2022-09-08_13h55.18.924,CGTgamblingSpanTasks,2022.2.1,Win32,29.99220203,,,,,,,,3.0969,,,,,,,,,,,,,,1,v,0.9031,27.7711693,1,4.0969,1,,,,,,27.7711693,0,2.320849632,,,,,,,,,,,,,0,5,5,94,1,0.543786368,1,,,,,,,,,,,,,,,,,,,,,,,,,,,,,,,,,,,,,,,,,,,,,,,,,,,,,,,,,,,,,,,,,,,,,,,,,,,,,,,,
,,620bde55a922fc3f247f6e52,2022-09-08_13h55.18.924,CGTgamblingSpanTasks,2022.2.1,Win32,29.99220203,,,,,,,,2.9961,,,,,,,,,,,,,,1,v,1.0039,0,1,4.4961,1.5,,,,,,17.92584289,0,1.878232496,,,,,,,,,,,,,0,6,6,5,1,0.485559263,1,,,,,,,,,,,,,,,,,,,,,,,,,,,,,,,,,,,,,,,,,,,,,,,,,,,,,,,,,,,,,,,,,,,,,,,,,,,,,,,,
,,620bde55a922fc3f247f6e52,2022-09-08_13h55.18.924,CGTgamblingSpanTasks,2022.2.1,Win32,29.99220203,,,,,,,,2.8461,,,,,,,,,,,,,,2,n,1.1539,0,1,4.3461,1.5,,,,,,24.57684014,0,0.061756244,,,,,,,,,,,,,0,7,7,68,1,0.911988903,0,,,,,,,,,,,,,,,,,,,,,,,,,,,,,,,,,,,,,,,,,,,,,,,,,,,,,,,,,,,,,,,,,,,,,,,,,,,,,,,,
,,620bde55a922fc3f247f6e52,2022-09-08_13h55.18.924,CGTgamblingSpanTasks,2022.2.1,Win32,29.99220203,,,,,,,,1.8097,,,,,,,,,,,,,,2,v,2.1903,10.3417501,0,2.8097,1,,,,,,15.21435748,0,10.3417501,,,,,,,,,,,,,0,8,8,72,1,0.060969226,0,,,,,,,,,,,,,,,,,,,,,,,,,,,,,,,,,,,,,,,,,,,,,,,,,,,,,,,,,,,,,,,,,,,,,,,,,,,,,,,,
,,620bde55a922fc3f247f6e52,2022-09-08_13h55.18.924,CGTgamblingSpanTasks,2022.2.1,Win32,29.99220203,,,,,,,,2.7466,,,,,,,,,,,,,,1,v,1.2534,28.9381277,1,3.7466,1,,,,,,28.9381277,0,2.663622024,,,,,,,,,,,,,0,9,9,103,1,0.519453367,1,,,,,,,,,,,,,,,,,,,,,,,,,,,,,,,,,,,,,,,,,,,,,,,,,,,,,,,,,,,,,,,,,,,,,,,,,,,,,,,,
,,620bde55a922fc3f247f6e52,2022-09-08_13h55.18.924,CGTgamblingSpanTasks,2022.2.1,Win32,29.99220203,,,,,,,,2.7739,,,,,,,,,,,,,,2,n,1.2261,0,1,4.2739,1.5,,,,,,25.54604005,0,0.088845411,,,,,,,,,,,,,0,10,10,79,1,0.901957831,0,,,,,,,,,,,,,,,,,,,,,,,,,,,,,,,,,,,,,,,,,,,,,,,,,,,,,,,,,,,,,,,,,,,,,,,,,,,,,,,,
,,620bde55a922fc3f247f6e52,2022-09-08_13h55.18.924,CGTgamblingSpanTasks,2022.2.1,Win32,29.99220203,,,,,,,,2.96,,,,,,,,,,,,,,2,n,1.04,25.65316415,1,4.46,1.5,,,,,,25.65316415,0,0.079652925,,,,,,,,,,,,,0,11,11,109,1,0.90568168,0,,,,,,,,,,,,,,,,,,,,,,,,,,,,,,,,,,,,,,,,,,,,,,,,,,,,,,,,,,,,,,,,,,,,,,,,,,,,,,,,
,,620bde55a922fc3f247f6e52,2022-09-08_13h55.18.924,CGTgamblingSpanTasks,2022.2.1,Win32,29.99220203,,,,,,,,2.9455,,,,,,,,,,,,,,1,v,1.0545,22.25959835,1,4.4455,1.5,,,,,,22.25959835,0,0.065383587,,,,,,,,,,,,,0,12,12,97,1,0.907413875,0,,,,,,,,,,,,,,,,,,,,,,,,,,,,,,,,,,,,,,,,,,,,,,,,,,,,,,,,,,,,,,,,,,,,,,,,,,,,,,,,
,,620bde55a922fc3f247f6e52,2022-09-08_13h55.18.924,CGTgamblingSpanTasks,2022.2.1,Win32,29.99220203,,,,,,,,2.2382,,,,,,,,,,,,,,1,n,1.7618,6.781500919,0,3.7382,1.5,,,,,,8.363821911,0,6.781500919,,,,,,,,,,,,,0,13,13,61,1,0.044227959,0,,,,,,,,,,,,,,,,,,,,,,,,,,,,,,,,,,,,,,,,,,,,,,,,,,,,,,,,,,,,,,,,,,,,,,,,,,,,,,,,
,,620bde55a922fc3f247f6e52,2022-09-08_13h55.18.924,CGTgamblingSpanTasks,2022.2.1,Win32,29.99220203,,,,,,,,2.4254,,,,,,,,,,,,,,2,n,1.5746,17.5608285,1,3.9254,1.5,,,,,,17.5608285,0,1.825111303,,,,,,,,,,,,,0,14,14,104,1,0.487721116,1,,,,,,,,,,,,,,,,,,,,,,,,,,,,,,,,,,,,,,,,,,,,,,,,,,,,,,,,,,,,,,,,,,,,,,,,,,,,,,,,
,,620bde55a922fc3f247f6e52,2022-09-08_13h55.18.924,CGTgamblingSpanTasks,2022.2.1,Win32,29.99220203,,,,,,,,0.9773,,,,,,,,,,,,,,1,v,3.0227,0,1,2.4773,1.5,,,,,,11.16819157,0,0.941456753,,,,,,,,,,,,,0,15,15,45,1,0.54163803,1,,,,,,,,,,,,,,,,,,,,,,,,,,,,,,,,,,,,,,,,,,,,,,,,,,,,,,,,,,,,,,,,,,,,,,,,,,,,,,,,
,,620bde55a922fc3f247f6e52,2022-09-08_13h55.18.924,CGTgamblingSpanTasks,2022.2.1,Win32,29.99220203,,,,,,,,2.8675,,,,,,,,,,,,,,1,v,1.1325,13.4287264,1,4.3675,1.5,,,,,,13.4287264,0,1.317368801,,,,,,,,,,,,,0,16,16,100,1,0.502953125,1,,,,,,,,,,,,,,,,,,,,,,,,,,,,,,,,,,,,,,,,,,,,,,,,,,,,,,,,,,,,,,,,,,,,,,,,,,,,,,,,
,,620bde55a922fc3f247f6e52,2022-09-08_13h55.18.924,CGTgamblingSpanTasks,2022.2.1,Win32,29.99220203,,,,,,,,3.1038,,,,,,,,,,,,,,1,n,0.8962,11.61882862,0,4.6038,1.5,,,,,,4.022743614,0,11.61882862,,,,,,,,,,,,,0,17,17,38,1,0.011499376,0,,,,,,,,,,,,,,,,,,,,,,,,,,,,,,,,,,,,,,,,,,,,,,,,,,,,,,,,,,,,,,,,,,,,,,,,,,,,,,,,
,,620bde55a922fc3f247f6e52,2022-09-08_13h55.18.924,CGTgamblingSpanTasks,2022.2.1,Win32,29.99220203,,,,,,,,2.8744,,,,,,,,,,,,,,2,n,1.1256,20.31034258,1,3.8744,1,,,,,,20.31034258,0,1.870404296,,,,,,,,,,,,,0,18,18,85,1,0.519325853,1,,,,,,,,,,,,,,,,,,,,,,,,,,,,,,,,,,,,,,,,,,,,,,,,,,,,,,,,,,,,,,,,,,,,,,,,,,,,,,,,
,,620bde55a922fc3f247f6e52,2022-09-08_13h55.18.924,CGTgamblingSpanTasks,2022.2.1,Win32,29.99220203,,,,,,,,2.7323,,,,,,,,,,,,,,2,n,1.2677,17.4320197,1,3.7323,1,,,,,,17.4320197,0,1.448620949,,,,,,,,,,,,,0,19,19,30,1,0.545178213,1,,,,,,,,,,,,,,,,,,,,,,,,,,,,,,,,,,,,,,,,,,,,,,,,,,,,,,,,,,,,,,,,,,,,,,,,,,,,,,,,
,,620bde55a922fc3f247f6e52,2022-09-08_13h55.18.924,CGTgamblingSpanTasks,2022.2.1,Win32,29.99220203,,,,,,,,2.7661,,,,,,,,,,,,,,2,n,1.2339,0,1,3.7661,1,,,,,,27.76752685,0,0.083968035,,,,,,,,,,,,,0,20,20,13,1,0.906513967,0,,,,,,,,,,,,,,,,,,,,,,,,,,,,,,,,,,,,,,,,,,,,,,,,,,,,,,,,,,,,,,,,,,,,,,,,,,,,,,,,
,,620bde55a922fc3f247f6e52,2022-09-08_13h55.18.924,CGTgamblingSpanTasks,2022.2.1,Win32,29.99220203,,,,,,,,2.7285,,,,,,,,,,,,,,1,v,1.2715,18.16238569,1,3.7285,1,,,,,,18.16238569,0,1.540604093,,,,,,,,,,,,,0,21,21,34,1,0.540092491,1,,,,,,,,,,,,,,,,,,,,,,,,,,,,,,,,,,,,,,,,,,,,,,,,,,,,,,,,,,,,,,,,,,,,,,,,,,,,,,,,
,,620bde55a922fc3f247f6e52,2022-09-08_13h55.18.924,CGTgamblingSpanTasks,2022.2.1,Win32,29.99220203,,,,,,,,2.9627,,,,,,,,,,,,,,2,n,1.0373,27.53810185,1,3.9627,1,,,,,,27.53810185,0,0.097022401,,,,,,,,,,,,,0,22,22,50,1,0.901515865,0,,,,,,,,,,,,,,,,,,,,,,,,,,,,,,,,,,,,,,,,,,,,,,,,,,,,,,,,,,,,,,,,,,,,,,,,,,,,,,,,
,,620bde55a922fc3f247f6e52,2022-09-08_13h55.18.924,CGTgamblingSpanTasks,2022.2.1,Win32,29.99220203,,,,,,,,2.6855,,,,,,,,,,,,,,1,v,1.3145,0,1,3.6855,1,,,,,,21.16780451,0,2.469465385,,,,,,,,,,,,,0,23,23,32,1,0.456531699,1,,,,,,,,,,,,,,,,,,,,,,,,,,,,,,,,,,,,,,,,,,,,,,,,,,,,,,,,,,,,,,,,,,,,,,,,,,,,,,,,
,,620bde55a922fc3f247f6e52,2022-09-08_13h55.18.924,CGTgamblingSpanTasks,2022.2.1,Win32,29.99220203,,,,,,,,3.1357,,,,,,,,,,,,,,1,v,0.8643,0,1,4.6357,1.5,,,,,,8.670591867,0,1.025847652,,,,,,,,,,,,,0,24,24,18,1,0.452680459,1,,,,,,,,,,,,,,,,,,,,,,,,,,,,,,,,,,,,,,,,,,,,,,,,,,,,,,,,,,,,,,,,,,,,,,,,,,,,,,,,
,,620bde55a922fc3f247f6e52,2022-09-08_13h55.18.924,CGTgamblingSpanTasks,2022.2.1,Win32,29.99220203,,,,,,,,2.9481,,,,,,,,,,,,,,2,n,1.0519,0,1,3.9481,1,,,,,,17.30137174,0,1.716380842,,,,,,,,,,,,,0,25,25,20,1,0.500020285,1,,,,,,,,,,,,,,,,,,,,,,,,,,,,,,,,,,,,,,,,,,,,,,,,,,,,,,,,,,,,,,,,,,,,,,,,,,,,,,,,
,,620bde55a922fc3f247f6e52,2022-09-08_13h55.18.924,CGTgamblingSpanTasks,2022.2.1,Win32,29.99220203,,,,,,,,3.0016,,,,,,,,,,,,,,2,n,0.9984,14.3363647,1,4.0016,1,,,,,,14.3363647,0,1.396635362,,,,,,,,,,,,,0,26,26,78,1,0.504775474,1,,,,,,,,,,,,,,,,,,,,,,,,,,,,,,,,,,,,,,,,,,,,,,,,,,,,,,,,,,,,,,,,,,,,,,,,,,,,,,,,
,,620bde55a922fc3f247f6e52,2022-09-08_13h55.18.924,CGTgamblingSpanTasks,2022.2.1,Win32,29.99220203,,,,,,,,2.8865,,,,,,,,,,,,,,2,n,1.1135,19.36415485,1,3.8865,1,,,,,,19.36415485,0,1.966229494,,,,,,,,,,,,,0,27,27,96,1,0.493893111,1,,,,,,,,,,,,,,,,,,,,,,,,,,,,,,,,,,,,,,,,,,,,,,,,,,,,,,,,,,,,,,,,,,,,,,,,,,,,,,,,
,,620bde55a922fc3f247f6e52,2022-09-08_13h55.18.924,CGTgamblingSpanTasks,2022.2.1,Win32,29.99220203,,,,,,,,2.7493,,,,,,,,,,,,,,1,v,1.2507,29.77342428,1,3.7493,1,,,,,,29.77342428,0,2.838865588,,,,,,,,,,,,,0,28,28,57,1,0.510363415,1,,,,,,,,,,,,,,,,,,,,,,,,,,,,,,,,,,,,,,,,,,,,,,,,,,,,,,,,,,,,,,,,,,,,,,,,,,,,,,,,
,,620bde55a922fc3f247f6e52,2022-09-08_13h55.18.924,CGTgamblingSpanTasks,2022.2.1,Win32,29.99220203,,,,,,,,2.6311,,,,,,,,,,,,,,1,v,1.3689,0,1,3.6311,1,,,,,,8.217594828,0,0.951019374,,,,,,,,,,,,,0,29,29,87,1,0.458722936,1,,,,,,,,,,,,,,,,,,,,,,,,,,,,,,,,,,,,,,,,,,,,,,,,,,,,,,,,,,,,,,,,,,,,,,,,,,,,,,,,
,,620bde55a922fc3f247f6e52,2022-09-08_13h55.18.924,CGTgamblingSpanTasks,2022.2.1,Win32,29.99220203,,,,,,,,2.7942,,,,,,,,,,,,,,1,v,1.2058,0,1,3.7942,1,,,,,,15.43649625,0,1.65459324,,,,,,,,,,,,,0,30,30,33,1,0.479480163,1,,,,,,,,,,,,,,,,,,,,,,,,,,,,,,,,,,,,,,,,,,,,,,,,,,,,,,,,,,,,,,,,,,,,,,,,,,,,,,,,
,,620bde55a922fc3f247f6e52,2022-09-08_13h55.18.924,CGTgamblingSpanTasks,2022.2.1,Win32,29.99220203,,,,,,,,2.3398,,,,,,,,,,,,,,2,v,1.6602,7.50753835,0,3.3398,1,,,,,,2.231316635,0,7.50753835,,,,,,,,,,,,,0,31,31,29,1,0.010273427,0,,,,,,,,,,,,,,,,,,,,,,,,,,,,,,,,,,,,,,,,,,,,,,,,,,,,,,,,,,,,,,,,,,,,,,,,,,,,,,,,
,,620bde55a922fc3f247f6e52,2022-09-08_13h55.18.924,CGTgamblingSpanTasks,2022.2.1,Win32,29.99220203,,,,,,,,2.9139,,,,,,,,,,,,,,1,v,1.0861,0,1,4.4139,1.5,,,,,,19.68065872,0,1.843597162,,,,,,,,,,,,,0,32,32,80,1,0.514941058,1,,,,,,,,,,,,,,,,,,,,,,,,,,,,,,,,,,,,,,,,,,,,,,,,,,,,,,,,,,,,,,,,,,,,,,,,,,,,,,,,
,,620bde55a922fc3f247f6e52,2022-09-08_13h55.18.924,CGTgamblingSpanTasks,2022.2.1,Win32,29.99220203,,,,,,,,2.8158,,,,,,,,,,,,,,1,v,1.1842,0,1,3.8158,1,,,,,,25.56803059,0,2.543951743,,,,,,,,,,,,,0,33,33,41,1,0.499247217,1,,,,,,,,,,,,,,,,,,,,,,,,,,,,,,,,,,,,,,,,,,,,,,,,,,,,,,,,,,,,,,,,,,,,,,,,,,,,,,,,
,,620bde55a922fc3f247f6e52,2022-09-08_13h55.18.924,CGTgamblingSpanTasks,2022.2.1,Win32,29.99220203,,,,,,,,2.7106,,,,,,,,,,,,,,2,v,1.2894,7.850775577,0,4.2106,1.5,,,,,,4.622707531,0,7.850775577,,,,,,,,,,,,,0,34,34,6,1,0.017737407,0,,,,,,,,,,,,,,,,,,,,,,,,,,,,,,,,,,,,,,,,,,,,,,,,,,,,,,,,,,,,,,,,,,,,,,,,,,,,,,,,
,,620bde55a922fc3f247f6e52,2022-09-08_13h55.18.924,CGTgamblingSpanTasks,2022.2.1,Win32,29.99220203,,,,,,,,2.9075,,,,,,,,,,,,,,1,v,1.0925,27.93093084,1,4.4075,1.5,,,,,,27.93093084,0,0.050207531,,,,,,,,,,,,,0,35,35,83,1,0.920505936,0,,,,,,,,,,,,,,,,,,,,,,,,,,,,,,,,,,,,,,,,,,,,,,,,,,,,,,,,,,,,,,,,,,,,,,,,,,,,,,,,
,,620bde55a922fc3f247f6e52,2022-09-08_13h55.18.924,CGTgamblingSpanTasks,2022.2.1,Win32,29.99220203,,,,,,,,2.8625,,,,,,,,,,,,,,1,n,1.1375,11.35147481,0,4.3625,1.5,,,,,,17.67865084,0,11.35147481,,,,,,,,,,,,,0,36,36,91,1,0.067304606,0,,,,,,,,,,,,,,,,,,,,,,,,,,,,,,,,,,,,,,,,,,,,,,,,,,,,,,,,,,,,,,,,,,,,,,,,,,,,,,,,
,,620bde55a922fc3f247f6e52,2022-09-08_13h55.18.924,CGTgamblingSpanTasks,2022.2.1,Win32,29.99220203,,,,,,,,2.7049,,,,,,,,,,,,,,2,v,1.2951,10.31611309,0,4.2049,1.5,,,,,,19.30622782,0,10.31611309,,,,,,,,,,,,,0,37,37,1,1,0.091105656,0,,,,,,,,,,,,,,,,,,,,,,,,,,,,,,,,,,,,,,,,,,,,,,,,,,,,,,,,,,,,,,,,,,,,,,,,,,,,,,,,
,,620bde55a922fc3f247f6e52,2022-09-08_13h55.18.924,CGTgamblingSpanTasks,2022.2.1,Win32,29.99220203,,,,,,,,2.9757,,,,,,,,,,,,,,2,v,1.0243,11.39288827,0,3.9757,1,,,,,,20.97851654,0,11.39288827,,,,,,,,,,,,,0,38,38,2,1,0.088791079,0,,,,,,,,,,,,,,,,,,,,,,,,,,,,,,,,,,,,,,,,,,,,,,,,,,,,,,,,,,,,,,,,,,,,,,,,,,,,,,,,
,,620bde55a922fc3f247f6e52,2022-09-08_13h55.18.924,CGTgamblingSpanTasks,2022.2.1,Win32,29.99220203,,,,,,,,2.7097,,,,,,,,,,,,,,1,v,1.2903,0,1,4.2097,1.5,,,,,,19.3050342,0,2.030232342,,,,,,,,,,,,,0,39,39,73,1,0.484573227,1,,,,,,,,,,,,,,,,,,,,,,,,,,,,,,,,,,,,,,,,,,,,,,,,,,,,,,,,,,,,,,,,,,,,,,,,,,,,,,,,
,,620bde55a922fc3f247f6e52,2022-09-08_13h55.18.924,CGTgamblingSpanTasks,2022.2.1,Win32,29.99220203,,,,,,,,2.952,,,,,,,,,,,,,,2,v,1.048,10.41201161,0,3.952,1,,,,,,6.307062696,0,10.41201161,,,,,,,,,,,,,0,40,40,23,1,0.018187109,0,,,,,,,,,,,,,,,,,,,,,,,,,,,,,,,,,,,,,,,,,,,,,,,,,,,,,,,,,,,,,,,,,,,,,,,,,,,,,,,,
,,620bde55a922fc3f247f6e52,2022-09-08_13h55.18.924,CGTgamblingSpanTasks,2022.2.1,Win32,29.99220203,,,,,,,,3.0951,,,,,,,,,,,,,,2,n,0.9049,11.08143071,1,4.0951,1,,,,,,11.08143071,0,1.207538756,,,,,,,,,,,,,0,41,41,84,1,0.475047453,1,,,,,,,,,,,,,,,,,,,,,,,,,,,,,,,,,,,,,,,,,,,,,,,,,,,,,,,,,,,,,,,,,,,,,,,,,,,,,,,,
,,620bde55a922fc3f247f6e52,2022-09-08_13h55.18.924,CGTgamblingSpanTasks,2022.2.1,Win32,29.99220203,,,,,,,,2.749,,,,,,,,,,,,,,1,v,1.251,18.50662664,1,3.749,1,,,,,,18.50662664,0,0.052546026,,,,,,,,,,,,,0,42,42,112,1,0.908444837,0,,,,,,,,,,,,,,,,,,,,,,,,,,,,,,,,,,,,,,,,,,,,,,,,,,,,,,,,,,,,,,,,,,,,,,,,,,,,,,,,
,,620bde55a922fc3f247f6e52,2022-09-08_13h55.18.924,CGTgamblingSpanTasks,2022.2.1,Win32,29.99220203,,,,,,,,2.8583,,,,,,,,,,,,,,1,v,1.1417,29.75778644,1,4.3583,1.5,,,,,,29.75778644,0,2.810531415,,,,,,,,,,,,,0,43,43,113,1,0.512824233,1,,,,,,,,,,,,,,,,,,,,,,,,,,,,,,,,,,,,,,,,,,,,,,,,,,,,,,,,,,,,,,,,,,,,,,,,,,,,,,,,
,,620bde55a922fc3f247f6e52,2022-09-08_13h55.18.924,CGTgamblingSpanTasks,2022.2.1,Win32,29.99220203,,,,,,,,2.814,,,,,,,,,,,,,,2,n,1.186,0,1,4.314,1.5,,,,,,23.0613391,0,2.387726776,,,,,,,,,,,,,0,44,44,69,1,0.488727763,1,,,,,,,,,,,,,,,,,,,,,,,,,,,,,,,,,,,,,,,,,,,,,,,,,,,,,,,,,,,,,,,,,,,,,,,,,,,,,,,,
,,620bde55a922fc3f247f6e52,2022-09-08_13h55.18.924,CGTgamblingSpanTasks,2022.2.1,Win32,29.99220203,,,,,,,,2.5751,,,,,,,,,,,,,,1,n,1.4249,8.653432553,0,3.5751,1,,,,,,15.13999312,0,8.653432553,,,,,,,,,,,,,0,45,45,54,1,0.081767484,0,,,,,,,,,,,,,,,,,,,,,,,,,,,,,,,,,,,,,,,,,,,,,,,,,,,,,,,,,,,,,,,,,,,,,,,,,,,,,,,,
,,620bde55a922fc3f247f6e52,2022-09-08_13h55.18.924,CGTgamblingSpanTasks,2022.2.1,Win32,29.99220203,,,,,,,,2.7727,,,,,,,,,,,,,,2,n,1.2273,28.68598705,1,3.7727,1,,,,,,28.68598705,0,0.050674956,,,,,,,,,,,,,0,46,46,62,1,0.920905497,0,,,,,,,,,,,,,,,,,,,,,,,,,,,,,,,,,,,,,,,,,,,,,,,,,,,,,,,,,,,,,,,,,,,,,,,,,,,,,,,,
,,620bde55a922fc3f247f6e52,2022-09-08_13h55.18.924,CGTgamblingSpanTasks,2022.2.1,Win32,29.99220203,,,,,,,,2.9525,,,,,,,,,,,,,,1,v,1.0475,0,1,4.4525,1.5,,,,,,19.5450126,0,2.123581464,,,,,,,,,,,,,0,47,47,65,1,0.475836144,1,,,,,,,,,,,,,,,,,,,,,,,,,,,,,,,,,,,,,,,,,,,,,,,,,,,,,,,,,,,,,,,,,,,,,,,,,,,,,,,,
,,620bde55a922fc3f247f6e52,2022-09-08_13h55.18.924,CGTgamblingSpanTasks,2022.2.1,Win32,29.99220203,,,,,,,,2.7198,,,,,,,,,,,,,,1,v,1.2802,0,1,4.2198,1.5,,,,,,23.24777057,0,2.003482335,,,,,,,,,,,,,0,48,48,59,1,0.536135174,1,,,,,,,,,,,,,,,,,,,,,,,,,,,,,,,,,,,,,,,,,,,,,,,,,,,,,,,,,,,,,,,,,,,,,,,,,,,,,,,,
,,620bde55a922fc3f247f6e52,2022-09-08_13h55.18.924,CGTgamblingSpanTasks,2022.2.1,Win32,29.99220203,,,,,,,,3.0103,,,,,,,,,,,,,,1,v,0.9897,22.72923833,1,4.0103,1,,,,,,22.72923833,0,0.067170781,,,,,,,,,,,,,0,49,49,86,1,0.907226703,0,,,,,,,,,,,,,,,,,,,,,,,,,,,,,,,,,,,,,,,,,,,,,,,,,,,,,,,,,,,,,,,,,,,,,,,,,,,,,,,,
,,620bde55a922fc3f247f6e52,2022-09-08_13h55.18.924,CGTgamblingSpanTasks,2022.2.1,Win32,29.99220203,,,,,,,,3.0861,,,,,,,,,,,,,,1,v,0.9139,0,1,4.5861,1.5,,,,,,28.94627214,0,2.701896413,,,,,,,,,,,,,0,50,50,111,1,0.515860759,1,,,,,,,,,,,,,,,,,,,,,,,,,,,,,,,,,,,,,,,,,,,,,,,,,,,,,,,,,,,,,,,,,,,,,,,,,,,,,,,,
,,620bde55a922fc3f247f6e52,2022-09-08_13h55.18.924,CGTgamblingSpanTasks,2022.2.1,Win32,29.99220203,,,,,,,,2.8367,,,,,,,,,,,,,,2,v,1.1633,3.877530383,0,4.3367,1.5,,,,,,3.471484939,0,3.877530383,,,,,,,,,,,,,0,51,51,40,1,0.02623078,0,,,,,,,,,,,,,,,,,,,,,,,,,,,,,,,,,,,,,,,,,,,,,,,,,,,,,,,,,,,,,,,,,,,,,,,,,,,,,,,,
,,620bde55a922fc3f247f6e52,2022-09-08_13h55.18.924,CGTgamblingSpanTasks,2022.2.1,Win32,29.99220203,,,,,,,,2.5752,,,,,,,,,,,,,,2,n,1.4248,0,1,4.0752,1.5,,,,,,15.73000491,0,8.830252162,,,,,,,,,,,,,0,52,52,95,1,0.084193143,0,,,,,,,,,,,,,,,,,,,,,,,,,,,,,,,,,,,,,,,,,,,,,,,,,,,,,,,,,,,,,,,,,,,,,,,,,,,,,,,,
,,620bde55a922fc3f247f6e52,2022-09-08_13h55.18.924,CGTgamblingSpanTasks,2022.2.1,Win32,29.99220203,,,,,,,,2.5707,,,,,,,,,,,,,,1,n,1.4293,7.646213173,0,4.0707,1.5,,,,,,2.042350179,0,7.646213173,,,,,,,,,,,,,0,53,53,53,1,0.009522273,0,,,,,,,,,,,,,,,,,,,,,,,,,,,,,,,,,,,,,,,,,,,,,,,,,,,,,,,,,,,,,,,,,,,,,,,,,,,,,,,,
,,620bde55a922fc3f247f6e52,2022-09-08_13h55.18.924,CGTgamblingSpanTasks,2022.2.1,Win32,29.99220203,,,,,,,,2.0484,,,,,,,,,,,,,,1,n,1.9516,11.19311486,0,3.5484,1.5,,,,,,8.17598802,0,11.19311486,,,,,,,,,,,,,0,54,54,110,1,0.021568003,0,,,,,,,,,,,,,,,,,,,,,,,,,,,,,,,,,,,,,,,,,,,,,,,,,,,,,,,,,,,,,,,,,,,,,,,,,,,,,,,,
,,620bde55a922fc3f247f6e52,2022-09-08_13h55.18.924,CGTgamblingSpanTasks,2022.2.1,Win32,29.99220203,,,,,,,,2.0938,,,,,,,,,,,,,,2,v,1.9062,8.579385201,0,3.0938,1,,,,,,14.11762686,0,8.579385201,,,,,,,,,,,,,0,55,55,60,1,0.073886959,0,,,,,,,,,,,,,,,,,,,,,,,,,,,,,,,,,,,,,,,,,,,,,,,,,,,,,,,,,,,,,,,,,,,,,,,,,,,,,,,,
,,620bde55a922fc3f247f6e52,2022-09-08_13h55.18.924,CGTgamblingSpanTasks,2022.2.1,Win32,29.99220203,,,,,,,,2.8122,,,,,,,,,,,,,,2,n,1.1878,0,1,4.3122,1.5,,,,,,15.87668502,0,8.42547829,,,,,,,,,,,,,0,56,56,56,1,0.092099462,0,,,,,,,,,,,,,,,,,,,,,,,,,,,,,,,,,,,,,,,,,,,,,,,,,,,,,,,,,,,,,,,,,,,,,,,,,,,,,,,,
,,620bde55a922fc3f247f6e52,2022-09-08_13h55.18.924,CGTgamblingSpanTasks,2022.2.1,Win32,29.99220203,,,,,,,,3.0898,,,,,,,,,,,,,,2,n,0.9102,0,1,4.5898,1.5,,,,,,28.33977875,0,2.768313633,,,,,,,,,,,,,0,57,57,116,1,0.50406901,1,,,,,,,,,,,,,,,,,,,,,,,,,,,,,,,,,,,,,,,,,,,,,,,,,,,,,,,,,,,,,,,,,,,,,,,,,,,,,,,,
,,620bde55a922fc3f247f6e52,2022-09-08_13h55.18.924,CGTgamblingSpanTasks,2022.2.1,Win32,29.99220203,,,,,,,,2.0558,,,,,,,,,,,,,,1,v,1.9442,28.14876717,1,3.5558,1.5,,,,,,28.14876717,0,3.117906378,,,,,,,,,,,,,0,58,58,76,1,0.470636736,1,,,,,,,,,,,,,,,,,,,,,,,,,,,,,,,,,,,,,,,,,,,,,,,,,,,,,,,,,,,,,,,,,,,,,,,,,,,,,,,,
,,620bde55a922fc3f247f6e52,2022-09-08_13h55.18.924,CGTgamblingSpanTasks,2022.2.1,Win32,29.99220203,,,,,,,,2.3669,,,,,,,,,,,,,,2,n,1.6331,0,1,3.3669,1,,,,,,28.9323758,0,2.893007023,,,,,,,,,,,,,0,59,59,11,1,0.497943321,1,,,,,,,,,,,,,,,,,,,,,,,,,,,,,,,,,,,,,,,,,,,,,,,,,,,,,,,,,,,,,,,,,,,,,,,,,,,,,,,,
,,620bde55a922fc3f247f6e52,2022-09-08_13h55.18.924,CGTgamblingSpanTasks,2022.2.1,Win32,29.99220203,,,,,,,,2.281,,,,,,,,,,,,,,1,v,1.719,0,1,3.781,1.5,,,,,,17.85020524,0,2.058701084,,,,,,,,,,,,,0,60,60,25,1,0.459662216,1,,,,,,,,,,,,,,,,,,,,,,,,,,,,,,,,,,,,,,,,,,,,,,,,,,,,,,,,,,,,,,,,,,,,,,,,,,,,,,,,
,,620bde55a922fc3f247f6e52,2022-09-08_13h55.18.924,CGTgamblingSpanTasks,2022.2.1,Win32,29.99220203,,,,,,,,2.4772,,,,,,,,,,,,,,1,n,1.5228,8.512335864,0,3.4772,1,,,,,,10.05300841,0,8.512335864,,,,,,,,,,,,,0,61,61,74,1,0.040729225,0,,,,,,,,,,,,,,,,,,,,,,,,,,,,,,,,,,,,,,,,,,,,,,,,,,,,,,,,,,,,,,,,,,,,,,,,,,,,,,,,
,,620bde55a922fc3f247f6e52,2022-09-08_13h55.18.924,CGTgamblingSpanTasks,2022.2.1,Win32,29.99220203,,,,,,,,3.0569,,,,,,,,,,,,,,2,n,0.9431,27.39221343,1,4.5569,1.5,,,,,,27.39221343,0,2.743407746,,,,,,,,,,,,,0,62,62,47,1,0.49752044,1,,,,,,,,,,,,,,,,,,,,,,,,,,,,,,,,,,,,,,,,,,,,,,,,,,,,,,,,,,,,,,,,,,,,,,,,,,,,,,,,
,,620bde55a922fc3f247f6e52,2022-09-08_13h55.18.924,CGTgamblingSpanTasks,2022.2.1,Win32,29.99220203,,,,,,,,3.0085,,,,,,,,,,,,,,1,v,0.9915,27.77179191,1,4.0085,1,,,,,,27.77179191,0,0.074524436,,,,,,,,,,,,,0,63,63,99,1,0.910114387,0,,,,,,,,,,,,,,,,,,,,,,,,,,,,,,,,,,,,,,,,,,,,,,,,,,,,,,,,,,,,,,,,,,,,,,,,,,,,,,,,
,,620bde55a922fc3f247f6e52,2022-09-08_13h55.18.924,CGTgamblingSpanTasks,2022.2.1,Win32,29.99220203,,,,,,,,3.0047,,,,,,,,,,,,,,2,n,0.9953,25.21882231,1,4.5047,1.5,,,,,,25.21882231,0,0.085746782,,,,,,,,,,,,,0,64,64,64,1,0.90272076,0,,,,,,,,,,,,,,,,,,,,,,,,,,,,,,,,,,,,,,,,,,,,,,,,,,,,,,,,,,,,,,,,,,,,,,,,,,,,,,,,
,,620bde55a922fc3f247f6e52,2022-09-08_13h55.18.924,CGTgamblingSpanTasks,2022.2.1,Win32,29.99220203,,,,,,,,3.0534,,,,,,,,,,,,,,1,v,0.9466,27.94544945,1,4.0534,1,,,,,,27.94544945,0,2.32030209,,,,,,,,,,,,,0,65,65,115,1,0.545390564,1,,,,,,,,,,,,,,,,,,,,,,,,,,,,,,,,,,,,,,,,,,,,,,,,,,,,,,,,,,,,,,,,,,,,,,,,,,,,,,,,
,,620bde55a922fc3f247f6e52,2022-09-08_13h55.18.924,CGTgamblingSpanTasks,2022.2.1,Win32,29.99220203,,,,,,,,1.8703,,,,,,,,,,,,,,1,v,2.1297,0,1,3.3703,1.5,,,,,,18.20422443,0,1.635040165,,,,,,,,,,,,,0,66,66,82,1,0.525708991,1,,,,,,,,,,,,,,,,,,,,,,,,,,,,,,,,,,,,,,,,,,,,,,,,,,,,,,,,,,,,,,,,,,,,,,,,,,,,,,,,
,,620bde55a922fc3f247f6e52,2022-09-08_13h55.18.924,CGTgamblingSpanTasks,2022.2.1,Win32,29.99220203,,,,,,,,2.142,,,,,,,,,,,,,,2,v,1.858,11.42134125,0,3.642,1.5,,,,,,12.9904115,0,11.42134125,,,,,,,,,,,,,0,67,67,118,1,0.037876033,0,,,,,,,,,,,,,,,,,,,,,,,,,,,,,,,,,,,,,,,,,,,,,,,,,,,,,,,,,,,,,,,,,,,,,,,,,,,,,,,,
,,620bde55a922fc3f247f6e52,2022-09-08_13h55.18.924,CGTgamblingSpanTasks,2022.2.1,Win32,29.99220203,,,,,,,,0,,,,,,,,,,,,,,2,,,,,1.5,1.5,,,,,,21.03408097,0,2.208275162,,,,,,,,,,,,,0,68,68,0,1,0.485031246,1,,,,,,,,,,,,,,,,,,,,,,,,,,,,,,,,,,,,,,,,,,,,,,,,,,,,,,,,,,,,,,,,,,,,,,,,,,,,,,,,
,,620bde55a922fc3f247f6e52,2022-09-08_13h55.18.924,CGTgamblingSpanTasks,2022.2.1,Win32,29.99220203,,,,,,,,2.8109,,,,,,,,,,,,,,1,n,1.1891,11.93550497,0,4.3109,1.5,,,,,,14.20587264,0,11.93550497,,,,,,,,,,,,,0,69,69,21,1,0.041340301,0,,,,,,,,,,,,,,,,,,,,,,,,,,,,,,,,,,,,,,,,,,,,,,,,,,,,,,,,,,,,,,,,,,,,,,,,,,,,,,,,
,,620bde55a922fc3f247f6e52,2022-09-08_13h55.18.924,CGTgamblingSpanTasks,2022.2.1,Win32,29.99220203,,,,,,,,3.0547,,,,,,,,,,,,,,2,n,0.9453,0,1,4.0547,1,,,,,,18.51345298,0,1.932334278,,,,,,,,,,,,,0,70,70,31,1,0.48658696,1,,,,,,,,,,,,,,,,,,,,,,,,,,,,,,,,,,,,,,,,,,,,,,,,,,,,,,,,,,,,,,,,,,,,,,,,,,,,,,,,
,,620bde55a922fc3f247f6e52,2022-09-08_13h55.18.924,CGTgamblingSpanTasks,2022.2.1,Win32,29.99220203,,,,,,,,2.9519,,,,,,,,,,,,,,1,n,1.0481,6.091504705,0,4.4519,1.5,,,,,,6.662965216,0,6.091504705,,,,,,,,,,,,,0,71,71,102,1,0.035087099,0,,,,,,,,,,,,,,,,,,,,,,,,,,,,,,,,,,,,,,,,,,,,,,,,,,,,,,,,,,,,,,,,,,,,,,,,,,,,,,,,
,,620bde55a922fc3f247f6e52,2022-09-08_13h55.18.924,CGTgamblingSpanTasks,2022.2.1,Win32,29.99220203,,,,,,,,3.0422,,,,,,,,,,,,,,1,v,0.9578,25.76582409,1,4.5422,1.5,,,,,,25.76582409,0,2.393193076,,,,,,,,,,,,,0,72,72,46,1,0.517129855,1,,,,,,,,,,,,,,,,,,,,,,,,,,,,,,,,,,,,,,,,,,,,,,,,,,,,,,,,,,,,,,,,,,,,,,,,,,,,,,,,
,,620bde55a922fc3f247f6e52,2022-09-08_13h55.18.924,CGTgamblingSpanTasks,2022.2.1,Win32,29.99220203,,,,,,,,2.2473,,,,,,,,,,,,,,2,n,1.7527,0,1,3.7473,1.5,,,,,,22.0050376,0,2.257683666,,,,,,,,,,,,,0,73,73,4,1,0.491147312,1,,,,,,,,,,,,,,,,,,,,,,,,,,,,,,,,,,,,,,,,,,,,,,,,,,,,,,,,,,,,,,,,,,,,,,,,,,,,,,,,
,,620bde55a922fc3f247f6e52,2022-09-08_13h55.18.924,CGTgamblingSpanTasks,2022.2.1,Win32,29.99220203,,,,,,,,2.0217,,,,,,,,,,,,,,1,n,1.9783,11.41737518,0,3.5217,1.5,,,,,,18.11029021,0,11.41737518,,,,,,,,,,,,,0,74,74,48,1,0.069445859,0,,,,,,,,,,,,,,,,,,,,,,,,,,,,,,,,,,,,,,,,,,,,,,,,,,,,,,,,,,,,,,,,,,,,,,,,,,,,,,,,
,,620bde55a922fc3f247f6e52,2022-09-08_13h55.18.924,CGTgamblingSpanTasks,2022.2.1,Win32,29.99220203,,,,,,,,2.9047,,,,,,,,,,,,,,2,n,1.0953,0,1,3.9047,1,,,,,,21.7711579,0,2.502728921,,,,,,,,,,,,,0,75,75,101,1,0.460552621,1,,,,,,,,,,,,,,,,,,,,,,,,,,,,,,,,,,,,,,,,,,,,,,,,,,,,,,,,,,,,,,,,,,,,,,,,,,,,,,,,
,,620bde55a922fc3f247f6e52,2022-09-08_13h55.18.924,CGTgamblingSpanTasks,2022.2.1,Win32,29.99220203,,,,,,,,3.0068,,,,,,,,,,,,,,1,v,0.9932,13.96521039,1,4.5068,1.5,,,,,,13.96521039,0,1.591282699,,,,,,,,,,,,,0,76,76,49,1,0.462956344,1,,,,,,,,,,,,,,,,,,,,,,,,,,,,,,,,,,,,,,,,,,,,,,,,,,,,,,,,,,,,,,,,,,,,,,,,,,,,,,,,
,,620bde55a922fc3f247f6e52,2022-09-08_13h55.18.924,CGTgamblingSpanTasks,2022.2.1,Win32,29.99220203,,,,,,,,3.1344,,,,,,,,,,,,,,2,v,0.8656,10.68505773,0,4.1344,1,,,,,,17.64114152,0,10.68505773,,,,,,,,,,,,,0,77,77,98,1,0.074299362,0,,,,,,,,,,,,,,,,,,,,,,,,,,,,,,,,,,,,,,,,,,,,,,,,,,,,,,,,,,,,,,,,,,,,,,,,,,,,,,,,
,,620bde55a922fc3f247f6e52,2022-09-08_13h55.18.924,CGTgamblingSpanTasks,2022.2.1,Win32,29.99220203,,,,,,,,2.8996,,,,,,,,,,,,,,1,n,1.1004,11.6744431,0,3.8996,1,,,,,,10.43004651,0,11.6744431,,,,,,,,,,,,,0,78,78,15,1,0.026176489,0,,,,,,,,,,,,,,,,,,,,,,,,,,,,,,,,,,,,,,,,,,,,,,,,,,,,,,,,,,,,,,,,,,,,,,,,,,,,,,,,
,,620bde55a922fc3f247f6e52,2022-09-08_13h55.18.924,CGTgamblingSpanTasks,2022.2.1,Win32,29.99220203,,,,,,,,2.9362,,,,,,,,,,,,,,1,v,1.0638,27.38828234,1,4.4362,1.5,,,,,,27.38828234,0,0.0639233,,,,,,,,,,,,,0,79,79,43,1,0.914010176,0,,,,,,,,,,,,,,,,,,,,,,,,,,,,,,,,,,,,,,,,,,,,,,,,,,,,,,,,,,,,,,,,,,,,,,,,,,,,,,,,
,,620bde55a922fc3f247f6e52,2022-09-08_13h55.18.924,CGTgamblingSpanTasks,2022.2.1,Win32,29.99220203,,,,,,,,2.2109,,,,,,,,,,,,,,2,v,1.7891,9.936178001,0,3.2109,1,,,,,,19.58698544,0,9.936178001,,,,,,,,,,,,,0,80,80,77,1,0.098812204,0,,,,,,,,,,,,,,,,,,,,,,,,,,,,,,,,,,,,,,,,,,,,,,,,,,,,,,,,,,,,,,,,,,,,,,,,,,,,,,,,
,,620bde55a922fc3f247f6e52,2022-09-08_13h55.18.924,CGTgamblingSpanTasks,2022.2.1,Win32,29.99220203,,,,,,,,3.178,,,,,,,,,,,,,,2,n,0.822,26.36733703,1,4.178,1,,,,,,26.36733703,0,2.201057101,,,,,,,,,,,,,0,81,81,90,1,0.544064207,1,,,,,,,,,,,,,,,,,,,,,,,,,,,,,,,,,,,,,,,,,,,,,,,,,,,,,,,,,,,,,,,,,,,,,,,,,,,,,,,,
,,620bde55a922fc3f247f6e52,2022-09-08_13h55.18.924,CGTgamblingSpanTasks,2022.2.1,Win32,29.99220203,,,,,,,,2.8656,,,,,,,,,,,,,,2,v,1.1344,4.462262453,0,3.8656,1,,,,,,0.192759042,0,4.462262453,,,,,,,,,,,,,0,82,82,52,1,0.003553223,0,,,,,,,,,,,,,,,,,,,,,,,,,,,,,,,,,,,,,,,,,,,,,,,,,,,,,,,,,,,,,,,,,,,,,,,,,,,,,,,,
,,620bde55a922fc3f247f6e52,2022-09-08_13h55.18.924,CGTgamblingSpanTasks,2022.2.1,Win32,29.99220203,,,,,,,,2.7691,,,,,,,,,,,,,,1,v,1.2309,0,1,4.2691,1.5,,,,,,9.012590634,0,1.002188111,,,,,,,,,,,,,0,83,83,12,1,0.46958041,1,,,,,,,,,,,,,,,,,,,,,,,,,,,,,,,,,,,,,,,,,,,,,,,,,,,,,,,,,,,,,,,,,,,,,,,,,,,,,,,,
,,620bde55a922fc3f247f6e52,2022-09-08_13h55.18.924,CGTgamblingSpanTasks,2022.2.1,Win32,29.99220203,,,,,,,,3.0517,,,,,,,,,,,,,,2,n,0.9483,29.30724159,1,4.0517,1,,,,,,29.30724159,0,3.247012935,,,,,,,,,,,,,0,84,84,71,1,0.470571125,1,,,,,,,,,,,,,,,,,,,,,,,,,,,,,,,,,,,,,,,,,,,,,,,,,,,,,,,,,,,,,,,,,,,,,,,,,,,,,,,,
,,620bde55a922fc3f247f6e52,2022-09-08_13h55.18.924,CGTgamblingSpanTasks,2022.2.1,Win32,29.99220203,,,,,,,,2.9652,,,,,,,,,,,,,,1,v,1.0348,0,1,4.4652,1.5,,,,,,26.16821818,0,0.093528069,,,,,,,,,,,,,0,85,85,42,1,0.901022427,0,,,,,,,,,,,,,,,,,,,,,,,,,,,,,,,,,,,,,,,,,,,,,,,,,,,,,,,,,,,,,,,,,,,,,,,,,,,,,,,,
,,620bde55a922fc3f247f6e52,2022-09-08_13h55.18.924,CGTgamblingSpanTasks,2022.2.1,Win32,29.99220203,,,,,,,,3.0413,,,,,,,,,,,,,,1,v,0.9587,0,1,4.0413,1,,,,,,21.48443242,0,2.229247341,,,,,,,,,,,,,0,86,86,63,1,0.488155912,1,,,,,,,,,,,,,,,,,,,,,,,,,,,,,,,,,,,,,,,,,,,,,,,,,,,,,,,,,,,,,,,,,,,,,,,,,,,,,,,,
,,620bde55a922fc3f247f6e52,2022-09-08_13h55.18.924,CGTgamblingSpanTasks,2022.2.1,Win32,29.99220203,,,,,,,,2.3911,,,,,,,,,,,,,,1,n,1.6089,6.833409611,0,3.3911,1,,,,,,6.325091157,0,6.833409611,,,,,,,,,,,,,0,87,87,58,1,0.027113638,0,,,,,,,,,,,,,,,,,,,,,,,,,,,,,,,,,,,,,,,,,,,,,,,,,,,,,,,,,,,,,,,,,,,,,,,,,,,,,,,,
,,620bde55a922fc3f247f6e52,2022-09-08_13h55.18.924,CGTgamblingSpanTasks,2022.2.1,Win32,29.99220203,,,,,,,,2.5918,,,,,,,,,,,,,,2,n,1.4082,26.11188619,1,4.0918,1.5,,,,,,26.11188619,0,0.081942421,,,,,,,,,,,,,0,88,88,105,1,0.905343856,0,,,,,,,,,,,,,,,,,,,,,,,,,,,,,,,,,,,,,,,,,,,,,,,,,,,,,,,,,,,,,,,,,,,,,,,,,,,,,,,,
,,620bde55a922fc3f247f6e52,2022-09-08_13h55.18.924,CGTgamblingSpanTasks,2022.2.1,Win32,29.99220203,,,,,,,,2.9189,,,,,,,,,,,,,,2,n,1.0811,0,1,3.9189,1,,,,,,24.35708027,0,2.738695417,,,,,,,,,,,,,0,89,89,114,1,0.466573634,1,,,,,,,,,,,,,,,,,,,,,,,,,,,,,,,,,,,,,,,,,,,,,,,,,,,,,,,,,,,,,,,,,,,,,,,,,,,,,,,,
,,620bde55a922fc3f247f6e52,2022-09-08_13h55.18.924,CGTgamblingSpanTasks,2022.2.1,Win32,29.99220203,,,,,,,,2.9672,,,,,,,,,,,,,,1,v,1.0328,0,1,3.9672,1,,,,,,28.13634754,0,2.532806323,,,,,,,,,,,,,0,90,90,28,1,0.525136524,1,,,,,,,,,,,,,,,,,,,,,,,,,,,,,,,,,,,,,,,,,,,,,,,,,,,,,,,,,,,,,,,,,,,,,,,,,,,,,,,,
,,620bde55a922fc3f247f6e52,2022-09-08_13h55.18.924,CGTgamblingSpanTasks,2022.2.1,Win32,29.99220203,,,,,,,,3.2436,,,,,,,,,,,,,,2,n,0.7564,21.2188881,1,4.7436,1.5,,,,,,21.2188881,0,2.067660742,,,,,,,,,,,,,0,91,91,107,1,0.50470775,1,,,,,,,,,,,,,,,,,,,,,,,,,,,,,,,,,,,,,,,,,,,,,,,,,,,,,,,,,,,,,,,,,,,,,,,,,,,,,,,,
,,620bde55a922fc3f247f6e52,2022-09-08_13h55.18.924,CGTgamblingSpanTasks,2022.2.1,Win32,29.99220203,,,,,,,,3.0288,,,,,,,,,,,,,,1,v,0.9712,0,1,4.0288,1,,,,,,20.5726842,0,0.073558523,,,,,,,,,,,,,0,92,92,26,1,0.901008565,0,,,,,,,,,,,,,,,,,,,,,,,,,,,,,,,,,,,,,,,,,,,,,,,,,,,,,,,,,,,,,,,,,,,,,,,,,,,,,,,,
,,620bde55a922fc3f247f6e52,2022-09-08_13h55.18.924,CGTgamblingSpanTasks,2022.2.1,Win32,29.99220203,,,,,,,,3.1016,,,,,,,,,,,,,,2,n,0.8984,0,1,4.1016,1,,,,,,7.066129113,0,0.585581699,,,,,,,,,,,,,0,93,93,19,1,0.545860632,1,,,,,,,,,,,,,,,,,,,,,,,,,,,,,,,,,,,,,,,,,,,,,,,,,,,,,,,,,,,,,,,,,,,,,,,,,,,,,,,,
,,620bde55a922fc3f247f6e52,2022-09-08_13h55.18.924,CGTgamblingSpanTasks,2022.2.1,Win32,29.99220203,,,,,,,,2.782,,,,,,,,,,,,,,1,v,1.218,0,1,3.782,1,,,,,,24.8002852,0,0.071848086,,,,,,,,,,,,,0,94,94,16,1,0.90783559,0,,,,,,,,,,,,,,,,,,,,,,,,,,,,,,,,,,,,,,,,,,,,,,,,,,,,,,,,,,,,,,,,,,,,,,,,,,,,,,,,
,,620bde55a922fc3f247f6e52,2022-09-08_13h55.18.924,CGTgamblingSpanTasks,2022.2.1,Win32,29.99220203,,,,,,,,3.1047,,,,,,,,,,,,,,2,n,0.8953,0,1,4.1047,1,,,,,,27.12325385,0,0.080932047,,,,,,,,,,,,,0,95,95,14,1,0.906929184,0,,,,,,,,,,,,,,,,,,,,,,,,,,,,,,,,,,,,,,,,,,,,,,,,,,,,,,,,,,,,,,,,,,,,,,,,,,,,,,,,
,,620bde55a922fc3f247f6e52,2022-09-08_13h55.18.924,CGTgamblingSpanTasks,2022.2.1,Win32,29.99220203,,,,,,,,3.1467,,,,,,,,,,,,,,1,v,0.8533,13.84410806,1,4.6467,1.5,,,,,,13.84410806,0,1.535873964,,,,,,,,,,,,,0,96,96,88,1,0.470209002,1,,,,,,,,,,,,,,,,,,,,,,,,,,,,,,,,,,,,,,,,,,,,,,,,,,,,,,,,,,,,,,,,,,,,,,,,,,,,,,,,
,,620bde55a922fc3f247f6e52,2022-09-08_13h55.18.924,CGTgamblingSpanTasks,2022.2.1,Win32,29.99220203,,,,,,,,3.0053,,,,,,,,,,,,,,2,n,0.9947,0,1,4.5053,1.5,,,,,,22.86604061,0,2.293289792,,,,,,,,,,,,,0,97,97,51,1,0.49715382,1,,,,,,,,,,,,,,,,,,,,,,,,,,,,,,,,,,,,,,,,,,,,,,,,,,,,,,,,,,,,,,,,,,,,,,,,,,,,,,,,
,,620bde55a922fc3f247f6e52,2022-09-08_13h55.18.924,CGTgamblingSpanTasks,2022.2.1,Win32,29.99220203,,,,,,,,3.0544,,,,,,,,,,,,,,2,n,0.9456,21.39646914,1,4.0544,1,,,,,,21.39646914,0,0.072474078,,,,,,,,,,,,,0,98,98,3,1,0.902848133,0,,,,,,,,,,,,,,,,,,,,,,,,,,,,,,,,,,,,,,,,,,,,,,,,,,,,,,,,,,,,,,,,,,,,,,,,,,,,,,,,
,,620bde55a922fc3f247f6e52,2022-09-08_13h55.18.924,CGTgamblingSpanTasks,2022.2.1,Win32,29.99220203,,,,,,,,3.1428,,,,,,,,,,,,,,1,v,0.8572,26.4985979,1,4.1428,1,,,,,,26.4985979,0,0.051324376,,,,,,,,,,,,,0,99,99,106,1,0.918747215,0,,,,,,,,,,,,,,,,,,,,,,,,,,,,,,,,,,,,,,,,,,,,,,,,,,,,,,,,,,,,,,,,,,,,,,,,,,,,,,,,
,,620bde55a922fc3f247f6e52,2022-09-08_13h55.18.924,CGTgamblingSpanTasks,2022.2.1,Win32,29.99220203,,,,,,,,3.0609,,,,,,,,,,,,,,2,n,0.9391,0,1,4.0609,1,,,,,,27.57491653,0,2.99133314,,,,,,,,,,,,,0,100,100,10,1,0.47625893,1,,,,,,,,,,,,,,,,,,,,,,,,,,,,,,,,,,,,,,,,,,,,,,,,,,,,,,,,,,,,,,,,,,,,,,,,,,,,,,,,
,,620bde55a922fc3f247f6e52,2022-09-08_13h55.18.924,CGTgamblingSpanTasks,2022.2.1,Win32,29.99220203,,,,,,,,3.054,,,,,,,,,,,,,,1,v,0.946,0,1,4.554,1.5,,,,,,27.88092897,0,2.771762788,,,,,,,,,,,,,0,101,101,117,1,0.499466648,1,,,,,,,,,,,,,,,,,,,,,,,,,,,,,,,,,,,,,,,,,,,,,,,,,,,,,,,,,,,,,,,,,,,,,,,,,,,,,,,,
,,620bde55a922fc3f247f6e52,2022-09-08_13h55.18.924,CGTgamblingSpanTasks,2022.2.1,Win32,29.99220203,,,,,,,,2.8241,,,,,,,,,,,,,,2,n,1.1759,0,1,3.8241,1,,,,,,27.60724521,0,0.088432325,,,,,,,,,,,,,0,102,102,17,1,0.904684186,0,,,,,,,,,,,,,,,,,,,,,,,,,,,,,,,,,,,,,,,,,,,,,,,,,,,,,,,,,,,,,,,,,,,,,,,,,,,,,,,,
,,620bde55a922fc3f247f6e52,2022-09-08_13h55.18.924,CGTgamblingSpanTasks,2022.2.1,Win32,29.99220203,,,,,,,,3.2738,,,,,,,,,,,,,,2,n,0.7262,21.46599803,1,4.2738,1,,,,,,21.46599803,0,0.059789256,,,,,,,,,,,,,0,103,103,8,1,0.909019081,0,,,,,,,,,,,,,,,,,,,,,,,,,,,,,,,,,,,,,,,,,,,,,,,,,,,,,,,,,,,,,,,,,,,,,,,,,,,,,,,,
,,620bde55a922fc3f247f6e52,2022-09-08_13h55.18.924,CGTgamblingSpanTasks,2022.2.1,Win32,29.99220203,,,,,,,,3.0666,,,,,,,,,,,,,,1,v,0.9334,24.479109,1,4.0666,1,,,,,,24.479109,0,0.089582697,,,,,,,,,,,,,0,104,104,89,1,0.900200232,0,,,,,,,,,,,,,,,,,,,,,,,,,,,,,,,,,,,,,,,,,,,,,,,,,,,,,,,,,,,,,,,,,,,,,,,,,,,,,,,,
,,620bde55a922fc3f247f6e52,2022-09-08_13h55.18.924,CGTgamblingSpanTasks,2022.2.1,Win32,29.99220203,,,,,,,,2.8661,,,,,,,,,,,,,,1,v,1.1339,23.4214135,1,3.8661,1,,,,,,23.4214135,0,2.485985001,,,,,,,,,,,,,0,105,105,81,1,0.482105905,1,,,,,,,,,,,,,,,,,,,,,,,,,,,,,,,,,,,,,,,,,,,,,,,,,,,,,,,,,,,,,,,,,,,,,,,,,,,,,,,,
,,620bde55a922fc3f247f6e52,2022-09-08_13h55.18.924,CGTgamblingSpanTasks,2022.2.1,Win32,29.99220203,,,,,,,,2.8232,,,,,,,,,,,,,,1,v,1.1768,0,1,4.3232,1.5,,,,,,24.66627941,0,2.765426402,,,,,,,,,,,,,0,106,106,24,1,0.467360588,1,,,,,,,,,,,,,,,,,,,,,,,,,,,,,,,,,,,,,,,,,,,,,,,,,,,,,,,,,,,,,,,,,,,,,,,,,,,,,,,,
,,620bde55a922fc3f247f6e52,2022-09-08_13h55.18.924,CGTgamblingSpanTasks,2022.2.1,Win32,29.99220203,,,,,,,,3.1477,,,,,,,,,,,,,,2,n,0.8523,23.59556381,1,4.6477,1.5,,,,,,23.59556381,0,2.464662219,,,,,,,,,,,,,0,107,107,22,1,0.486383205,1,,,,,,,,,,,,,,,,,,,,,,,,,,,,,,,,,,,,,,,,,,,,,,,,,,,,,,,,,,,,,,,,,,,,,,,,,,,,,,,,
,,620bde55a922fc3f247f6e52,2022-09-08_13h55.18.924,CGTgamblingSpanTasks,2022.2.1,Win32,29.99220203,,,,,,,,2.7648,,,,,,,,,,,,,,1,v,1.2352,27.4965044,1,4.2648,1.5,,,,,,27.4965044,0,2.461467004,,,,,,,,,,,,,0,108,108,36,1,0.526550878,1,,,,,,,,,,,,,,,,,,,,,,,,,,,,,,,,,,,,,,,,,,,,,,,,,,,,,,,,,,,,,,,,,,,,,,,,,,,,,,,,
,,620bde55a922fc3f247f6e52,2022-09-08_13h55.18.924,CGTgamblingSpanTasks,2022.2.1,Win32,29.99220203,,,,,,,,3.0451,,,,,,,,,,,,,,1,n,0.9549,0.747140182,0,4.0451,1,,,,,,7.534278541,0,0.747140182,,,,,,,,,,,,,0,109,109,37,1,0.50012466,1,,,,,,,,,,,,,,,,,,,,,,,,,,,,,,,,,,,,,,,,,,,,,,,,,,,,,,,,,,,,,,,,,,,,,,,,,,,,,,,,
,,620bde55a922fc3f247f6e52,2022-09-08_13h55.18.924,CGTgamblingSpanTasks,2022.2.1,Win32,29.99220203,,,,,,,,2.9667,,,,,,,,,,,,,,2,n,1.0333,25.0707644,1,4.4667,1.5,,,,,,25.0707644,0,0.067651625,,,,,,,,,,,,,0,110,110,70,1,0.909952349,0,,,,,,,,,,,,,,,,,,,,,,,,,,,,,,,,,,,,,,,,,,,,,,,,,,,,,,,,,,,,,,,,,,,,,,,,,,,,,,,,
,,620bde55a922fc3f247f6e52,2022-09-08_13h55.18.924,CGTgamblingSpanTasks,2022.2.1,Win32,29.99220203,,,,,,,,2.7701,,,,,,,,,,,,,,1,v,1.2299,0,1,3.7701,1,,,,,,25.26994993,0,2.78925142,,,,,,,,,,,,,0,111,111,108,1,0.471582922,1,,,,,,,,,,,,,,,,,,,,,,,,,,,,,,,,,,,,,,,,,,,,,,,,,,,,,,,,,,,,,,,,,,,,,,,,,,,,,,,,
,,620bde55a922fc3f247f6e52,2022-09-08_13h55.18.924,CGTgamblingSpanTasks,2022.2.1,Win32,29.99220203,,,,,,,,2.8134,,,,,,,,,,,,,,1,v,1.1866,0,1,3.8134,1,,,,,,29.76099779,0,0.095763086,,,,,,,,,,,,,0,112,112,35,1,0.904537896,0,,,,,,,,,,,,,,,,,,,,,,,,,,,,,,,,,,,,,,,,,,,,,,,,,,,,,,,,,,,,,,,,,,,,,,,,,,,,,,,,
,,620bde55a922fc3f247f6e52,2022-09-08_13h55.18.924,CGTgamblingSpanTasks,2022.2.1,Win32,29.99220203,,,,,,,,2.8894,,,,,,,,,,,,,,1,v,1.1106,0,1,4.3894,1.5,,,,,,21.17800335,0,0.059830985,,,,,,,,,,,,,0,113,113,67,1,0.908594974,0,,,,,,,,,,,,,,,,,,,,,,,,,,,,,,,,,,,,,,,,,,,,,,,,,,,,,,,,,,,,,,,,,,,,,,,,,,,,,,,,
,,620bde55a922fc3f247f6e52,2022-09-08_13h55.18.924,CGTgamblingSpanTasks,2022.2.1,Win32,29.99220203,,,,,,,,3.0071,,,,,,,,,,,,,,1,v,0.9929,22.62475578,1,4.0071,1,,,,,,22.62475578,0,2.397643354,,,,,,,,,,,,,0,114,114,93,1,0.482527609,1,,,,,,,,,,,,,,,,,,,,,,,,,,,,,,,,,,,,,,,,,,,,,,,,,,,,,,,,,,,,,,,,,,,,,,,,,,,,,,,,
,,620bde55a922fc3f247f6e52,2022-09-08_13h55.18.924,CGTgamblingSpanTasks,2022.2.1,Win32,29.99220203,,,,,,,,2.8228,,,,,,,,,,,,,,2,n,1.1772,21.00799273,1,3.8228,1,,,,,,21.00799273,0,0.067969053,,,,,,,,,,,,,0,115,115,92,1,0.904360262,0,,,,,,,,,,,,,,,,,,,,,,,,,,,,,,,,,,,,,,,,,,,,,,,,,,,,,,,,,,,,,,,,,,,,,,,,,,,,,,,,
,,620bde55a922fc3f247f6e52,2022-09-08_13h55.18.924,CGTgamblingSpanTasks,2022.2.1,Win32,29.99220203,,,,,,,,2.8667,,,,,,,,,,,,,,1,v,1.1333,27.2532142,1,3.8667,1,,,,,,27.2532142,0,0.08089327,,,,,,,,,,,,,0,116,116,119,1,0.907091845,0,,,,,,,,,,,,,,,,,,,,,,,,,,,,,,,,,,,,,,,,,,,,,,,,,,,,,,,,,,,,,,,,,,,,,,,,,,,,,,,,
,,620bde55a922fc3f247f6e52,2022-09-08_13h55.18.924,CGTgamblingSpanTasks,2022.2.1,Win32,29.99220203,,,,,,,,2.9135,,,,,,,,,,,,,,1,v,1.0865,0,1,4.4135,1.5,,,,,,17.23907308,0,2.055848574,,,,,,,,,,,,,0,117,117,66,1,0.450504458,1,,,,,,,,,,,,,,,,,,,,,,,,,,,,,,,,,,,,,,,,,,,,,,,,,,,,,,,,,,,,,,,,,,,,,,,,,,,,,,,,
,,620bde55a922fc3f247f6e52,2022-09-08_13h55.18.924,CGTgamblingSpanTasks,2022.2.1,Win32,29.99220203,,,,,,,,2.2515,,,,,,,,,,,,,,1,v,1.7485,9.725876653,1,3.7515,1.5,,,,,,9.725876653,0,5.526483034,,,,,,,,,,,,,0,118,118,44,1,0.082550696,0,,,,,,,,,,,,,,,,,,,,,,,,,,,,,,,,,,,,,,,,,,,,,,,,,,,,,,,,,,,,,,,,,,,,,,,,,,,,,,,,
,,620bde55a922fc3f247f6e52,2022-09-08_13h55.18.924,CGTgamblingSpanTasks,2022.2.1,Win32,29.99220203,,,,,,,,3.2442,,,,,,,,,,,,,,2,n,0.7558,0,1,4.7442,1.5,,,,,,22.87092517,0,0.059276504,,,,,,,,,,,,,0,119,119,27,1,0.911114935,0,,,,,,,,,,,,,,,,,,,,,,,,,,,,,,,,,,,,,,,,,,,,,,,,,,,,,,,,,,,,,,,,,,,,,,,,,,,,,,,,
,,620bde55a922fc3f247f6e52,2022-09-08_13h55.18.924,CGTgamblingSpanTasks,2022.2.1,Win32,29.99220203,,,,,,,,,,,,,,,,,,,,,,,,,,,,,,,,,,,,,,,,,,,,,,,,,,,,,,,,return,990.7444,,,,,,,,,,,,,,,,,,,,,,,,,,,,,,,,,,,,,,,,,,,,,,,,,,,,,,,,,,,,,,,,,,,,,,,,,,,,,,
,,620bde55a922fc3f247f6e52,2022-09-08_13h55.18.924,CGTgamblingSpanTasks,2022.2.1,Win32,29.99220203,,,,,,,,,,,,,,,,,,,,,,,,,,,,,,,,,,,,,,,,,,,,,,,,,,,,,,,,,,return,85.4499,,,,,,,,,,,,,,,,,,,,,,,,,,,,,,,,,,,,,,,,,,,,,,,,,,,,,,,,,,,,,,,,,,,,,,,,,,,,
,,620bde55a922fc3f247f6e52,2022-09-08_13h55.18.924,CGTgamblingSpanTasks,2022.2.1,Win32,29.99220203,,,,,,,,,,,,,,,,,,,,,,,,,,,,,,,,,,,,,,,,,,,,,,,,,,,,,,,,,,,,return,14.6209,,,,,,,,,,,,,,,,,,,,,,,,,,,,,,,,,,,,,,,,,,,,,,,,,,,,,,,,,,,,,,,,,,,,,,,,,,
,,620bde55a922fc3f247f6e52,2022-09-08_13h55.18.924,CGTgamblingSpanTasks,2022.2.1,Win32,29.99220203,,,,,,,,,,,,,,,,,,,,,,,,,,,,,,,,,,,,,,,,,,,,,,,,,,,,,,,,,,,,,,342,1,0.061633282,-0.410631741,1,0,0,cont_buttonPractice,0,0,0,0,1,3,342,24,2,42,,,,,,,,,,,,,,,,,,,,,,,,,,,,,,,,,,,,,,,,,,,,,,,,,,,,,,,,
,,620bde55a922fc3f247f6e52,2022-09-08_13h55.18.924,CGTgamblingSpanTasks,2022.2.1,Win32,29.99220203,,,,,,,,,,,,,,,,,,,,,,,,,,,,,,,,,,,,,,,,,,,,,,,,,,,,,,,,,,,,,,937,1,0.05238829,-0.385978428,1,0,0,cont_buttonPractice,0,1,1,1,1,3,937,73,2,37,,,,,,,,,,,,,,,,,,,,,,,,,,,,,,,,,,,,,,,,,,,,,,,,,,,,,,,,
,,620bde55a922fc3f247f6e52,2022-09-08_13h55.18.924,CGTgamblingSpanTasks,2022.2.1,Win32,29.99220203,,,,,,,,,,,,,,,,,,,,,,,,,,,,,,,,,,,,,,,,,,,,,,,,,,,,,,,,,,,,,,,,,,,,,,,,,,,,,,,,return,10.1503,,,,,,,,,,,,,,,,,,,,,,,,,,,,,,,,,,,,,,,,,,,,,,,,,,,,,,
,,620bde55a922fc3f247f6e52,2022-09-08_13h55.18.924,CGTgamblingSpanTasks,2022.2.1,Win32,29.99220203,,,,,,,,,,,,,,,,,,,,,,,,,,,,,,,,,,,,,,,,,,,,,,,,,,,,,,,,,,,,,,,,,,,,,,,,,,,,,,,,,,"[4,9,5]",0,0,0,0,1,,,,,,,,,,,,,,,,,,,,,,,,,,,,,,,,,,,,,,,,,,,,,,,,
,,620bde55a922fc3f247f6e52,2022-09-08_13h55.18.924,CGTgamblingSpanTasks,2022.2.1,Win32,29.99220203,,,,,,,,,,,,,,,,,,,,,,,,,,,,,,,,,,,,,,,,,,,,,,,,,,,,,,,,,,,,,,,,,,,,,,,,,,,,,,,,,,"[4,9,5]",1,0,1,0,1,,,,,,,,,,,,,,,,,,,,,,,,,,,,,,,,,,,,,,,,,,,,,,,,
,,620bde55a922fc3f247f6e52,2022-09-08_13h55.18.924,CGTgamblingSpanTasks,2022.2.1,Win32,29.99220203,,,,,,,,,,,,,,,,,,,,,,,,,,,,,,,,,,,,,,,,,,,,,,,,,,,,,,,,,,,,,,,,,,,,,,,,,,,,,,,,,,"[4,9,5]",2,0,2,0,1,,,,,,,,,,,,,,,,,,,,,,,,,,,,,,,,,,,,,,,,,,,,,,,,
,,620bde55a922fc3f247f6e52,2022-09-08_13h55.18.924,CGTgamblingSpanTasks,2022.2.1,Win32,29.99220203,,,,,,,,,,,,,,,,,,,,,,,,,,,,,,,,,,,,,,,,,,,,,,,,,,,,,,,,,,,,,,,1,,,,,,,,,,,,,,,,,,,,,,,,,495,0.038520801,-0.407550077,1,0,0,cont_button,0,0,0,0,1,1,,,,,,,,,,,,,,,,,,,,,,,,,,,,,,,,,,,
,,620bde55a922fc3f247f6e52,2022-09-08_13h55.18.924,CGTgamblingSpanTasks,2022.2.1,Win32,29.99220203,,,,,,,,,,,,,,,,,,,,,,,,,,,,,,,,,,,,,,,,,,,,,,,,,,,,,,,,,,,,,,,,,,,,,,,,,,,,,,,,,,"[2,1,6,5]",0,0,0,0,1,,,,,,,,,,,,,,,,,,,,,,,,,,,,,,,,,,,,,,,,,,,,,,,,
,,620bde55a922fc3f247f6e52,2022-09-08_13h55.18.924,CGTgamblingSpanTasks,2022.2.1,Win32,29.99220203,,,,,,,,,,,,,,,,,,,,,,,,,,,,,,,,,,,,,,,,,,,,,,,,,,,,,,,,,,,,,,,,,,,,,,,,,,,,,,,,,,"[2,1,6,5]",1,0,1,0,1,,,,,,,,,,,,,,,,,,,,,,,,,,,,,,,,,,,,,,,,,,,,,,,,
,,620bde55a922fc3f247f6e52,2022-09-08_13h55.18.924,CGTgamblingSpanTasks,2022.2.1,Win32,29.99220203,,,,,,,,,,,,,,,,,,,,,,,,,,,,,,,,,,,,,,,,,,,,,,,,,,,,,,,,,,,,,,,,,,,,,,,,,,,,,,,,,,"[2,1,6,5]",2,0,2,0,1,,,,,,,,,,,,,,,,,,,,,,,,,,,,,,,,,,,,,,,,,,,,,,,,
,,620bde55a922fc3f247f6e52,2022-09-08_13h55.18.924,CGTgamblingSpanTasks,2022.2.1,Win32,29.99220203,,,,,,,,,,,,,,,,,,,,,,,,,,,,,,,,,,,,,,,,,,,,,,,,,,,,,,,,,,,,,,,,,,,,,,,,,,,,,,,,,,"[2,1,6,5]",3,0,3,0,1,,,,,,,,,,,,,,,,,,,,,,,,,,,,,,,,,,,,,,,,,,,,,,,,
,,620bde55a922fc3f247f6e52,2022-09-08_13h55.18.924,CGTgamblingSpanTasks,2022.2.1,Win32,29.99220203,,,,,,,,,,,,,,,,,,,,,,,,,,,,,,,,,,,,,,,,,,,,,,,,,,,,,,,,,,,,,,,1,,,,,,,,,,,,,,,,,,,,,,,,,2165,0.021571649,-0.375192604,1,0,0,cont_button,0,1,1,1,1,2,,,,,,,,,,,,,,,,,,,,,,,,,,,,,,,,,,,
,,620bde55a922fc3f247f6e52,2022-09-08_13h55.18.924,CGTgamblingSpanTasks,2022.2.1,Win32,29.99220203,,,,,,,,,,,,,,,,,,,,,,,,,,,,,,,,,,,,,,,,,,,,,,,,,,,,,,,,,,,,,,,,,,,,,,,,,,,,,,,,,,"[9,3,7,5,6]",0,0,0,0,1,,,,,,,,,,,,,,,,,,,,,,,,,,,,,,,,,,,,,,,,,,,,,,,,
,,620bde55a922fc3f247f6e52,2022-09-08_13h55.18.924,CGTgamblingSpanTasks,2022.2.1,Win32,29.99220203,,,,,,,,,,,,,,,,,,,,,,,,,,,,,,,,,,,,,,,,,,,,,,,,,,,,,,,,,,,,,,,,,,,,,,,,,,,,,,,,,,"[9,3,7,5,6]",1,0,1,0,1,,,,,,,,,,,,,,,,,,,,,,,,,,,,,,,,,,,,,,,,,,,,,,,,
,,620bde55a922fc3f247f6e52,2022-09-08_13h55.18.924,CGTgamblingSpanTasks,2022.2.1,Win32,29.99220203,,,,,,,,,,,,,,,,,,,,,,,,,,,,,,,,,,,,,,,,,,,,,,,,,,,,,,,,,,,,,,,,,,,,,,,,,,,,,,,,,,"[9,3,7,5,6]",2,0,2,0,1,,,,,,,,,,,,,,,,,,,,,,,,,,,,,,,,,,,,,,,,,,,,,,,,
,,620bde55a922fc3f247f6e52,2022-09-08_13h55.18.924,CGTgamblingSpanTasks,2022.2.1,Win32,29.99220203,,,,,,,,,,,,,,,,,,,,,,,,,,,,,,,,,,,,,,,,,,,,,,,,,,,,,,,,,,,,,,,,,,,,,,,,,,,,,,,,,,"[9,3,7,5,6]",3,0,3,0,1,,,,,,,,,,,,,,,,,,,,,,,,,,,,,,,,,,,,,,,,,,,,,,,,
,,620bde55a922fc3f247f6e52,2022-09-08_13h55.18.924,CGTgamblingSpanTasks,2022.2.1,Win32,29.99220203,,,,,,,,,,,,,,,,,,,,,,,,,,,,,,,,,,,,,,,,,,,,,,,,,,,,,,,,,,,,,,,,,,,,,,,,,,,,,,,,,,"[9,3,7,5,6]",4,0,4,0,1,,,,,,,,,,,,,,,,,,,,,,,,,,,,,,,,,,,,,,,,,,,,,,,,
,,620bde55a922fc3f247f6e52,2022-09-08_13h55.18.924,CGTgamblingSpanTasks,2022.2.1,Win32,29.99220203,,,,,,,,,,,,,,,,,,,,,,,,,,,,,,,,,,,,,,,,,,,,,,,,,,,,,,,,,,,,,,,1,,,,,,,,,,,,,,,,,,,,,,,,,93756,0.021571649,-0.375192604,1,0,0,cont_button,0,2,2,2,1,3,,,,,,,,,,,,,,,,,,,,,,,,,,,,,,,,,,,
,,620bde55a922fc3f247f6e52,2022-09-08_13h55.18.924,CGTgamblingSpanTasks,2022.2.1,Win32,29.99220203,,,,,,,,,,,,,,,,,,,,,,,,,,,,,,,,,,,,,,,,,,,,,,,,,,,,,,,,,,,,,,,,,,,,,,,,,,,,,,,,,,"[9,2,3,8,7,1]",0,0,0,0,1,,,,,,,,,,,,,,,,,,,,,,,,,,,,,,,,,,,,,,,,,,,,,,,,
,,620bde55a922fc3f247f6e52,2022-09-08_13h55.18.924,CGTgamblingSpanTasks,2022.2.1,Win32,29.99220203,,,,,,,,,,,,,,,,,,,,,,,,,,,,,,,,,,,,,,,,,,,,,,,,,,,,,,,,,,,,,,,,,,,,,,,,,,,,,,,,,,"[9,2,3,8,7,1]",1,0,1,0,1,,,,,,,,,,,,,,,,,,,,,,,,,,,,,,,,,,,,,,,,,,,,,,,,
,,620bde55a922fc3f247f6e52,2022-09-08_13h55.18.924,CGTgamblingSpanTasks,2022.2.1,Win32,29.99220203,,,,,,,,,,,,,,,,,,,,,,,,,,,,,,,,,,,,,,,,,,,,,,,,,,,,,,,,,,,,,,,,,,,,,,,,,,,,,,,,,,"[9,2,3,8,7,1]",2,0,2,0,1,,,,,,,,,,,,,,,,,,,,,,,,,,,,,,,,,,,,,,,,,,,,,,,,
,,620bde55a922fc3f247f6e52,2022-09-08_13h55.18.924,CGTgamblingSpanTasks,2022.2.1,Win32,29.99220203,,,,,,,,,,,,,,,,,,,,,,,,,,,,,,,,,,,,,,,,,,,,,,,,,,,,,,,,,,,,,,,,,,,,,,,,,,,,,,,,,,"[9,2,3,8,7,1]",3,0,3,0,1,,,,,,,,,,,,,,,,,,,,,,,,,,,,,,,,,,,,,,,,,,,,,,,,
,,620bde55a922fc3f247f6e52,2022-09-08_13h55.18.924,CGTgamblingSpanTasks,2022.2.1,Win32,29.99220203,,,,,,,,,,,,,,,,,,,,,,,,,,,,,,,,,,,,,,,,,,,,,,,,,,,,,,,,,,,,,,,,,,,,,,,,,,,,,,,,,,"[9,2,3,8,7,1]",4,0,4,0,1,,,,,,,,,,,,,,,,,,,,,,,,,,,,,,,,,,,,,,,,,,,,,,,,
,,620bde55a922fc3f247f6e52,2022-09-08_13h55.18.924,CGTgamblingSpanTasks,2022.2.1,Win32,29.99220203,,,,,,,,,,,,,,,,,,,,,,,,,,,,,,,,,,,,,,,,,,,,,,,,,,,,,,,,,,,,,,,,,,,,,,,,,,,,,,,,,,"[9,2,3,8,7,1]",5,0,5,0,1,,,,,,,,,,,,,,,,,,,,,,,,,,,,,,,,,,,,,,,,,,,,,,,,
,,620bde55a922fc3f247f6e52,2022-09-08_13h55.18.924,CGTgamblingSpanTasks,2022.2.1,Win32,29.99220203,,,,,,,,,,,,,,,,,,,,,,,,,,,,,,,,,,,,,,,,,,,,,,,,,,,,,,,,,,,,,,,1,,,,,,,,,,,,,,,,,,,,,,,,,923871,0.018489985,-0.370570108,1,0,0,cont_button,0,3,3,3,1,4,,,,,,,,,,,,,,,,,,,,,,,,,,,,,,,,,,,
,,620bde55a922fc3f247f6e52,2022-09-08_13h55.18.924,CGTgamblingSpanTasks,2022.2.1,Win32,29.99220203,,,,,,,,,,,,,,,,,,,,,,,,,,,,,,,,,,,,,,,,,,,,,,,,,,,,,,,,,,,,,,,,,,,,,,,,,,,,,,,,,,"[9,2,1,4,6,7,3]",0,0,0,0,1,,,,,,,,,,,,,,,,,,,,,,,,,,,,,,,,,,,,,,,,,,,,,,,,
,,620bde55a922fc3f247f6e52,2022-09-08_13h55.18.924,CGTgamblingSpanTasks,2022.2.1,Win32,29.99220203,,,,,,,,,,,,,,,,,,,,,,,,,,,,,,,,,,,,,,,,,,,,,,,,,,,,,,,,,,,,,,,,,,,,,,,,,,,,,,,,,,"[9,2,1,4,6,7,3]",1,0,1,0,1,,,,,,,,,,,,,,,,,,,,,,,,,,,,,,,,,,,,,,,,,,,,,,,,
,,620bde55a922fc3f247f6e52,2022-09-08_13h55.18.924,CGTgamblingSpanTasks,2022.2.1,Win32,29.99220203,,,,,,,,,,,,,,,,,,,,,,,,,,,,,,,,,,,,,,,,,,,,,,,,,,,,,,,,,,,,,,,,,,,,,,,,,,,,,,,,,,"[9,2,1,4,6,7,3]",2,0,2,0,1,,,,,,,,,,,,,,,,,,,,,,,,,,,,,,,,,,,,,,,,,,,,,,,,
,,620bde55a922fc3f247f6e52,2022-09-08_13h55.18.924,CGTgamblingSpanTasks,2022.2.1,Win32,29.99220203,,,,,,,,,,,,,,,,,,,,,,,,,,,,,,,,,,,,,,,,,,,,,,,,,,,,,,,,,,,,,,,,,,,,,,,,,,,,,,,,,,"[9,2,1,4,6,7,3]",3,0,3,0,1,,,,,,,,,,,,,,,,,,,,,,,,,,,,,,,,,,,,,,,,,,,,,,,,
,,620bde55a922fc3f247f6e52,2022-09-08_13h55.18.924,CGTgamblingSpanTasks,2022.2.1,Win32,29.99220203,,,,,,,,,,,,,,,,,,,,,,,,,,,,,,,,,,,,,,,,,,,,,,,,,,,,,,,,,,,,,,,,,,,,,,,,,,,,,,,,,,"[9,2,1,4,6,7,3]",4,0,4,0,1,,,,,,,,,,,,,,,,,,,,,,,,,,,,,,,,,,,,,,,,,,,,,,,,
,,620bde55a922fc3f247f6e52,2022-09-08_13h55.18.924,CGTgamblingSpanTasks,2022.2.1,Win32,29.99220203,,,,,,,,,,,,,,,,,,,,,,,,,,,,,,,,,,,,,,,,,,,,,,,,,,,,,,,,,,,,,,,,,,,,,,,,,,,,,,,,,,"[9,2,1,4,6,7,3]",5,0,5,0,1,,,,,,,,,,,,,,,,,,,,,,,,,,,,,,,,,,,,,,,,,,,,,,,,
,,620bde55a922fc3f247f6e52,2022-09-08_13h55.18.924,CGTgamblingSpanTasks,2022.2.1,Win32,29.99220203,,,,,,,,,,,,,,,,,,,,,,,,,,,,,,,,,,,,,,,,,,,,,,,,,,,,,,,,,,,,,,,,,,,,,,,,,,,,,,,,,,"[9,2,1,4,6,7,3]",6,0,6,0,1,,,,,,,,,,,,,,,,,,,,,,,,,,,,,,,,,,,,,,,,,,,,,,,,
,,620bde55a922fc3f247f6e52,2022-09-08_13h55.18.924,CGTgamblingSpanTasks,2022.2.1,Win32,29.99220203,,,,,,,,,,,,,,,,,,,,,,,,,,,,,,,,,,,,,,,,,,,,,,,,,,,,,,,,,,,,,,,1,,,,,,,,,,,,,,,,,,,,,,,,,9214673,0.018489985,-0.370570108,1,0,0,cont_button,0,4,4,4,1,5,,,,,,,,,,,,,,,,,,,,,,,,,,,,,,,,,,,
,,620bde55a922fc3f247f6e52,2022-09-08_13h55.18.924,CGTgamblingSpanTasks,2022.2.1,Win32,29.99220203,,,,,,,,,,,,,,,,,,,,,,,,,,,,,,,,,,,,,,,,,,,,,,,,,,,,,,,,,,,,,,,,,,,,,,,,,,,,,,,,,,"[7,3,4,1,9,2,5,6]",0,0,0,0,1,,,,,,,,,,,,,,,,,,,,,,,,,,,,,,,,,,,,,,,,,,,,,,,,
,,620bde55a922fc3f247f6e52,2022-09-08_13h55.18.924,CGTgamblingSpanTasks,2022.2.1,Win32,29.99220203,,,,,,,,,,,,,,,,,,,,,,,,,,,,,,,,,,,,,,,,,,,,,,,,,,,,,,,,,,,,,,,,,,,,,,,,,,,,,,,,,,"[7,3,4,1,9,2,5,6]",1,0,1,0,1,,,,,,,,,,,,,,,,,,,,,,,,,,,,,,,,,,,,,,,,,,,,,,,,
,,620bde55a922fc3f247f6e52,2022-09-08_13h55.18.924,CGTgamblingSpanTasks,2022.2.1,Win32,29.99220203,,,,,,,,,,,,,,,,,,,,,,,,,,,,,,,,,,,,,,,,,,,,,,,,,,,,,,,,,,,,,,,,,,,,,,,,,,,,,,,,,,"[7,3,4,1,9,2,5,6]",2,0,2,0,1,,,,,,,,,,,,,,,,,,,,,,,,,,,,,,,,,,,,,,,,,,,,,,,,
,,620bde55a922fc3f247f6e52,2022-09-08_13h55.18.924,CGTgamblingSpanTasks,2022.2.1,Win32,29.99220203,,,,,,,,,,,,,,,,,,,,,,,,,,,,,,,,,,,,,,,,,,,,,,,,,,,,,,,,,,,,,,,,,,,,,,,,,,,,,,,,,,"[7,3,4,1,9,2,5,6]",3,0,3,0,1,,,,,,,,,,,,,,,,,,,,,,,,,,,,,,,,,,,,,,,,,,,,,,,,
,,620bde55a922fc3f247f6e52,2022-09-08_13h55.18.924,CGTgamblingSpanTasks,2022.2.1,Win32,29.99220203,,,,,,,,,,,,,,,,,,,,,,,,,,,,,,,,,,,,,,,,,,,,,,,,,,,,,,,,,,,,,,,,,,,,,,,,,,,,,,,,,,"[7,3,4,1,9,2,5,6]",4,0,4,0,1,,,,,,,,,,,,,,,,,,,,,,,,,,,,,,,,,,,,,,,,,,,,,,,,
,,620bde55a922fc3f247f6e52,2022-09-08_13h55.18.924,CGTgamblingSpanTasks,2022.2.1,Win32,29.99220203,,,,,,,,,,,,,,,,,,,,,,,,,,,,,,,,,,,,,,,,,,,,,,,,,,,,,,,,,,,,,,,,,,,,,,,,,,,,,,,,,,"[7,3,4,1,9,2,5,6]",5,0,5,0,1,,,,,,,,,,,,,,,,,,,,,,,,,,,,,,,,,,,,,,,,,,,,,,,,
,,620bde55a922fc3f247f6e52,2022-09-08_13h55.18.924,CGTgamblingSpanTasks,2022.2.1,Win32,29.99220203,,,,,,,,,,,,,,,,,,,,,,,,,,,,,,,,,,,,,,,,,,,,,,,,,,,,,,,,,,,,,,,,,,,,,,,,,,,,,,,,,,"[7,3,4,1,9,2,5,6]",6,0,6,0,1,,,,,,,,,,,,,,,,,,,,,,,,,,,,,,,,,,,,,,,,,,,,,,,,
,,620bde55a922fc3f247f6e52,2022-09-08_13h55.18.924,CGTgamblingSpanTasks,2022.2.1,Win32,29.99220203,,,,,,,,,,,,,,,,,,,,,,,,,,,,,,,,,,,,,,,,,,,,,,,,,,,,,,,,,,,,,,,,,,,,,,,,,,,,,,,,,,"[7,3,4,1,9,2,5,6]",7,0,7,0,1,,,,,,,,,,,,,,,,,,,,,,,,,,,,,,,,,,,,,,,,,,,,,,,,
,,620bde55a922fc3f247f6e52,2022-09-08_13h55.18.924,CGTgamblingSpanTasks,2022.2.1,Win32,29.99220203,,,,,,,,,,,,,,,,,,,,,,,,,,,,,,,,,,,,,,,,,,,,,,,,,,,,,,,,,,,,,,,1,,,,,,,,,,,,,,,,,,,,,,,,,73419256,0.004622496,-0.406009245,1,0,0,cont_button,0,5,5,5,1,6,,,,,,,,,,,,,,,,,,,,,,,,,,,,,,,,,,,
,,620bde55a922fc3f247f6e52,2022-09-08_13h55.18.924,CGTgamblingSpanTasks,2022.2.1,Win32,29.99220203,,,,,,,,,,,,,,,,,,,,,,,,,,,,,,,,,,,,,,,,,,,,,,,,,,,,,,,,,,,,,,,,,,,,,,,,,,,,,,,,,,"[1,6,7,3,2,4,8,5,9]",0,0,0,0,1,,,,,,,,,,,,,,,,,,,,,,,,,,,,,,,,,,,,,,,,,,,,,,,,
,,620bde55a922fc3f247f6e52,2022-09-08_13h55.18.924,CGTgamblingSpanTasks,2022.2.1,Win32,29.99220203,,,,,,,,,,,,,,,,,,,,,,,,,,,,,,,,,,,,,,,,,,,,,,,,,,,,,,,,,,,,,,,,,,,,,,,,,,,,,,,,,,"[1,6,7,3,2,4,8,5,9]",1,0,1,0,1,,,,,,,,,,,,,,,,,,,,,,,,,,,,,,,,,,,,,,,,,,,,,,,,
,,620bde55a922fc3f247f6e52,2022-09-08_13h55.18.924,CGTgamblingSpanTasks,2022.2.1,Win32,29.99220203,,,,,,,,,,,,,,,,,,,,,,,,,,,,,,,,,,,,,,,,,,,,,,,,,,,,,,,,,,,,,,,,,,,,,,,,,,,,,,,,,,"[1,6,7,3,2,4,8,5,9]",2,0,2,0,1,,,,,,,,,,,,,,,,,,,,,,,,,,,,,,,,,,,,,,,,,,,,,,,,
,,620bde55a922fc3f247f6e52,2022-09-08_13h55.18.924,CGTgamblingSpanTasks,2022.2.1,Win32,29.99220203,,,,,,,,,,,,,,,,,,,,,,,,,,,,,,,,,,,,,,,,,,,,,,,,,,,,,,,,,,,,,,,,,,,,,,,,,,,,,,,,,,"[1,6,7,3,2,4,8,5,9]",3,0,3,0,1,,,,,,,,,,,,,,,,,,,,,,,,,,,,,,,,,,,,,,,,,,,,,,,,
,,620bde55a922fc3f247f6e52,2022-09-08_13h55.18.924,CGTgamblingSpanTasks,2022.2.1,Win32,29.99220203,,,,,,,,,,,,,,,,,,,,,,,,,,,,,,,,,,,,,,,,,,,,,,,,,,,,,,,,,,,,,,,,,,,,,,,,,,,,,,,,,,"[1,6,7,3,2,4,8,5,9]",4,0,4,0,1,,,,,,,,,,,,,,,,,,,,,,,,,,,,,,,,,,,,,,,,,,,,,,,,
,,620bde55a922fc3f247f6e52,2022-09-08_13h55.18.924,CGTgamblingSpanTasks,2022.2.1,Win32,29.99220203,,,,,,,,,,,,,,,,,,,,,,,,,,,,,,,,,,,,,,,,,,,,,,,,,,,,,,,,,,,,,,,,,,,,,,,,,,,,,,,,,,"[1,6,7,3,2,4,8,5,9]",5,0,5,0,1,,,,,,,,,,,,,,,,,,,,,,,,,,,,,,,,,,,,,,,,,,,,,,,,
,,620bde55a922fc3f247f6e52,2022-09-08_13h55.18.924,CGTgamblingSpanTasks,2022.2.1,Win32,29.99220203,,,,,,,,,,,,,,,,,,,,,,,,,,,,,,,,,,,,,,,,,,,,,,,,,,,,,,,,,,,,,,,,,,,,,,,,,,,,,,,,,,"[1,6,7,3,2,4,8,5,9]",6,0,6,0,1,,,,,,,,,,,,,,,,,,,,,,,,,,,,,,,,,,,,,,,,,,,,,,,,
,,620bde55a922fc3f247f6e52,2022-09-08_13h55.18.924,CGTgamblingSpanTasks,2022.2.1,Win32,29.99220203,,,,,,,,,,,,,,,,,,,,,,,,,,,,,,,,,,,,,,,,,,,,,,,,,,,,,,,,,,,,,,,,,,,,,,,,,,,,,,,,,,"[1,6,7,3,2,4,8,5,9]",7,0,7,0,1,,,,,,,,,,,,,,,,,,,,,,,,,,,,,,,,,,,,,,,,,,,,,,,,
,,620bde55a922fc3f247f6e52,2022-09-08_13h55.18.924,CGTgamblingSpanTasks,2022.2.1,Win32,29.99220203,,,,,,,,,,,,,,,,,,,,,,,,,,,,,,,,,,,,,,,,,,,,,,,,,,,,,,,,,,,,,,,,,,,,,,,,,,,,,,,,,,"[1,6,7,3,2,4,8,5,9]",8,0,8,0,1,,,,,,,,,,,,,,,,,,,,,,,,,,,,,,,,,,,,,,,,,,,,,,,,
,,620bde55a922fc3f247f6e52,2022-09-08_13h55.18.924,CGTgamblingSpanTasks,2022.2.1,Win32,29.99220203,,,,,,,,,,,,,,,,,,,,,,,,,,,,,,,,,,,,,,,,,,,,,,,,,,,,,,,,,,,,,,,1,,,,,,,,,,,,,,,,,,,,,,,,,167324859,0.004622496,-0.406009245,1,0,0,cont_button,0,6,6,6,1,7,,,,,,,,,,,,,,,,,,,,,,,,,,,,,,,,,,,
,,620bde55a922fc3f247f6e52,2022-09-08_13h55.18.924,CGTgamblingSpanTasks,2022.2.1,Win32,29.99220203,,,,,,,,,,,,,,,,,,,,,,,,,,,,,,,,,,,,,,,,,,,,,,,,,,,,,,,,,,,,,,,,,,,,,,,,,,,,,,,,,,"[7,3,5,4,2,8,9,1,6,6]",0,0,0,0,1,,,,,,,,,,,,,,,,,,,,,,,,,,,,,,,,,,,,,,,,,,,,,,,,
,,620bde55a922fc3f247f6e52,2022-09-08_13h55.18.924,CGTgamblingSpanTasks,2022.2.1,Win32,29.99220203,,,,,,,,,,,,,,,,,,,,,,,,,,,,,,,,,,,,,,,,,,,,,,,,,,,,,,,,,,,,,,,,,,,,,,,,,,,,,,,,,,"[7,3,5,4,2,8,9,1,6,6]",1,0,1,0,1,,,,,,,,,,,,,,,,,,,,,,,,,,,,,,,,,,,,,,,,,,,,,,,,
,,620bde55a922fc3f247f6e52,2022-09-08_13h55.18.924,CGTgamblingSpanTasks,2022.2.1,Win32,29.99220203,,,,,,,,,,,,,,,,,,,,,,,,,,,,,,,,,,,,,,,,,,,,,,,,,,,,,,,,,,,,,,,,,,,,,,,,,,,,,,,,,,"[7,3,5,4,2,8,9,1,6,6]",2,0,2,0,1,,,,,,,,,,,,,,,,,,,,,,,,,,,,,,,,,,,,,,,,,,,,,,,,
,,620bde55a922fc3f247f6e52,2022-09-08_13h55.18.924,CGTgamblingSpanTasks,2022.2.1,Win32,29.99220203,,,,,,,,,,,,,,,,,,,,,,,,,,,,,,,,,,,,,,,,,,,,,,,,,,,,,,,,,,,,,,,,,,,,,,,,,,,,,,,,,,"[7,3,5,4,2,8,9,1,6,6]",3,0,3,0,1,,,,,,,,,,,,,,,,,,,,,,,,,,,,,,,,,,,,,,,,,,,,,,,,
,,620bde55a922fc3f247f6e52,2022-09-08_13h55.18.924,CGTgamblingSpanTasks,2022.2.1,Win32,29.99220203,,,,,,,,,,,,,,,,,,,,,,,,,,,,,,,,,,,,,,,,,,,,,,,,,,,,,,,,,,,,,,,,,,,,,,,,,,,,,,,,,,"[7,3,5,4,2,8,9,1,6,6]",4,0,4,0,1,,,,,,,,,,,,,,,,,,,,,,,,,,,,,,,,,,,,,,,,,,,,,,,,
,,620bde55a922fc3f247f6e52,2022-09-08_13h55.18.924,CGTgamblingSpanTasks,2022.2.1,Win32,29.99220203,,,,,,,,,,,,,,,,,,,,,,,,,,,,,,,,,,,,,,,,,,,,,,,,,,,,,,,,,,,,,,,,,,,,,,,,,,,,,,,,,,"[7,3,5,4,2,8,9,1,6,6]",5,0,5,0,1,,,,,,,,,,,,,,,,,,,,,,,,,,,,,,,,,,,,,,,,,,,,,,,,
,,620bde55a922fc3f247f6e52,2022-09-08_13h55.18.924,CGTgamblingSpanTasks,2022.2.1,Win32,29.99220203,,,,,,,,,,,,,,,,,,,,,,,,,,,,,,,,,,,,,,,,,,,,,,,,,,,,,,,,,,,,,,,,,,,,,,,,,,,,,,,,,,"[7,3,5,4,2,8,9,1,6,6]",6,0,6,0,1,,,,,,,,,,,,,,,,,,,,,,,,,,,,,,,,,,,,,,,,,,,,,,,,
,,620bde55a922fc3f247f6e52,2022-09-08_13h55.18.924,CGTgamblingSpanTasks,2022.2.1,Win32,29.99220203,,,,,,,,,,,,,,,,,,,,,,,,,,,,,,,,,,,,,,,,,,,,,,,,,,,,,,,,,,,,,,,,,,,,,,,,,,,,,,,,,,"[7,3,5,4,2,8,9,1,6,6]",7,0,7,0,1,,,,,,,,,,,,,,,,,,,,,,,,,,,,,,,,,,,,,,,,,,,,,,,,
,,620bde55a922fc3f247f6e52,2022-09-08_13h55.18.924,CGTgamblingSpanTasks,2022.2.1,Win32,29.99220203,,,,,,,,,,,,,,,,,,,,,,,,,,,,,,,,,,,,,,,,,,,,,,,,,,,,,,,,,,,,,,,,,,,,,,,,,,,,,,,,,,"[7,3,5,4,2,8,9,1,6,6]",8,0,8,0,1,,,,,,,,,,,,,,,,,,,,,,,,,,,,,,,,,,,,,,,,,,,,,,,,
,,620bde55a922fc3f247f6e52,2022-09-08_13h55.18.924,CGTgamblingSpanTasks,2022.2.1,Win32,29.99220203,,,,,,,,,,,,,,,,,,,,,,,,,,,,,,,,,,,,,,,,,,,,,,,,,,,,,,,,,,,,,,,,,,,,,,,,,,,,,,,,,,"[7,3,5,4,2,8,9,1,6,6]",9,0,9,0,1,,,,,,,,,,,,,,,,,,,,,,,,,,,,,,,,,,,,,,,,,,,,,,,,
,,620bde55a922fc3f247f6e52,2022-09-08_13h55.18.924,CGTgamblingSpanTasks,2022.2.1,Win32,29.99220203,,,,,,,,,,,,,,,,,,,,,,,,,,,,,,,,,,,,,,,,,,,,,,,,,,,,,,,,,,,,,,,1,,,,,,,,,,,,,,,,,,,,,,,,,7354289166,-0.004622496,-0.401386749,1,0,0,cont_button,0,7,7,7,1,8,,,,,,,,,,,,,,,,,,,,,,,,,,,,,,,,,,,
,,620bde55a922fc3f247f6e52,2022-09-08_13h55.18.924,CGTgamblingSpanTasks,2022.2.1,Win32,29.99220203,,,,,,,,,,,,,,,,,,,,,,,,,,,,,,,,,,,,,,,,,,,,,,,,,,,,,,,,,,,,,,,,,,,,,,,,,,,,,,,,,,"[3,5,2,8,6,1,4,9,7,7,3]",0,0,0,0,1,,,,,,,,,,,,,,,,,,,,,,,,,,,,,,,,,,,,,,,,,,,,,,,,
,,620bde55a922fc3f247f6e52,2022-09-08_13h55.18.924,CGTgamblingSpanTasks,2022.2.1,Win32,29.99220203,,,,,,,,,,,,,,,,,,,,,,,,,,,,,,,,,,,,,,,,,,,,,,,,,,,,,,,,,,,,,,,,,,,,,,,,,,,,,,,,,,"[3,5,2,8,6,1,4,9,7,7,3]",1,0,1,0,1,,,,,,,,,,,,,,,,,,,,,,,,,,,,,,,,,,,,,,,,,,,,,,,,
,,620bde55a922fc3f247f6e52,2022-09-08_13h55.18.924,CGTgamblingSpanTasks,2022.2.1,Win32,29.99220203,,,,,,,,,,,,,,,,,,,,,,,,,,,,,,,,,,,,,,,,,,,,,,,,,,,,,,,,,,,,,,,,,,,,,,,,,,,,,,,,,,"[3,5,2,8,6,1,4,9,7,7,3]",2,0,2,0,1,,,,,,,,,,,,,,,,,,,,,,,,,,,,,,,,,,,,,,,,,,,,,,,,
,,620bde55a922fc3f247f6e52,2022-09-08_13h55.18.924,CGTgamblingSpanTasks,2022.2.1,Win32,29.99220203,,,,,,,,,,,,,,,,,,,,,,,,,,,,,,,,,,,,,,,,,,,,,,,,,,,,,,,,,,,,,,,,,,,,,,,,,,,,,,,,,,"[3,5,2,8,6,1,4,9,7,7,3]",3,0,3,0,1,,,,,,,,,,,,,,,,,,,,,,,,,,,,,,,,,,,,,,,,,,,,,,,,
,,620bde55a922fc3f247f6e52,2022-09-08_13h55.18.924,CGTgamblingSpanTasks,2022.2.1,Win32,29.99220203,,,,,,,,,,,,,,,,,,,,,,,,,,,,,,,,,,,,,,,,,,,,,,,,,,,,,,,,,,,,,,,,,,,,,,,,,,,,,,,,,,"[3,5,2,8,6,1,4,9,7,7,3]",4,0,4,0,1,,,,,,,,,,,,,,,,,,,,,,,,,,,,,,,,,,,,,,,,,,,,,,,,
,,620bde55a922fc3f247f6e52,2022-09-08_13h55.18.924,CGTgamblingSpanTasks,2022.2.1,Win32,29.99220203,,,,,,,,,,,,,,,,,,,,,,,,,,,,,,,,,,,,,,,,,,,,,,,,,,,,,,,,,,,,,,,,,,,,,,,,,,,,,,,,,,"[3,5,2,8,6,1,4,9,7,7,3]",5,0,5,0,1,,,,,,,,,,,,,,,,,,,,,,,,,,,,,,,,,,,,,,,,,,,,,,,,
,,620bde55a922fc3f247f6e52,2022-09-08_13h55.18.924,CGTgamblingSpanTasks,2022.2.1,Win32,29.99220203,,,,,,,,,,,,,,,,,,,,,,,,,,,,,,,,,,,,,,,,,,,,,,,,,,,,,,,,,,,,,,,,,,,,,,,,,,,,,,,,,,"[3,5,2,8,6,1,4,9,7,7,3]",6,0,6,0,1,,,,,,,,,,,,,,,,,,,,,,,,,,,,,,,,,,,,,,,,,,,,,,,,
,,620bde55a922fc3f247f6e52,2022-09-08_13h55.18.924,CGTgamblingSpanTasks,2022.2.1,Win32,29.99220203,,,,,,,,,,,,,,,,,,,,,,,,,,,,,,,,,,,,,,,,,,,,,,,,,,,,,,,,,,,,,,,,,,,,,,,,,,,,,,,,,,"[3,5,2,8,6,1,4,9,7,7,3]",7,0,7,0,1,,,,,,,,,,,,,,,,,,,,,,,,,,,,,,,,,,,,,,,,,,,,,,,,
,,620bde55a922fc3f247f6e52,2022-09-08_13h55.18.924,CGTgamblingSpanTasks,2022.2.1,Win32,29.99220203,,,,,,,,,,,,,,,,,,,,,,,,,,,,,,,,,,,,,,,,,,,,,,,,,,,,,,,,,,,,,,,,,,,,,,,,,,,,,,,,,,"[3,5,2,8,6,1,4,9,7,7,3]",8,0,8,0,1,,,,,,,,,,,,,,,,,,,,,,,,,,,,,,,,,,,,,,,,,,,,,,,,
,,620bde55a922fc3f247f6e52,2022-09-08_13h55.18.924,CGTgamblingSpanTasks,2022.2.1,Win32,29.99220203,,,,,,,,,,,,,,,,,,,,,,,,,,,,,,,,,,,,,,,,,,,,,,,,,,,,,,,,,,,,,,,,,,,,,,,,,,,,,,,,,,"[3,5,2,8,6,1,4,9,7,7,3]",9,0,9,0,1,,,,,,,,,,,,,,,,,,,,,,,,,,,,,,,,,,,,,,,,,,,,,,,,
,,620bde55a922fc3f247f6e52,2022-09-08_13h55.18.924,CGTgamblingSpanTasks,2022.2.1,Win32,29.99220203,,,,,,,,,,,,,,,,,,,,,,,,,,,,,,,,,,,,,,,,,,,,,,,,,,,,,,,,,,,,,,,,,,,,,,,,,,,,,,,,,,"[3,5,2,8,6,1,4,9,7,7,3]",10,0,10,0,1,,,,,,,,,,,,,,,,,,,,,,,,,,,,,,,,,,,,,,,,,,,,,,,,
,,620bde55a922fc3f247f6e52,2022-09-08_13h55.18.924,CGTgamblingSpanTasks,2022.2.1,Win32,29.99220203,,,,,,,,,,,,,,,,,,,,,,,,,,,,,,,,,,,,,,,,,,,,,,,,,,,,,,,,,,,,,,,1,,,,,,,,,,,,,,,,,,,,,,,,,35286149773,0.003081664,-0.406009245,1,0,0,cont_button,0,8,8,8,1,9,,,,,,,,,,,,,,,,,,,,,,,,,,,,,,,,,,,
,,620bde55a922fc3f247f6e52,2022-09-08_13h55.18.924,CGTgamblingSpanTasks,2022.2.1,Win32,29.99220203,,,,,,,,,,,,,,,,,,,,,,,,,,,,,,,,,,,,,,,,,,,,,,,,,,,,,,,,,,,,,,,,,,,,,,,,,,,,,,,,,,"[8,4,3,5,7,6,9,2,1,1,9,4]",0,0,0,0,1,,,,,,,,,,,,,,,,,,,,,,,,,,,,,,,,,,,,,,,,,,,,,,,,
,,620bde55a922fc3f247f6e52,2022-09-08_13h55.18.924,CGTgamblingSpanTasks,2022.2.1,Win32,29.99220203,,,,,,,,,,,,,,,,,,,,,,,,,,,,,,,,,,,,,,,,,,,,,,,,,,,,,,,,,,,,,,,,,,,,,,,,,,,,,,,,,,"[8,4,3,5,7,6,9,2,1,1,9,4]",1,0,1,0,1,,,,,,,,,,,,,,,,,,,,,,,,,,,,,,,,,,,,,,,,,,,,,,,,
,,620bde55a922fc3f247f6e52,2022-09-08_13h55.18.924,CGTgamblingSpanTasks,2022.2.1,Win32,29.99220203,,,,,,,,,,,,,,,,,,,,,,,,,,,,,,,,,,,,,,,,,,,,,,,,,,,,,,,,,,,,,,,,,,,,,,,,,,,,,,,,,,"[8,4,3,5,7,6,9,2,1,1,9,4]",2,0,2,0,1,,,,,,,,,,,,,,,,,,,,,,,,,,,,,,,,,,,,,,,,,,,,,,,,
,,620bde55a922fc3f247f6e52,2022-09-08_13h55.18.924,CGTgamblingSpanTasks,2022.2.1,Win32,29.99220203,,,,,,,,,,,,,,,,,,,,,,,,,,,,,,,,,,,,,,,,,,,,,,,,,,,,,,,,,,,,,,,,,,,,,,,,,,,,,,,,,,"[8,4,3,5,7,6,9,2,1,1,9,4]",3,0,3,0,1,,,,,,,,,,,,,,,,,,,,,,,,,,,,,,,,,,,,,,,,,,,,,,,,
,,620bde55a922fc3f247f6e52,2022-09-08_13h55.18.924,CGTgamblingSpanTasks,2022.2.1,Win32,29.99220203,,,,,,,,,,,,,,,,,,,,,,,,,,,,,,,,,,,,,,,,,,,,,,,,,,,,,,,,,,,,,,,,,,,,,,,,,,,,,,,,,,"[8,4,3,5,7,6,9,2,1,1,9,4]",4,0,4,0,1,,,,,,,,,,,,,,,,,,,,,,,,,,,,,,,,,,,,,,,,,,,,,,,,
,,620bde55a922fc3f247f6e52,2022-09-08_13h55.18.924,CGTgamblingSpanTasks,2022.2.1,Win32,29.99220203,,,,,,,,,,,,,,,,,,,,,,,,,,,,,,,,,,,,,,,,,,,,,,,,,,,,,,,,,,,,,,,,,,,,,,,,,,,,,,,,,,"[8,4,3,5,7,6,9,2,1,1,9,4]",5,0,5,0,1,,,,,,,,,,,,,,,,,,,,,,,,,,,,,,,,,,,,,,,,,,,,,,,,
,,620bde55a922fc3f247f6e52,2022-09-08_13h55.18.924,CGTgamblingSpanTasks,2022.2.1,Win32,29.99220203,,,,,,,,,,,,,,,,,,,,,,,,,,,,,,,,,,,,,,,,,,,,,,,,,,,,,,,,,,,,,,,,,,,,,,,,,,,,,,,,,,"[8,4,3,5,7,6,9,2,1,1,9,4]",6,0,6,0,1,,,,,,,,,,,,,,,,,,,,,,,,,,,,,,,,,,,,,,,,,,,,,,,,
,,620bde55a922fc3f247f6e52,2022-09-08_13h55.18.924,CGTgamblingSpanTasks,2022.2.1,Win32,29.99220203,,,,,,,,,,,,,,,,,,,,,,,,,,,,,,,,,,,,,,,,,,,,,,,,,,,,,,,,,,,,,,,,,,,,,,,,,,,,,,,,,,"[8,4,3,5,7,6,9,2,1,1,9,4]",7,0,7,0,1,,,,,,,,,,,,,,,,,,,,,,,,,,,,,,,,,,,,,,,,,,,,,,,,
,,620bde55a922fc3f247f6e52,2022-09-08_13h55.18.924,CGTgamblingSpanTasks,2022.2.1,Win32,29.99220203,,,,,,,,,,,,,,,,,,,,,,,,,,,,,,,,,,,,,,,,,,,,,,,,,,,,,,,,,,,,,,,,,,,,,,,,,,,,,,,,,,"[8,4,3,5,7,6,9,2,1,1,9,4]",8,0,8,0,1,,,,,,,,,,,,,,,,,,,,,,,,,,,,,,,,,,,,,,,,,,,,,,,,
,,620bde55a922fc3f247f6e52,2022-09-08_13h55.18.924,CGTgamblingSpanTasks,2022.2.1,Win32,29.99220203,,,,,,,,,,,,,,,,,,,,,,,,,,,,,,,,,,,,,,,,,,,,,,,,,,,,,,,,,,,,,,,,,,,,,,,,,,,,,,,,,,"[8,4,3,5,7,6,9,2,1,1,9,4]",9,0,9,0,1,,,,,,,,,,,,,,,,,,,,,,,,,,,,,,,,,,,,,,,,,,,,,,,,
,,620bde55a922fc3f247f6e52,2022-09-08_13h55.18.924,CGTgamblingSpanTasks,2022.2.1,Win32,29.99220203,,,,,,,,,,,,,,,,,,,,,,,,,,,,,,,,,,,,,,,,,,,,,,,,,,,,,,,,,,,,,,,,,,,,,,,,,,,,,,,,,,"[8,4,3,5,7,6,9,2,1,1,9,4]",10,0,10,0,1,,,,,,,,,,,,,,,,,,,,,,,,,,,,,,,,,,,,,,,,,,,,,,,,
,,620bde55a922fc3f247f6e52,2022-09-08_13h55.18.924,CGTgamblingSpanTasks,2022.2.1,Win32,29.99220203,,,,,,,,,,,,,,,,,,,,,,,,,,,,,,,,,,,,,,,,,,,,,,,,,,,,,,,,,,,,,,,,,,,,,,,,,,,,,,,,,,"[8,4,3,5,7,6,9,2,1,1,9,4]",11,0,11,0,1,,,,,,,,,,,,,,,,,,,,,,,,,,,,,,,,,,,,,,,,,,,,,,,,
,,620bde55a922fc3f247f6e52,2022-09-08_13h55.18.924,CGTgamblingSpanTasks,2022.2.1,Win32,29.99220203,,,,,,,,,,,,,,,,,,,,,,,,,,,,,,,,,,,,,,,,,,,,,,,,,,,,,,,,,,,,,,,1,,,,,,,,,,,,,,,,,,,,,,,,,843576921194,0.004622496,-0.406009245,1,0,0,cont_button,0,9,9,9,1,10,,,,,,,,,,,,,,,,,,,,,,,,,,,,,,,,,,,
,,620bde55a922fc3f247f6e52,2022-09-08_13h55.18.924,CGTgamblingSpanTasks,2022.2.1,Win32,29.99220203,,,,,,,,,,,,,,,,,,,,,,,,,,,,,,,,,,,,,,,,,,,,,,,,,,,,,,,,,,,,,,,,,,,,,,,,,,,,,,,,,,"[3,4,7,6,9,1,8,2,5,5,4,8,9]",0,0,0,0,1,,,,,,,,,,,,,,,,,,,,,,,,,,,,,,,,,,,,,,,,,,,,,,,,
,,620bde55a922fc3f247f6e52,2022-09-08_13h55.18.924,CGTgamblingSpanTasks,2022.2.1,Win32,29.99220203,,,,,,,,,,,,,,,,,,,,,,,,,,,,,,,,,,,,,,,,,,,,,,,,,,,,,,,,,,,,,,,,,,,,,,,,,,,,,,,,,,"[3,4,7,6,9,1,8,2,5,5,4,8,9]",1,0,1,0,1,,,,,,,,,,,,,,,,,,,,,,,,,,,,,,,,,,,,,,,,,,,,,,,,
,,620bde55a922fc3f247f6e52,2022-09-08_13h55.18.924,CGTgamblingSpanTasks,2022.2.1,Win32,29.99220203,,,,,,,,,,,,,,,,,,,,,,,,,,,,,,,,,,,,,,,,,,,,,,,,,,,,,,,,,,,,,,,,,,,,,,,,,,,,,,,,,,"[3,4,7,6,9,1,8,2,5,5,4,8,9]",2,0,2,0,1,,,,,,,,,,,,,,,,,,,,,,,,,,,,,,,,,,,,,,,,,,,,,,,,
,,620bde55a922fc3f247f6e52,2022-09-08_13h55.18.924,CGTgamblingSpanTasks,2022.2.1,Win32,29.99220203,,,,,,,,,,,,,,,,,,,,,,,,,,,,,,,,,,,,,,,,,,,,,,,,,,,,,,,,,,,,,,,,,,,,,,,,,,,,,,,,,,"[3,4,7,6,9,1,8,2,5,5,4,8,9]",3,0,3,0,1,,,,,,,,,,,,,,,,,,,,,,,,,,,,,,,,,,,,,,,,,,,,,,,,
,,620bde55a922fc3f247f6e52,2022-09-08_13h55.18.924,CGTgamblingSpanTasks,2022.2.1,Win32,29.99220203,,,,,,,,,,,,,,,,,,,,,,,,,,,,,,,,,,,,,,,,,,,,,,,,,,,,,,,,,,,,,,,,,,,,,,,,,,,,,,,,,,"[3,4,7,6,9,1,8,2,5,5,4,8,9]",4,0,4,0,1,,,,,,,,,,,,,,,,,,,,,,,,,,,,,,,,,,,,,,,,,,,,,,,,
,,620bde55a922fc3f247f6e52,2022-09-08_13h55.18.924,CGTgamblingSpanTasks,2022.2.1,Win32,29.99220203,,,,,,,,,,,,,,,,,,,,,,,,,,,,,,,,,,,,,,,,,,,,,,,,,,,,,,,,,,,,,,,,,,,,,,,,,,,,,,,,,,"[3,4,7,6,9,1,8,2,5,5,4,8,9]",5,0,5,0,1,,,,,,,,,,,,,,,,,,,,,,,,,,,,,,,,,,,,,,,,,,,,,,,,
,,620bde55a922fc3f247f6e52,2022-09-08_13h55.18.924,CGTgamblingSpanTasks,2022.2.1,Win32,29.99220203,,,,,,,,,,,,,,,,,,,,,,,,,,,,,,,,,,,,,,,,,,,,,,,,,,,,,,,,,,,,,,,,,,,,,,,,,,,,,,,,,,"[3,4,7,6,9,1,8,2,5,5,4,8,9]",6,0,6,0,1,,,,,,,,,,,,,,,,,,,,,,,,,,,,,,,,,,,,,,,,,,,,,,,,
,,620bde55a922fc3f247f6e52,2022-09-08_13h55.18.924,CGTgamblingSpanTasks,2022.2.1,Win32,29.99220203,,,,,,,,,,,,,,,,,,,,,,,,,,,,,,,,,,,,,,,,,,,,,,,,,,,,,,,,,,,,,,,,,,,,,,,,,,,,,,,,,,"[3,4,7,6,9,1,8,2,5,5,4,8,9]",7,0,7,0,1,,,,,,,,,,,,,,,,,,,,,,,,,,,,,,,,,,,,,,,,,,,,,,,,
,,620bde55a922fc3f247f6e52,2022-09-08_13h55.18.924,CGTgamblingSpanTasks,2022.2.1,Win32,29.99220203,,,,,,,,,,,,,,,,,,,,,,,,,,,,,,,,,,,,,,,,,,,,,,,,,,,,,,,,,,,,,,,,,,,,,,,,,,,,,,,,,,"[3,4,7,6,9,1,8,2,5,5,4,8,9]",8,0,8,0,1,,,,,,,,,,,,,,,,,,,,,,,,,,,,,,,,,,,,,,,,,,,,,,,,
,,620bde55a922fc3f247f6e52,2022-09-08_13h55.18.924,CGTgamblingSpanTasks,2022.2.1,Win32,29.99220203,,,,,,,,,,,,,,,,,,,,,,,,,,,,,,,,,,,,,,,,,,,,,,,,,,,,,,,,,,,,,,,,,,,,,,,,,,,,,,,,,,"[3,4,7,6,9,1,8,2,5,5,4,8,9]",9,0,9,0,1,,,,,,,,,,,,,,,,,,,,,,,,,,,,,,,,,,,,,,,,,,,,,,,,
,,620bde55a922fc3f247f6e52,2022-09-08_13h55.18.924,CGTgamblingSpanTasks,2022.2.1,Win32,29.99220203,,,,,,,,,,,,,,,,,,,,,,,,,,,,,,,,,,,,,,,,,,,,,,,,,,,,,,,,,,,,,,,,,,,,,,,,,,,,,,,,,,"[3,4,7,6,9,1,8,2,5,5,4,8,9]",10,0,10,0,1,,,,,,,,,,,,,,,,,,,,,,,,,,,,,,,,,,,,,,,,,,,,,,,,
,,620bde55a922fc3f247f6e52,2022-09-08_13h55.18.924,CGTgamblingSpanTasks,2022.2.1,Win32,29.99220203,,,,,,,,,,,,,,,,,,,,,,,,,,,,,,,,,,,,,,,,,,,,,,,,,,,,,,,,,,,,,,,,,,,,,,,,,,,,,,,,,,"[3,4,7,6,9,1,8,2,5,5,4,8,9]",11,0,11,0,1,,,,,,,,,,,,,,,,,,,,,,,,,,,,,,,,,,,,,,,,,,,,,,,,
,,620bde55a922fc3f247f6e52,2022-09-08_13h55.18.924,CGTgamblingSpanTasks,2022.2.1,Win32,29.99220203,,,,,,,,,,,,,,,,,,,,,,,,,,,,,,,,,,,,,,,,,,,,,,,,,,,,,,,,,,,,,,,,,,,,,,,,,,,,,,,,,,"[3,4,7,6,9,1,8,2,5,5,4,8,9]",12,0,12,0,1,,,,,,,,,,,,,,,,,,,,,,,,,,,,,,,,,,,,,,,,,,,,,,,,
,,620bde55a922fc3f247f6e52,2022-09-08_13h55.18.924,CGTgamblingSpanTasks,2022.2.1,Win32,29.99220203,,,,,,,,,,,,,,,,,,,,,,,,,,,,,,,,,,,,,,,,,,,,,,,,,,,,,,,,,,,,,,,1,,,,,,,,,,,,,,,,,,,,,,,,,3476918255489,0.009244992,-0.415254237,1,0,0,cont_button,0,10,10,10,1,11,,,,,,,,,,,,,,,,,,,,,,,,,,,,,,,,,,,
,,620bde55a922fc3f247f6e52,2022-09-08_13h55.18.924,CGTgamblingSpanTasks,2022.2.1,Win32,29.99220203,,,,,,,,,,,,,,,,,,,,,,,,,,,,,,,,,,,,,,,,,,,,,,,,,,,,,,,,,,,,,,,,,,,,,,,,,,,,,,,,,,"[9,2,5,8,6,3,1,7,4,4,5,1,8,6]",0,0,0,0,1,,,,,,,,,,,,,,,,,,,,,,,,,,,,,,,,,,,,,,,,,,,,,,,,
,,620bde55a922fc3f247f6e52,2022-09-08_13h55.18.924,CGTgamblingSpanTasks,2022.2.1,Win32,29.99220203,,,,,,,,,,,,,,,,,,,,,,,,,,,,,,,,,,,,,,,,,,,,,,,,,,,,,,,,,,,,,,,,,,,,,,,,,,,,,,,,,,"[9,2,5,8,6,3,1,7,4,4,5,1,8,6]",1,0,1,0,1,,,,,,,,,,,,,,,,,,,,,,,,,,,,,,,,,,,,,,,,,,,,,,,,
,,620bde55a922fc3f247f6e52,2022-09-08_13h55.18.924,CGTgamblingSpanTasks,2022.2.1,Win32,29.99220203,,,,,,,,,,,,,,,,,,,,,,,,,,,,,,,,,,,,,,,,,,,,,,,,,,,,,,,,,,,,,,,,,,,,,,,,,,,,,,,,,,"[9,2,5,8,6,3,1,7,4,4,5,1,8,6]",2,0,2,0,1,,,,,,,,,,,,,,,,,,,,,,,,,,,,,,,,,,,,,,,,,,,,,,,,
,,620bde55a922fc3f247f6e52,2022-09-08_13h55.18.924,CGTgamblingSpanTasks,2022.2.1,Win32,29.99220203,,,,,,,,,,,,,,,,,,,,,,,,,,,,,,,,,,,,,,,,,,,,,,,,,,,,,,,,,,,,,,,,,,,,,,,,,,,,,,,,,,"[9,2,5,8,6,3,1,7,4,4,5,1,8,6]",3,0,3,0,1,,,,,,,,,,,,,,,,,,,,,,,,,,,,,,,,,,,,,,,,,,,,,,,,
,,620bde55a922fc3f247f6e52,2022-09-08_13h55.18.924,CGTgamblingSpanTasks,2022.2.1,Win32,29.99220203,,,,,,,,,,,,,,,,,,,,,,,,,,,,,,,,,,,,,,,,,,,,,,,,,,,,,,,,,,,,,,,,,,,,,,,,,,,,,,,,,,"[9,2,5,8,6,3,1,7,4,4,5,1,8,6]",4,0,4,0,1,,,,,,,,,,,,,,,,,,,,,,,,,,,,,,,,,,,,,,,,,,,,,,,,
,,620bde55a922fc3f247f6e52,2022-09-08_13h55.18.924,CGTgamblingSpanTasks,2022.2.1,Win32,29.99220203,,,,,,,,,,,,,,,,,,,,,,,,,,,,,,,,,,,,,,,,,,,,,,,,,,,,,,,,,,,,,,,,,,,,,,,,,,,,,,,,,,"[9,2,5,8,6,3,1,7,4,4,5,1,8,6]",5,0,5,0,1,,,,,,,,,,,,,,,,,,,,,,,,,,,,,,,,,,,,,,,,,,,,,,,,
,,620bde55a922fc3f247f6e52,2022-09-08_13h55.18.924,CGTgamblingSpanTasks,2022.2.1,Win32,29.99220203,,,,,,,,,,,,,,,,,,,,,,,,,,,,,,,,,,,,,,,,,,,,,,,,,,,,,,,,,,,,,,,,,,,,,,,,,,,,,,,,,,"[9,2,5,8,6,3,1,7,4,4,5,1,8,6]",6,0,6,0,1,,,,,,,,,,,,,,,,,,,,,,,,,,,,,,,,,,,,,,,,,,,,,,,,
,,620bde55a922fc3f247f6e52,2022-09-08_13h55.18.924,CGTgamblingSpanTasks,2022.2.1,Win32,29.99220203,,,,,,,,,,,,,,,,,,,,,,,,,,,,,,,,,,,,,,,,,,,,,,,,,,,,,,,,,,,,,,,,,,,,,,,,,,,,,,,,,,"[9,2,5,8,6,3,1,7,4,4,5,1,8,6]",7,0,7,0,1,,,,,,,,,,,,,,,,,,,,,,,,,,,,,,,,,,,,,,,,,,,,,,,,
,,620bde55a922fc3f247f6e52,2022-09-08_13h55.18.924,CGTgamblingSpanTasks,2022.2.1,Win32,29.99220203,,,,,,,,,,,,,,,,,,,,,,,,,,,,,,,,,,,,,,,,,,,,,,,,,,,,,,,,,,,,,,,,,,,,,,,,,,,,,,,,,,"[9,2,5,8,6,3,1,7,4,4,5,1,8,6]",8,0,8,0,1,,,,,,,,,,,,,,,,,,,,,,,,,,,,,,,,,,,,,,,,,,,,,,,,
,,620bde55a922fc3f247f6e52,2022-09-08_13h55.18.924,CGTgamblingSpanTasks,2022.2.1,Win32,29.99220203,,,,,,,,,,,,,,,,,,,,,,,,,,,,,,,,,,,,,,,,,,,,,,,,,,,,,,,,,,,,,,,,,,,,,,,,,,,,,,,,,,"[9,2,5,8,6,3,1,7,4,4,5,1,8,6]",9,0,9,0,1,,,,,,,,,,,,,,,,,,,,,,,,,,,,,,,,,,,,,,,,,,,,,,,,
,,620bde55a922fc3f247f6e52,2022-09-08_13h55.18.924,CGTgamblingSpanTasks,2022.2.1,Win32,29.99220203,,,,,,,,,,,,,,,,,,,,,,,,,,,,,,,,,,,,,,,,,,,,,,,,,,,,,,,,,,,,,,,,,,,,,,,,,,,,,,,,,,"[9,2,5,8,6,3,1,7,4,4,5,1,8,6]",10,0,10,0,1,,,,,,,,,,,,,,,,,,,,,,,,,,,,,,,,,,,,,,,,,,,,,,,,
,,620bde55a922fc3f247f6e52,2022-09-08_13h55.18.924,CGTgamblingSpanTasks,2022.2.1,Win32,29.99220203,,,,,,,,,,,,,,,,,,,,,,,,,,,,,,,,,,,,,,,,,,,,,,,,,,,,,,,,,,,,,,,,,,,,,,,,,,,,,,,,,,"[9,2,5,8,6,3,1,7,4,4,5,1,8,6]",11,0,11,0,1,,,,,,,,,,,,,,,,,,,,,,,,,,,,,,,,,,,,,,,,,,,,,,,,
,,620bde55a922fc3f247f6e52,2022-09-08_13h55.18.924,CGTgamblingSpanTasks,2022.2.1,Win32,29.99220203,,,,,,,,,,,,,,,,,,,,,,,,,,,,,,,,,,,,,,,,,,,,,,,,,,,,,,,,,,,,,,,,,,,,,,,,,,,,,,,,,,"[9,2,5,8,6,3,1,7,4,4,5,1,8,6]",12,0,12,0,1,,,,,,,,,,,,,,,,,,,,,,,,,,,,,,,,,,,,,,,,,,,,,,,,
,,620bde55a922fc3f247f6e52,2022-09-08_13h55.18.924,CGTgamblingSpanTasks,2022.2.1,Win32,29.99220203,,,,,,,,,,,,,,,,,,,,,,,,,,,,,,,,,,,,,,,,,,,,,,,,,,,,,,,,,,,,,,,,,,,,,,,,,,,,,,,,,,"[9,2,5,8,6,3,1,7,4,4,5,1,8,6]",13,0,13,0,1,,,,,,,,,,,,,,,,,,,,,,,,,,,,,,,,,,,,,,,,,,,,,,,,
,,620bde55a922fc3f247f6e52,2022-09-08_13h55.18.924,CGTgamblingSpanTasks,2022.2.1,Win32,29.99220203,,,,,,,,,,,,,,,,,,,,,,,,,,,,,,,,,,,,,,,,,,,,,,,,,,,,,,,,,,,,,,,1,,,,,,,,,,,,,,,,,,,,,,,,,92586317445186,0.012326656,-0.419876733,1,0,0,cont_button,0,11,11,11,1,12,,,,,,,,,,,,,,,,,,,,,,,,,,,,,,,,,,,
,,620bde55a922fc3f247f6e52,2022-09-08_13h55.18.924,CGTgamblingSpanTasks,2022.2.1,Win32,29.99220203,,,,,,,,,,,,,,,,,,,,,,,,,,,,,,,,,,,,,,,,,,,,,,,,,,,,,,,,,,,,,,,,,,,,,,,,,,,,,,,,,,"[7,2,9,1,5,3,6,4,8,7,8,6,9,1,3]",0,0,0,0,1,,,,,,,,,,,,,,,,,,,,,,,,,,,,,,,,,,,,,,,,,,,,,,,,
,,620bde55a922fc3f247f6e52,2022-09-08_13h55.18.924,CGTgamblingSpanTasks,2022.2.1,Win32,29.99220203,,,,,,,,,,,,,,,,,,,,,,,,,,,,,,,,,,,,,,,,,,,,,,,,,,,,,,,,,,,,,,,,,,,,,,,,,,,,,,,,,,"[7,2,9,1,5,3,6,4,8,7,8,6,9,1,3]",1,0,1,0,1,,,,,,,,,,,,,,,,,,,,,,,,,,,,,,,,,,,,,,,,,,,,,,,,
,,620bde55a922fc3f247f6e52,2022-09-08_13h55.18.924,CGTgamblingSpanTasks,2022.2.1,Win32,29.99220203,,,,,,,,,,,,,,,,,,,,,,,,,,,,,,,,,,,,,,,,,,,,,,,,,,,,,,,,,,,,,,,,,,,,,,,,,,,,,,,,,,"[7,2,9,1,5,3,6,4,8,7,8,6,9,1,3]",2,0,2,0,1,,,,,,,,,,,,,,,,,,,,,,,,,,,,,,,,,,,,,,,,,,,,,,,,
,,620bde55a922fc3f247f6e52,2022-09-08_13h55.18.924,CGTgamblingSpanTasks,2022.2.1,Win32,29.99220203,,,,,,,,,,,,,,,,,,,,,,,,,,,,,,,,,,,,,,,,,,,,,,,,,,,,,,,,,,,,,,,,,,,,,,,,,,,,,,,,,,"[7,2,9,1,5,3,6,4,8,7,8,6,9,1,3]",3,0,3,0,1,,,,,,,,,,,,,,,,,,,,,,,,,,,,,,,,,,,,,,,,,,,,,,,,
,,620bde55a922fc3f247f6e52,2022-09-08_13h55.18.924,CGTgamblingSpanTasks,2022.2.1,Win32,29.99220203,,,,,,,,,,,,,,,,,,,,,,,,,,,,,,,,,,,,,,,,,,,,,,,,,,,,,,,,,,,,,,,,,,,,,,,,,,,,,,,,,,"[7,2,9,1,5,3,6,4,8,7,8,6,9,1,3]",4,0,4,0,1,,,,,,,,,,,,,,,,,,,,,,,,,,,,,,,,,,,,,,,,,,,,,,,,
,,620bde55a922fc3f247f6e52,2022-09-08_13h55.18.924,CGTgamblingSpanTasks,2022.2.1,Win32,29.99220203,,,,,,,,,,,,,,,,,,,,,,,,,,,,,,,,,,,,,,,,,,,,,,,,,,,,,,,,,,,,,,,,,,,,,,,,,,,,,,,,,,"[7,2,9,1,5,3,6,4,8,7,8,6,9,1,3]",5,0,5,0,1,,,,,,,,,,,,,,,,,,,,,,,,,,,,,,,,,,,,,,,,,,,,,,,,
,,620bde55a922fc3f247f6e52,2022-09-08_13h55.18.924,CGTgamblingSpanTasks,2022.2.1,Win32,29.99220203,,,,,,,,,,,,,,,,,,,,,,,,,,,,,,,,,,,,,,,,,,,,,,,,,,,,,,,,,,,,,,,,,,,,,,,,,,,,,,,,,,"[7,2,9,1,5,3,6,4,8,7,8,6,9,1,3]",6,0,6,0,1,,,,,,,,,,,,,,,,,,,,,,,,,,,,,,,,,,,,,,,,,,,,,,,,
,,620bde55a922fc3f247f6e52,2022-09-08_13h55.18.924,CGTgamblingSpanTasks,2022.2.1,Win32,29.99220203,,,,,,,,,,,,,,,,,,,,,,,,,,,,,,,,,,,,,,,,,,,,,,,,,,,,,,,,,,,,,,,,,,,,,,,,,,,,,,,,,,"[7,2,9,1,5,3,6,4,8,7,8,6,9,1,3]",7,0,7,0,1,,,,,,,,,,,,,,,,,,,,,,,,,,,,,,,,,,,,,,,,,,,,,,,,
,,620bde55a922fc3f247f6e52,2022-09-08_13h55.18.924,CGTgamblingSpanTasks,2022.2.1,Win32,29.99220203,,,,,,,,,,,,,,,,,,,,,,,,,,,,,,,,,,,,,,,,,,,,,,,,,,,,,,,,,,,,,,,,,,,,,,,,,,,,,,,,,,"[7,2,9,1,5,3,6,4,8,7,8,6,9,1,3]",8,0,8,0,1,,,,,,,,,,,,,,,,,,,,,,,,,,,,,,,,,,,,,,,,,,,,,,,,
,,620bde55a922fc3f247f6e52,2022-09-08_13h55.18.924,CGTgamblingSpanTasks,2022.2.1,Win32,29.99220203,,,,,,,,,,,,,,,,,,,,,,,,,,,,,,,,,,,,,,,,,,,,,,,,,,,,,,,,,,,,,,,,,,,,,,,,,,,,,,,,,,"[7,2,9,1,5,3,6,4,8,7,8,6,9,1,3]",9,0,9,0,1,,,,,,,,,,,,,,,,,,,,,,,,,,,,,,,,,,,,,,,,,,,,,,,,
,,620bde55a922fc3f247f6e52,2022-09-08_13h55.18.924,CGTgamblingSpanTasks,2022.2.1,Win32,29.99220203,,,,,,,,,,,,,,,,,,,,,,,,,,,,,,,,,,,,,,,,,,,,,,,,,,,,,,,,,,,,,,,,,,,,,,,,,,,,,,,,,,"[7,2,9,1,5,3,6,4,8,7,8,6,9,1,3]",10,0,10,0,1,,,,,,,,,,,,,,,,,,,,,,,,,,,,,,,,,,,,,,,,,,,,,,,,
,,620bde55a922fc3f247f6e52,2022-09-08_13h55.18.924,CGTgamblingSpanTasks,2022.2.1,Win32,29.99220203,,,,,,,,,,,,,,,,,,,,,,,,,,,,,,,,,,,,,,,,,,,,,,,,,,,,,,,,,,,,,,,,,,,,,,,,,,,,,,,,,,"[7,2,9,1,5,3,6,4,8,7,8,6,9,1,3]",11,0,11,0,1,,,,,,,,,,,,,,,,,,,,,,,,,,,,,,,,,,,,,,,,,,,,,,,,
,,620bde55a922fc3f247f6e52,2022-09-08_13h55.18.924,CGTgamblingSpanTasks,2022.2.1,Win32,29.99220203,,,,,,,,,,,,,,,,,,,,,,,,,,,,,,,,,,,,,,,,,,,,,,,,,,,,,,,,,,,,,,,,,,,,,,,,,,,,,,,,,,"[7,2,9,1,5,3,6,4,8,7,8,6,9,1,3]",12,0,12,0,1,,,,,,,,,,,,,,,,,,,,,,,,,,,,,,,,,,,,,,,,,,,,,,,,
,,620bde55a922fc3f247f6e52,2022-09-08_13h55.18.924,CGTgamblingSpanTasks,2022.2.1,Win32,29.99220203,,,,,,,,,,,,,,,,,,,,,,,,,,,,,,,,,,,,,,,,,,,,,,,,,,,,,,,,,,,,,,,,,,,,,,,,,,,,,,,,,,"[7,2,9,1,5,3,6,4,8,7,8,6,9,1,3]",13,0,13,0,1,,,,,,,,,,,,,,,,,,,,,,,,,,,,,,,,,,,,,,,,,,,,,,,,
,,620bde55a922fc3f247f6e52,2022-09-08_13h55.18.924,CGTgamblingSpanTasks,2022.2.1,Win32,29.99220203,,,,,,,,,,,,,,,,,,,,,,,,,,,,,,,,,,,,,,,,,,,,,,,,,,,,,,,,,,,,,,,,,,,,,,,,,,,,,,,,,,"[7,2,9,1,5,3,6,4,8,7,8,6,9,1,3]",14,0,14,0,1,,,,,,,,,,,,,,,,,,,,,,,,,,,,,,,,,,,,,,,,,,,,,,,,
,,620bde55a922fc3f247f6e52,2022-09-08_13h55.18.924,CGTgamblingSpanTasks,2022.2.1,Win32,29.99220203,,,,,,,,,,,,,,,,,,,,,,,,,,,,,,,,,,,,,,,,,,,,,,,,,,,,,,,,,,,,,,,1,,,,,,,,,,,,,,,,,,,,,,,,,729153648786913,0.012326656,-0.419876733,1,0,0,cont_button,0,12,12,12,1,13,,,,,,,,,,,,,,,,,,,,,,,,,,,,,,,,,,,
,,620bde55a922fc3f247f6e52,2022-09-08_13h55.18.924,CGTgamblingSpanTasks,2022.2.1,Win32,29.99220203,,,,,,,,,,,,,,,,,,,,,,,,,,,,,,,,,,,,,,,,,,,,,,,,,,,,,,,,,,,,,,,,,,,,,,,,,,,,,,,,,,"[8,5,2,7,1,3,6,4,9,9,1,2,5,8,6,4]",0,0,0,0,1,,,,,,,,,,,,,,,,,,,,,,,,,,,,,,,,,,,,,,,,,,,,,,,,
,,620bde55a922fc3f247f6e52,2022-09-08_13h55.18.924,CGTgamblingSpanTasks,2022.2.1,Win32,29.99220203,,,,,,,,,,,,,,,,,,,,,,,,,,,,,,,,,,,,,,,,,,,,,,,,,,,,,,,,,,,,,,,,,,,,,,,,,,,,,,,,,,"[8,5,2,7,1,3,6,4,9,9,1,2,5,8,6,4]",1,0,1,0,1,,,,,,,,,,,,,,,,,,,,,,,,,,,,,,,,,,,,,,,,,,,,,,,,
,,620bde55a922fc3f247f6e52,2022-09-08_13h55.18.924,CGTgamblingSpanTasks,2022.2.1,Win32,29.99220203,,,,,,,,,,,,,,,,,,,,,,,,,,,,,,,,,,,,,,,,,,,,,,,,,,,,,,,,,,,,,,,,,,,,,,,,,,,,,,,,,,"[8,5,2,7,1,3,6,4,9,9,1,2,5,8,6,4]",2,0,2,0,1,,,,,,,,,,,,,,,,,,,,,,,,,,,,,,,,,,,,,,,,,,,,,,,,
,,620bde55a922fc3f247f6e52,2022-09-08_13h55.18.924,CGTgamblingSpanTasks,2022.2.1,Win32,29.99220203,,,,,,,,,,,,,,,,,,,,,,,,,,,,,,,,,,,,,,,,,,,,,,,,,,,,,,,,,,,,,,,,,,,,,,,,,,,,,,,,,,"[8,5,2,7,1,3,6,4,9,9,1,2,5,8,6,4]",3,0,3,0,1,,,,,,,,,,,,,,,,,,,,,,,,,,,,,,,,,,,,,,,,,,,,,,,,
,,620bde55a922fc3f247f6e52,2022-09-08_13h55.18.924,CGTgamblingSpanTasks,2022.2.1,Win32,29.99220203,,,,,,,,,,,,,,,,,,,,,,,,,,,,,,,,,,,,,,,,,,,,,,,,,,,,,,,,,,,,,,,,,,,,,,,,,,,,,,,,,,"[8,5,2,7,1,3,6,4,9,9,1,2,5,8,6,4]",4,0,4,0,1,,,,,,,,,,,,,,,,,,,,,,,,,,,,,,,,,,,,,,,,,,,,,,,,
,,620bde55a922fc3f247f6e52,2022-09-08_13h55.18.924,CGTgamblingSpanTasks,2022.2.1,Win32,29.99220203,,,,,,,,,,,,,,,,,,,,,,,,,,,,,,,,,,,,,,,,,,,,,,,,,,,,,,,,,,,,,,,,,,,,,,,,,,,,,,,,,,"[8,5,2,7,1,3,6,4,9,9,1,2,5,8,6,4]",5,0,5,0,1,,,,,,,,,,,,,,,,,,,,,,,,,,,,,,,,,,,,,,,,,,,,,,,,
,,620bde55a922fc3f247f6e52,2022-09-08_13h55.18.924,CGTgamblingSpanTasks,2022.2.1,Win32,29.99220203,,,,,,,,,,,,,,,,,,,,,,,,,,,,,,,,,,,,,,,,,,,,,,,,,,,,,,,,,,,,,,,,,,,,,,,,,,,,,,,,,,"[8,5,2,7,1,3,6,4,9,9,1,2,5,8,6,4]",6,0,6,0,1,,,,,,,,,,,,,,,,,,,,,,,,,,,,,,,,,,,,,,,,,,,,,,,,
,,620bde55a922fc3f247f6e52,2022-09-08_13h55.18.924,CGTgamblingSpanTasks,2022.2.1,Win32,29.99220203,,,,,,,,,,,,,,,,,,,,,,,,,,,,,,,,,,,,,,,,,,,,,,,,,,,,,,,,,,,,,,,,,,,,,,,,,,,,,,,,,,"[8,5,2,7,1,3,6,4,9,9,1,2,5,8,6,4]",7,0,7,0,1,,,,,,,,,,,,,,,,,,,,,,,,,,,,,,,,,,,,,,,,,,,,,,,,
,,620bde55a922fc3f247f6e52,2022-09-08_13h55.18.924,CGTgamblingSpanTasks,2022.2.1,Win32,29.99220203,,,,,,,,,,,,,,,,,,,,,,,,,,,,,,,,,,,,,,,,,,,,,,,,,,,,,,,,,,,,,,,,,,,,,,,,,,,,,,,,,,"[8,5,2,7,1,3,6,4,9,9,1,2,5,8,6,4]",8,0,8,0,1,,,,,,,,,,,,,,,,,,,,,,,,,,,,,,,,,,,,,,,,,,,,,,,,
,,620bde55a922fc3f247f6e52,2022-09-08_13h55.18.924,CGTgamblingSpanTasks,2022.2.1,Win32,29.99220203,,,,,,,,,,,,,,,,,,,,,,,,,,,,,,,,,,,,,,,,,,,,,,,,,,,,,,,,,,,,,,,,,,,,,,,,,,,,,,,,,,"[8,5,2,7,1,3,6,4,9,9,1,2,5,8,6,4]",9,0,9,0,1,,,,,,,,,,,,,,,,,,,,,,,,,,,,,,,,,,,,,,,,,,,,,,,,
,,620bde55a922fc3f247f6e52,2022-09-08_13h55.18.924,CGTgamblingSpanTasks,2022.2.1,Win32,29.99220203,,,,,,,,,,,,,,,,,,,,,,,,,,,,,,,,,,,,,,,,,,,,,,,,,,,,,,,,,,,,,,,,,,,,,,,,,,,,,,,,,,"[8,5,2,7,1,3,6,4,9,9,1,2,5,8,6,4]",10,0,10,0,1,,,,,,,,,,,,,,,,,,,,,,,,,,,,,,,,,,,,,,,,,,,,,,,,
,,620bde55a922fc3f247f6e52,2022-09-08_13h55.18.924,CGTgamblingSpanTasks,2022.2.1,Win32,29.99220203,,,,,,,,,,,,,,,,,,,,,,,,,,,,,,,,,,,,,,,,,,,,,,,,,,,,,,,,,,,,,,,,,,,,,,,,,,,,,,,,,,"[8,5,2,7,1,3,6,4,9,9,1,2,5,8,6,4]",11,0,11,0,1,,,,,,,,,,,,,,,,,,,,,,,,,,,,,,,,,,,,,,,,,,,,,,,,
,,620bde55a922fc3f247f6e52,2022-09-08_13h55.18.924,CGTgamblingSpanTasks,2022.2.1,Win32,29.99220203,,,,,,,,,,,,,,,,,,,,,,,,,,,,,,,,,,,,,,,,,,,,,,,,,,,,,,,,,,,,,,,,,,,,,,,,,,,,,,,,,,"[8,5,2,7,1,3,6,4,9,9,1,2,5,8,6,4]",12,0,12,0,1,,,,,,,,,,,,,,,,,,,,,,,,,,,,,,,,,,,,,,,,,,,,,,,,
,,620bde55a922fc3f247f6e52,2022-09-08_13h55.18.924,CGTgamblingSpanTasks,2022.2.1,Win32,29.99220203,,,,,,,,,,,,,,,,,,,,,,,,,,,,,,,,,,,,,,,,,,,,,,,,,,,,,,,,,,,,,,,,,,,,,,,,,,,,,,,,,,"[8,5,2,7,1,3,6,4,9,9,1,2,5,8,6,4]",13,0,13,0,1,,,,,,,,,,,,,,,,,,,,,,,,,,,,,,,,,,,,,,,,,,,,,,,,
,,620bde55a922fc3f247f6e52,2022-09-08_13h55.18.924,CGTgamblingSpanTasks,2022.2.1,Win32,29.99220203,,,,,,,,,,,,,,,,,,,,,,,,,,,,,,,,,,,,,,,,,,,,,,,,,,,,,,,,,,,,,,,,,,,,,,,,,,,,,,,,,,"[8,5,2,7,1,3,6,4,9,9,1,2,5,8,6,4]",14,0,14,0,1,,,,,,,,,,,,,,,,,,,,,,,,,,,,,,,,,,,,,,,,,,,,,,,,
,,620bde55a922fc3f247f6e52,2022-09-08_13h55.18.924,CGTgamblingSpanTasks,2022.2.1,Win32,29.99220203,,,,,,,,,,,,,,,,,,,,,,,,,,,,,,,,,,,,,,,,,,,,,,,,,,,,,,,,,,,,,,,,,,,,,,,,,,,,,,,,,,"[8,5,2,7,1,3,6,4,9,9,1,2,5,8,6,4]",15,0,15,0,1,,,,,,,,,,,,,,,,,,,,,,,,,,,,,,,,,,,,,,,,,,,,,,,,
,,620bde55a922fc3f247f6e52,2022-09-08_13h55.18.924,CGTgamblingSpanTasks,2022.2.1,Win32,29.99220203,,,,,,,,,,,,,,,,,,,,,,,,,,,,,,,,,,,,,,,,,,,,,,,,,,,,,,,,,,,,,,,1,,,,,,,,,,,,,,,,,,,,,,,,,8527136499125864,0.043143297,-0.407550077,1,0,0,cont_button,0,13,13,13,1,14,,,,,,,,,,,,,,,,,,,,,,,,,,,,,,,,,,,
,,620bde55a922fc3f247f6e52,2022-09-08_13h55.18.924,CGTgamblingSpanTasks,2022.2.1,Win32,29.99220203,,,,,,,,,,,,,,,,,,,,,,,,,,,,,,,,,,,,,,,,,,,,,,,,,,,,,,,,,,,,,,,,,,,,,,,,,,,,,,,,,,,,,,,,,,,,,,,,,,,,,return,556.8383,,,,,,,,,,,,,,,,,,,,,,,,,,,,,,,,,
,,620bde55a922fc3f247f6e52,2022-09-08_13h55.18.924,CGTgamblingSpanTasks,2022.2.1,Win32,29.99220203,,,,,,,,,,,,,,,,,,,,,,,,,,,,,,,,,,,,,,,,,,,,,,,,,,,,,,,,,,,,,,,,,,,,,,,,,,,,,,,,,,,,,,,,,,,,,,,,,,,,,,,return,15.9887,,,,,,,,,,,,,,,,,,,,,,,,,,,,,,,
,,620bde55a922fc3f247f6e52,2022-09-08_13h55.18.924,CGTgamblingSpanTasks,2022.2.1,Win32,29.99220203,,,,,,,,,,,,,,,,,,,,,,,,,,,,,,,,,,,,,,,,,,,,,,,,,,,,,,,,,,,,,,,1,,,,,,,,,,,,3,342,24,2,42,,,,,,,,,,,,,,,,,,,,,,,,,,42,0.032357473,-0.369029276,1,0,0,cont_buttonPractice_2,0,0,0,0,1,,,,,,,,,,,,,,,,,,,
,,620bde55a922fc3f247f6e52,2022-09-08_13h55.18.924,CGTgamblingSpanTasks,2022.2.1,Win32,29.99220203,,,,,,,,,,,,,,,,,,,,,,,,,,,,,,,,,,,,,,,,,,,,,,,,,,,,,,,,,,,,,,,1,,,,,,,,,,,,3,937,73,2,37,,,,,,,,,,,,,,,,,,,,,,,,,,37,0.033898305,-0.402927581,1,0,0,cont_buttonPractice_2,0,1,1,1,1,,,,,,,,,,,,,,,,,,,
,,620bde55a922fc3f247f6e52,2022-09-08_13h55.18.924,CGTgamblingSpanTasks,2022.2.1,Win32,29.99220203,,,,,,,,,,,,,,,,,,,,,,,,,,,,,,,,,,,,,,,,,,,,,,,,,,,,,,,,,,,,,,,,,,,,,,,,,,,,,,,,,,,,,,,,,,,,,,,,,,,,,,,,,,,,,,,,,,,,,return,9.0169,,,,,,,,,,,,,,,,,
,,620bde55a922fc3f247f6e52,2022-09-08_13h55.18.924,CGTgamblingSpanTasks,2022.2.1,Win32,29.99220203,,,,,,,,,,,,,,,,,,,,,,,,,,,,,,,,,,,,,,,,,,,,,,,,,,,,,,,,,,,,,,,,,,,,,,,,,,,,,,,,,,"[9,1]",,,,,,,,,,,,,,,,,,,,,,,,,,,,,,,,,,,,,0,0,0,0,1,,,,,,,,,,,,
,,620bde55a922fc3f247f6e52,2022-09-08_13h55.18.924,CGTgamblingSpanTasks,2022.2.1,Win32,29.99220203,,,,,,,,,,,,,,,,,,,,,,,,,,,,,,,,,,,,,,,,,,,,,,,,,,,,,,,,,,,,,,,,,,,,,,,,,,,,,,,,,,"[9,1]",,,,,,,,,,,,,,,,,,,,,,,,,,,,,,,,,,,,,1,0,1,0,1,,,,,,,,,,,,
,,620bde55a922fc3f247f6e52,2022-09-08_13h55.18.924,CGTgamblingSpanTasks,2022.2.1,Win32,29.99220203,,,,,,,,,,,,,,,,,,,,,,,,,,,,,,,,,,,,,,,,,,,,,,,,,,,,,,,,,,,,,,,1,,,,,,,,,,,,,,,,,,,,,,,,,,,,,,,,,,,,,1,,,,,,,,,,,,,,,,,,,,,,,,19,-0.010785824,-0.384437596,1,0,0,cont_buttonBS,0,0,0,0,1
