initITIstatic,initITIdynamic,participant,date,expName,psychopyVersion,OS,frameRate,inst1.keys,inst1.rt,startPracResp.keys,startPracResp.rt,choice1.keys,choice1.rt,outcome,extraITI,trials.thisRepN,trials.thisTrialN,trials.thisN,trials.thisIndex,trials.ran,riskyGain,riskyLoss,alternative,isi,iti,loc,postPractResp.keys,postPractResp.rt,realloc,realChoice.keys,realChoice.rt,outcomes,choices,actualITI,init ITI,staticRDM.thisRepN,staticRDM.thisTrialN,staticRDM.thisN,staticRDM.thisIndex,staticRDM.ran,riskyoption1,riskyoption2,safeoption,ischecktrial,dynamicChoiceSetName,dynamicChoiceSetPath,bestRho,bestMu,trials_2.thisRepN,trials_2.thisTrialN,trials_2.thisN,trials_2.thisIndex,trials_2.ran,key_resp.keys,key_resp.rt,dynamicRDM.thisRepN,dynamicRDM.thisTrialN,dynamicRDM.thisN,dynamicRDM.thisIndex,dynamicRDM.ran,choiceP,easy0difficult1,stopBreak.keys,stopBreak.rt,movealong.keys,movealong.rt,startPractice.keys,startPractice.rt,textboxPractice.text,correct,mousePractice.x,mousePractice.y,mousePractice.leftButton,mousePractice.midButton,mousePractice.rightButton,mousePractice.clicked_name,trialFSPractice.thisRepN,trialFSPractice.thisTrialN,trialFSPractice.thisN,trialFSPractice.thisIndex,trialFSPractice.ran,digitSpanForward,digits,digitsReverse,digitSpanReverse,digitsReverseCorrAnswer,startFSreal.keys,startFSreal.rt,digitsForTrial,digitLoop.thisRepN,digitLoop.thisTrialN,digitLoop.thisN,digitLoop.thisIndex,digitLoop.ran,textbox.text,mouse_3.x,mouse_3.y,mouse_3.leftButton,mouse_3.midButton,mouse_3.rightButton,mouse_3.clicked_name,trialsFS.thisRepN,trialsFS.thisTrialN,trialsFS.thisN,trialsFS.thisIndex,trialsFS.ran,trialNumber,moveToBS.keys,moveToBS.rt,startBSprac.keys,startBSprac.rt,textboxPractice_2.text,mousePractice_2.x,mousePractice_2.y,mousePractice_2.leftButton,mousePractice_2.midButton,mousePractice_2.rightButton,mousePractice_2.clicked_name,trialsPracticeBS.thisRepN,trialsPracticeBS.thisTrialN,trialsPracticeBS.thisN,trialsPracticeBS.thisIndex,trialsPracticeBS.ran,startBSreal.keys,startBSreal.rt,digitLoopBS.thisRepN,digitLoopBS.thisTrialN,digitLoopBS.thisN,digitLoopBS.thisIndex,digitLoopBS.ran,textboxBS.text,mouseBS.x,mouseBS.y,mouseBS.leftButton,mouseBS.midButton,mouseBS.rightButton,mouseBS.clicked_name,trialsBS.thisRepN,trialsBS.thisTrialN,trialsBS.thisN,trialsBS.thisIndex,trialsBS.ran
"[1,1.5,1.5,1,1,1.5,1,1,1.5,1,1,1.5,1,1.5,1,1.5,1.5,1.5,1.5,1.5,1,1,1,1,1.5,1,1.5,1.5,1,1,1.5,1,1.5,1,1.5,1,1,1.5,1,1.5,1,1,1.5,1,1.5,1.5,1.5,1.5,1,1.5]","[1,1.5,1.5,1.5,1,1,1.5,1.5,1,1.5,1,1,1,1,1.5,1,1.5,1,1.5,1.5,1,1,1.5,1,1.5,1.5,1,1.5,1.5,1.5,1,1,1.5,1,1.5,1,1,1.5,1,1.5,1.5,1,1.5,1,1.5,1,1,1,1.5,1.5,1.5,1,1.5,1,1.5,1.5,1,1,1,1,1.5,1,1.5,1,1.5,1,1.5,1.5,1.5,1.5,1.5,1.5,1,1,1,1,1.5,1.5,1,1.5,1,1.5,1.5,1,1.5,1.5,1,1.5,1,1,1.5,1,1,1,1.5,1,1.5,1,1.5,1.5,1.5,1,1,1,1,1,1,1.5,1,1.5,1,1.5,1.5,1.5,1.5,1.5,1,1.5,1,1]",614d465852620924f85603c8,2022-09-08_13h27.45.602,CGTgamblingSpanTasks,2022.2.1,Win32,59.73715651,,,,,,,,,,,,,,,,,,,,,,,,,,,,,,,,,,,,,,,,,,,,,,,,,,,,,,,,,,,,,,,,,,,,,,,,,,,,,,,,,,,,,,,,,,,,,,,,,,,,,,,,,,,,,,,,,,,,,,,,,,,,,,,,,,,,,,,
,,614d465852620924f85603c8,2022-09-08_13h27.45.602,CGTgamblingSpanTasks,2022.2.1,Win32,59.73715651,return,110.674,,,,,,,,,,,,,,,,,,,,,,,,,,,,,,,,,,,,,,,,,,,,,,,,,,,,,,,,,,,,,,,,,,,,,,,,,,,,,,,,,,,,,,,,,,,,,,,,,,,,,,,,,,,,,,,,,,,,,,,,,,,,,,,,,,,,,
,,614d465852620924f85603c8,2022-09-08_13h27.45.602,CGTgamblingSpanTasks,2022.2.1,Win32,59.73715651,,,v,6.876,,,,,,,,,,,,,,,,,,,,,,,,,,,,,,,,,,,,,,,,,,,,,,,,,,,,,,,,,,,,,,,,,,,,,,,,,,,,,,,,,,,,,,,,,,,,,,,,,,,,,,,,,,,,,,,,,,,,,,,,,,,,,,,,,,,
,,614d465852620924f85603c8,2022-09-08_13h27.45.602,CGTgamblingSpanTasks,2022.2.1,Win32,59.73715651,,,,,n,0.002,9.45,3.998,0,0,0,0,1,18.23,0,9.45,2,1,1,,,,,,,,,,,,,,,,,,,,,,,,,,,,,,,,,,,,,,,,,,,,,,,,,,,,,,,,,,,,,,,,,,,,,,,,,,,,,,,,,,,,,,,,,,,,,,,,,,,,,,,,,,,,,,,,,,,,
,,614d465852620924f85603c8,2022-09-08_13h27.45.602,CGTgamblingSpanTasks,2022.2.1,Win32,59.73715651,,,,,v,2.084,0,1.916,0,1,1,1,1,53.27,0,35.16,1,1.5,1,,,,,,,,,,,,,,,,,,,,,,,,,,,,,,,,,,,,,,,,,,,,,,,,,,,,,,,,,,,,,,,,,,,,,,,,,,,,,,,,,,,,,,,,,,,,,,,,,,,,,,,,,,,,,,,,,,,,
,,614d465852620924f85603c8,2022-09-08_13h27.45.602,CGTgamblingSpanTasks,2022.2.1,Win32,59.73715651,,,,,n,1.6,8.27,2.4,0,2,2,2,1,8.27,0,1.15,1,1.5,2,,,,,,,,,,,,,,,,,,,,,,,,,,,,,,,,,,,,,,,,,,,,,,,,,,,,,,,,,,,,,,,,,,,,,,,,,,,,,,,,,,,,,,,,,,,,,,,,,,,,,,,,,,,,,,,,,,,,
,,614d465852620924f85603c8,2022-09-08_13h27.45.602,CGTgamblingSpanTasks,2022.2.1,Win32,59.73715651,,,,,v,1.338,0,2.662,0,3,3,3,1,45.88,0,40.41,3,1,1,,,,,,,,,,,,,,,,,,,,,,,,,,,,,,,,,,,,,,,,,,,,,,,,,,,,,,,,,,,,,,,,,,,,,,,,,,,,,,,,,,,,,,,,,,,,,,,,,,,,,,,,,,,,,,,,,,,,
,,614d465852620924f85603c8,2022-09-08_13h27.45.602,CGTgamblingSpanTasks,2022.2.1,Win32,59.73715651,,,,,v,1.684,11.96,2.316,0,4,4,4,1,21.56,0,11.96,1,1.5,2,,,,,,,,,,,,,,,,,,,,,,,,,,,,,,,,,,,,,,,,,,,,,,,,,,,,,,,,,,,,,,,,,,,,,,,,,,,,,,,,,,,,,,,,,,,,,,,,,,,,,,,,,,,,,,,,,,,,
,,614d465852620924f85603c8,2022-09-08_13h27.45.602,CGTgamblingSpanTasks,2022.2.1,Win32,59.73715651,,,,,,,,,,,,,,,,,,,,v,6.332,,,,,,,,,,,,,,,,,,,,,,,,,,,,,,,,,,,,,,,,,,,,,,,,,,,,,,,,,,,,,,,,,,,,,,,,,,,,,,,,,,,,,,,,,,,,,,,,,,,,,,,,,,,,,,,,,,
,,614d465852620924f85603c8,2022-09-08_13h27.45.602,CGTgamblingSpanTasks,2022.2.1,Win32,59.73715651,,,,,,,,2.198,,,,,,,,,,,,,,1,n,1.802,5.66,0,3.198,1,0,0,0,14,1,12.68,0,5.66,0,,,,,,,,,,,,,,,,,,,,,,,,,,,,,,,,,,,,,,,,,,,,,,,,,,,,,,,,,,,,,,,,,,,,,,,,,,,,,,,,,,,,,,,,,,,,,,,,,,
,,614d465852620924f85603c8,2022-09-08_13h27.45.602,CGTgamblingSpanTasks,2022.2.1,Win32,59.73715651,,,,,,,,2.466,,,,,,,,,,,,,,1,v,1.534,25.2,1,3.966,1.5,0,1,1,3,1,25.2,0,5.4,0,,,,,,,,,,,,,,,,,,,,,,,,,,,,,,,,,,,,,,,,,,,,,,,,,,,,,,,,,,,,,,,,,,,,,,,,,,,,,,,,,,,,,,,,,,,,,,,,,,
,,614d465852620924f85603c8,2022-09-08_13h27.45.602,CGTgamblingSpanTasks,2022.2.1,Win32,59.73715651,,,,,,,,2.264,,,,,,,,,,,,,,1,n,1.736,8.07,0,3.764,1.5,0,2,2,11,1,19.86,0,8.07,0,,,,,,,,,,,,,,,,,,,,,,,,,,,,,,,,,,,,,,,,,,,,,,,,,,,,,,,,,,,,,,,,,,,,,,,,,,,,,,,,,,,,,,,,,,,,,,,,,,
,,614d465852620924f85603c8,2022-09-08_13h27.45.602,CGTgamblingSpanTasks,2022.2.1,Win32,59.73715651,,,,,,,,1.598,,,,,,,,,,,,,,1,v,2.402,13.94,1,2.598,1,0,3,3,8,1,13.94,0,5.03,0,,,,,,,,,,,,,,,,,,,,,,,,,,,,,,,,,,,,,,,,,,,,,,,,,,,,,,,,,,,,,,,,,,,,,,,,,,,,,,,,,,,,,,,,,,,,,,,,,,
,,614d465852620924f85603c8,2022-09-08_13h27.45.602,CGTgamblingSpanTasks,2022.2.1,Win32,59.73715651,,,,,,,,2.116,,,,,,,,,,,,,,2,v,1.884,8.36,0,3.116,1,0,4,4,13,1,19.28,0,8.36,0,,,,,,,,,,,,,,,,,,,,,,,,,,,,,,,,,,,,,,,,,,,,,,,,,,,,,,,,,,,,,,,,,,,,,,,,,,,,,,,,,,,,,,,,,,,,,,,,,,
,,614d465852620924f85603c8,2022-09-08_13h27.45.602,CGTgamblingSpanTasks,2022.2.1,Win32,59.73715651,,,,,,,,2.566,,,,,,,,,,,,,,1,n,1.434,9.87,0,4.066,1.5,0,5,5,29,1,16.26,0,9.87,0,,,,,,,,,,,,,,,,,,,,,,,,,,,,,,,,,,,,,,,,,,,,,,,,,,,,,,,,,,,,,,,,,,,,,,,,,,,,,,,,,,,,,,,,,,,,,,,,,,
,,614d465852620924f85603c8,2022-09-08_13h27.45.602,CGTgamblingSpanTasks,2022.2.1,Win32,59.73715651,,,,,,,,2.481,,,,,,,,,,,,,,1,n,1.519,3.13,0,3.481,1,0,6,6,47,1,0,0,3.13,1,,,,,,,,,,,,,,,,,,,,,,,,,,,,,,,,,,,,,,,,,,,,,,,,,,,,,,,,,,,,,,,,,,,,,,,,,,,,,,,,,,,,,,,,,,,,,,,,,,
,,614d465852620924f85603c8,2022-09-08_13h27.45.602,CGTgamblingSpanTasks,2022.2.1,Win32,59.73715651,,,,,,,,2.666,,,,,,,,,,,,,,1,n,1.334,6.88,0,3.666,1,0,7,7,36,1,10.24,0,6.88,0,,,,,,,,,,,,,,,,,,,,,,,,,,,,,,,,,,,,,,,,,,,,,,,,,,,,,,,,,,,,,,,,,,,,,,,,,,,,,,,,,,,,,,,,,,,,,,,,,,
,,614d465852620924f85603c8,2022-09-08_13h27.45.602,CGTgamblingSpanTasks,2022.2.1,Win32,59.73715651,,,,,,,,2.82,,,,,,,,,,,,,,1,v,1.18,17.73,1,4.32,1.5,0,8,8,2,1,17.73,0,3.13,0,,,,,,,,,,,,,,,,,,,,,,,,,,,,,,,,,,,,,,,,,,,,,,,,,,,,,,,,,,,,,,,,,,,,,,,,,,,,,,,,,,,,,,,,,,,,,,,,,,
,,614d465852620924f85603c8,2022-09-08_13h27.45.602,CGTgamblingSpanTasks,2022.2.1,Win32,59.73715651,,,,,,,,2.82,,,,,,,,,,,,,,1,n,1.18,7.55,0,3.82,1,0,9,9,45,1,0,0,7.55,1,,,,,,,,,,,,,,,,,,,,,,,,,,,,,,,,,,,,,,,,,,,,,,,,,,,,,,,,,,,,,,,,,,,,,,,,,,,,,,,,,,,,,,,,,,,,,,,,,,
,,614d465852620924f85603c8,2022-09-08_13h27.45.602,CGTgamblingSpanTasks,2022.2.1,Win32,59.73715651,,,,,,,,2.777,,,,,,,,,,,,,,1,v,1.223,14.26,1,3.777,1,0,10,10,41,1,14.26,0,0,1,,,,,,,,,,,,,,,,,,,,,,,,,,,,,,,,,,,,,,,,,,,,,,,,,,,,,,,,,,,,,,,,,,,,,,,,,,,,,,,,,,,,,,,,,,,,,,,,,,
,,614d465852620924f85603c8,2022-09-08_13h27.45.602,CGTgamblingSpanTasks,2022.2.1,Win32,59.73715651,,,,,,,,3.193,,,,,,,,,,,,,,1,v,0.807,0,1,4.693,1.5,0,11,11,40,1,10.35,0,0,1,,,,,,,,,,,,,,,,,,,,,,,,,,,,,,,,,,,,,,,,,,,,,,,,,,,,,,,,,,,,,,,,,,,,,,,,,,,,,,,,,,,,,,,,,,,,,,,,,,
,,614d465852620924f85603c8,2022-09-08_13h27.45.602,CGTgamblingSpanTasks,2022.2.1,Win32,59.73715651,,,,,,,,2.533,,,,,,,,,,,,,,2,n,1.467,0,1,3.533,1,0,12,12,1,1,28.21,0,3.89,0,,,,,,,,,,,,,,,,,,,,,,,,,,,,,,,,,,,,,,,,,,,,,,,,,,,,,,,,,,,,,,,,,,,,,,,,,,,,,,,,,,,,,,,,,,,,,,,,,,
,,614d465852620924f85603c8,2022-09-08_13h27.45.602,CGTgamblingSpanTasks,2022.2.1,Win32,59.73715651,,,,,,,,2.465,,,,,,,,,,,,,,1,n,1.535,9.36,0,3.965,1.5,0,13,13,23,1,17.28,0,9.36,0,,,,,,,,,,,,,,,,,,,,,,,,,,,,,,,,,,,,,,,,,,,,,,,,,,,,,,,,,,,,,,,,,,,,,,,,,,,,,,,,,,,,,,,,,,,,,,,,,,
,,614d465852620924f85603c8,2022-09-08_13h27.45.602,CGTgamblingSpanTasks,2022.2.1,Win32,59.73715651,,,,,,,,2.468,,,,,,,,,,,,,,2,n,1.532,13.45,1,3.468,1,0,14,14,10,1,13.45,0,5.27,0,,,,,,,,,,,,,,,,,,,,,,,,,,,,,,,,,,,,,,,,,,,,,,,,,,,,,,,,,,,,,,,,,,,,,,,,,,,,,,,,,,,,,,,,,,,,,,,,,,
,,614d465852620924f85603c8,2022-09-08_13h27.45.602,CGTgamblingSpanTasks,2022.2.1,Win32,59.73715651,,,,,,,,2.649,,,,,,,,,,,,,,1,v,1.351,0,1,4.149,1.5,0,15,15,5,1,22.97,0,6.51,0,,,,,,,,,,,,,,,,,,,,,,,,,,,,,,,,,,,,,,,,,,,,,,,,,,,,,,,,,,,,,,,,,,,,,,,,,,,,,,,,,,,,,,,,,,,,,,,,,,
,,614d465852620924f85603c8,2022-09-08_13h27.45.602,CGTgamblingSpanTasks,2022.2.1,Win32,59.73715651,,,,,,,,2.994,,,,,,,,,,,,,,2,v,1.006,10.25,0,4.494,1.5,0,16,16,46,1,0,0,10.25,1,,,,,,,,,,,,,,,,,,,,,,,,,,,,,,,,,,,,,,,,,,,,,,,,,,,,,,,,,,,,,,,,,,,,,,,,,,,,,,,,,,,,,,,,,,,,,,,,,,
,,614d465852620924f85603c8,2022-09-08_13h27.45.602,CGTgamblingSpanTasks,2022.2.1,Win32,59.73715651,,,,,,,,2.667,,,,,,,,,,,,,,1,n,1.333,10.68,0,4.167,1.5,0,17,17,48,1,10.68,0,10.68,1,,,,,,,,,,,,,,,,,,,,,,,,,,,,,,,,,,,,,,,,,,,,,,,,,,,,,,,,,,,,,,,,,,,,,,,,,,,,,,,,,,,,,,,,,,,,,,,,,,
,,614d465852620924f85603c8,2022-09-08_13h27.45.602,CGTgamblingSpanTasks,2022.2.1,Win32,59.73715651,,,,,,,,2.734,,,,,,,,,,,,,,2,v,1.266,9.5,0,4.234,1.5,0,18,18,25,1,17,0,9.5,0,,,,,,,,,,,,,,,,,,,,,,,,,,,,,,,,,,,,,,,,,,,,,,,,,,,,,,,,,,,,,,,,,,,,,,,,,,,,,,,,,,,,,,,,,,,,,,,,,,
,,614d465852620924f85603c8,2022-09-08_13h27.45.602,CGTgamblingSpanTasks,2022.2.1,Win32,59.73715651,,,,,,,,2.716,,,,,,,,,,,,,,1,n,1.284,10.37,0,4.216,1.5,0,19,19,37,1,15.27,0,10.37,0,,,,,,,,,,,,,,,,,,,,,,,,,,,,,,,,,,,,,,,,,,,,,,,,,,,,,,,,,,,,,,,,,,,,,,,,,,,,,,,,,,,,,,,,,,,,,,,,,,
,,614d465852620924f85603c8,2022-09-08_13h27.45.602,CGTgamblingSpanTasks,2022.2.1,Win32,59.73715651,,,,,,,,2.275,,,,,,,,,,,,,,2,v,1.725,6.19,0,3.275,1,0,20,20,22,1,11.62,0,6.19,0,,,,,,,,,,,,,,,,,,,,,,,,,,,,,,,,,,,,,,,,,,,,,,,,,,,,,,,,,,,,,,,,,,,,,,,,,,,,,,,,,,,,,,,,,,,,,,,,,,
,,614d465852620924f85603c8,2022-09-08_13h27.45.602,CGTgamblingSpanTasks,2022.2.1,Win32,59.73715651,,,,,,,,2.302,,,,,,,,,,,,,,1,v,1.698,6.99,1,3.302,1,0,21,21,43,1,16.11,6.99,6.99,1,,,,,,,,,,,,,,,,,,,,,,,,,,,,,,,,,,,,,,,,,,,,,,,,,,,,,,,,,,,,,,,,,,,,,,,,,,,,,,,,,,,,,,,,,,,,,,,,,,
,,614d465852620924f85603c8,2022-09-08_13h27.45.602,CGTgamblingSpanTasks,2022.2.1,Win32,59.73715651,,,,,,,,1.865,,,,,,,,,,,,,,1,n,2.135,10.27,0,2.865,1,0,22,22,35,1,15.47,0,10.27,0,,,,,,,,,,,,,,,,,,,,,,,,,,,,,,,,,,,,,,,,,,,,,,,,,,,,,,,,,,,,,,,,,,,,,,,,,,,,,,,,,,,,,,,,,,,,,,,,,,
,,614d465852620924f85603c8,2022-09-08_13h27.45.602,CGTgamblingSpanTasks,2022.2.1,Win32,59.73715651,,,,,,,,2.495,,,,,,,,,,,,,,2,v,1.505,6.53,0,3.495,1,0,23,23,28,1,10.95,0,6.53,0,,,,,,,,,,,,,,,,,,,,,,,,,,,,,,,,,,,,,,,,,,,,,,,,,,,,,,,,,,,,,,,,,,,,,,,,,,,,,,,,,,,,,,,,,,,,,,,,,,
,,614d465852620924f85603c8,2022-09-08_13h27.45.602,CGTgamblingSpanTasks,2022.2.1,Win32,59.73715651,,,,,,,,1.991,,,,,,,,,,,,,,2,v,2.009,6.29,0,3.491,1.5,0,24,24,24,1,11.43,0,6.29,0,,,,,,,,,,,,,,,,,,,,,,,,,,,,,,,,,,,,,,,,,,,,,,,,,,,,,,,,,,,,,,,,,,,,,,,,,,,,,,,,,,,,,,,,,,,,,,,,,,
,,614d465852620924f85603c8,2022-09-08_13h27.45.602,CGTgamblingSpanTasks,2022.2.1,Win32,59.73715651,,,,,,,,2.516,,,,,,,,,,,,,,1,v,1.484,0,1,3.516,1,0,25,25,17,1,18.33,0,8.84,0,,,,,,,,,,,,,,,,,,,,,,,,,,,,,,,,,,,,,,,,,,,,,,,,,,,,,,,,,,,,,,,,,,,,,,,,,,,,,,,,,,,,,,,,,,,,,,,,,,
,,614d465852620924f85603c8,2022-09-08_13h27.45.602,CGTgamblingSpanTasks,2022.2.1,Win32,59.73715651,,,,,,,,2.392,,,,,,,,,,,,,,1,v,1.608,0,1,3.892,1.5,0,26,26,15,1,18.77,0,8.61,0,,,,,,,,,,,,,,,,,,,,,,,,,,,,,,,,,,,,,,,,,,,,,,,,,,,,,,,,,,,,,,,,,,,,,,,,,,,,,,,,,,,,,,,,,,,,,,,,,,
,,614d465852620924f85603c8,2022-09-08_13h27.45.602,CGTgamblingSpanTasks,2022.2.1,Win32,59.73715651,,,,,,,,1.912,,,,,,,,,,,,,,2,n,2.088,16,1,3.412,1.5,0,27,27,4,1,16,0,4,0,,,,,,,,,,,,,,,,,,,,,,,,,,,,,,,,,,,,,,,,,,,,,,,,,,,,,,,,,,,,,,,,,,,,,,,,,,,,,,,,,,,,,,,,,,,,,,,,,,
,,614d465852620924f85603c8,2022-09-08_13h27.45.602,CGTgamblingSpanTasks,2022.2.1,Win32,59.73715651,,,,,,,,2.955,,,,,,,,,,,,,,2,v,1.045,6.94,0,3.955,1,0,28,28,38,1,10.12,0,6.94,0,,,,,,,,,,,,,,,,,,,,,,,,,,,,,,,,,,,,,,,,,,,,,,,,,,,,,,,,,,,,,,,,,,,,,,,,,,,,,,,,,,,,,,,,,,,,,,,,,,
,,614d465852620924f85603c8,2022-09-08_13h27.45.602,CGTgamblingSpanTasks,2022.2.1,Win32,59.73715651,,,,,,,,2.535,,,,,,,,,,,,,,2,n,1.465,14.72,1,3.535,1,0,29,29,6,1,14.72,0,4.64,0,,,,,,,,,,,,,,,,,,,,,,,,,,,,,,,,,,,,,,,,,,,,,,,,,,,,,,,,,,,,,,,,,,,,,,,,,,,,,,,,,,,,,,,,,,,,,,,,,,
,,614d465852620924f85603c8,2022-09-08_13h27.45.602,CGTgamblingSpanTasks,2022.2.1,Win32,59.73715651,,,,,,,,2.814,,,,,,,,,,,,,,2,v,1.186,9.92,0,4.314,1.5,0,30,30,49,1,6.79,0,9.92,1,,,,,,,,,,,,,,,,,,,,,,,,,,,,,,,,,,,,,,,,,,,,,,,,,,,,,,,,,,,,,,,,,,,,,,,,,,,,,,,,,,,,,,,,,,,,,,,,,,
,,614d465852620924f85603c8,2022-09-08_13h27.45.602,CGTgamblingSpanTasks,2022.2.1,Win32,59.73715651,,,,,,,,1.317,,,,,,,,,,,,,,1,v,2.683,7.73,1,2.317,1,0,31,31,44,1,13.1,7.73,4.68,1,,,,,,,,,,,,,,,,,,,,,,,,,,,,,,,,,,,,,,,,,,,,,,,,,,,,,,,,,,,,,,,,,,,,,,,,,,,,,,,,,,,,,,,,,,,,,,,,,,
,,614d465852620924f85603c8,2022-09-08_13h27.45.602,CGTgamblingSpanTasks,2022.2.1,Win32,59.73715651,,,,,,,,2.418,,,,,,,,,,,,,,2,v,1.582,6.81,0,3.918,1.5,0,32,32,34,1,10.39,0,6.81,0,,,,,,,,,,,,,,,,,,,,,,,,,,,,,,,,,,,,,,,,,,,,,,,,,,,,,,,,,,,,,,,,,,,,,,,,,,,,,,,,,,,,,,,,,,,,,,,,,,
,,614d465852620924f85603c8,2022-09-08_13h27.45.602,CGTgamblingSpanTasks,2022.2.1,Win32,59.73715651,,,,,,,,2.619,,,,,,,,,,,,,,1,v,1.381,19.86,1,3.619,1,0,33,33,42,1,19.86,0,0,1,,,,,,,,,,,,,,,,,,,,,,,,,,,,,,,,,,,,,,,,,,,,,,,,,,,,,,,,,,,,,,,,,,,,,,,,,,,,,,,,,,,,,,,,,,,,,,,,,,
,,614d465852620924f85603c8,2022-09-08_13h27.45.602,CGTgamblingSpanTasks,2022.2.1,Win32,59.73715651,,,,,,,,2.277,,,,,,,,,,,,,,2,v,1.723,6.63,0,3.777,1.5,0,34,34,30,1,10.73,0,6.63,0,,,,,,,,,,,,,,,,,,,,,,,,,,,,,,,,,,,,,,,,,,,,,,,,,,,,,,,,,,,,,,,,,,,,,,,,,,,,,,,,,,,,,,,,,,,,,,,,,,
,,614d465852620924f85603c8,2022-09-08_13h27.45.602,CGTgamblingSpanTasks,2022.2.1,Win32,59.73715651,,,,,,,,1.909,,,,,,,,,,,,,,2,v,2.091,5.96,0,2.909,1,0,35,35,18,1,12.08,0,5.96,0,,,,,,,,,,,,,,,,,,,,,,,,,,,,,,,,,,,,,,,,,,,,,,,,,,,,,,,,,,,,,,,,,,,,,,,,,,,,,,,,,,,,,,,,,,,,,,,,,,
,,614d465852620924f85603c8,2022-09-08_13h27.45.602,CGTgamblingSpanTasks,2022.2.1,Win32,59.73715651,,,,,,,,2.634,,,,,,,,,,,,,,1,n,1.366,6.73,0,3.634,1,0,36,36,32,1,10.55,0,6.73,0,,,,,,,,,,,,,,,,,,,,,,,,,,,,,,,,,,,,,,,,,,,,,,,,,,,,,,,,,,,,,,,,,,,,,,,,,,,,,,,,,,,,,,,,,,,,,,,,,,
,,614d465852620924f85603c8,2022-09-08_13h27.45.602,CGTgamblingSpanTasks,2022.2.1,Win32,59.73715651,,,,,,,,2.81,,,,,,,,,,,,,,1,v,1.19,0,1,4.31,1.5,0,37,37,0,1,20.03,0,1.99,0,,,,,,,,,,,,,,,,,,,,,,,,,,,,,,,,,,,,,,,,,,,,,,,,,,,,,,,,,,,,,,,,,,,,,,,,,,,,,,,,,,,,,,,,,,,,,,,,,,
,,614d465852620924f85603c8,2022-09-08_13h27.45.602,CGTgamblingSpanTasks,2022.2.1,Win32,59.73715651,,,,,,,,2.053,,,,,,,,,,,,,,2,v,1.947,10.46,0,3.053,1,0,38,38,39,1,15.09,0,10.46,0,,,,,,,,,,,,,,,,,,,,,,,,,,,,,,,,,,,,,,,,,,,,,,,,,,,,,,,,,,,,,,,,,,,,,,,,,,,,,,,,,,,,,,,,,,,,,,,,,,
,,614d465852620924f85603c8,2022-09-08_13h27.45.602,CGTgamblingSpanTasks,2022.2.1,Win32,59.73715651,,,,,,,,2.812,,,,,,,,,,,,,,2,v,1.188,10.02,0,4.312,1.5,0,39,39,31,1,15.96,0,10.02,0,,,,,,,,,,,,,,,,,,,,,,,,,,,,,,,,,,,,,,,,,,,,,,,,,,,,,,,,,,,,,,,,,,,,,,,,,,,,,,,,,,,,,,,,,,,,,,,,,,
,,614d465852620924f85603c8,2022-09-08_13h27.45.602,CGTgamblingSpanTasks,2022.2.1,Win32,59.73715651,,,,,,,,2.548,,,,,,,,,,,,,,1,n,1.452,10.15,0,3.548,1,0,40,40,33,1,15.7,0,10.15,0,,,,,,,,,,,,,,,,,,,,,,,,,,,,,,,,,,,,,,,,,,,,,,,,,,,,,,,,,,,,,,,,,,,,,,,,,,,,,,,,,,,,,,,,,,,,,,,,,,
,,614d465852620924f85603c8,2022-09-08_13h27.45.602,CGTgamblingSpanTasks,2022.2.1,Win32,59.73715651,,,,,,,,2.209,,,,,,,,,,,,,,1,n,1.791,5.82,0,3.209,1,0,41,41,16,1,12.36,0,5.82,0,,,,,,,,,,,,,,,,,,,,,,,,,,,,,,,,,,,,,,,,,,,,,,,,,,,,,,,,,,,,,,,,,,,,,,,,,,,,,,,,,,,,,,,,,,,,,,,,,,
,,614d465852620924f85603c8,2022-09-08_13h27.45.602,CGTgamblingSpanTasks,2022.2.1,Win32,59.73715651,,,,,,,,1.826,,,,,,,,,,,,,,2,n,2.174,0,1,3.326,1.5,0,42,42,21,1,17.59,0,9.2,0,,,,,,,,,,,,,,,,,,,,,,,,,,,,,,,,,,,,,,,,,,,,,,,,,,,,,,,,,,,,,,,,,,,,,,,,,,,,,,,,,,,,,,,,,,,,,,,,,,
,,614d465852620924f85603c8,2022-09-08_13h27.45.602,CGTgamblingSpanTasks,2022.2.1,Win32,59.73715651,,,,,,,,2.669,,,,,,,,,,,,,,2,n,1.331,20.53,1,3.669,1,0,43,43,9,1,20.53,0,7.73,0,,,,,,,,,,,,,,,,,,,,,,,,,,,,,,,,,,,,,,,,,,,,,,,,,,,,,,,,,,,,,,,,,,,,,,,,,,,,,,,,,,,,,,,,,,,,,,,,,,
,,614d465852620924f85603c8,2022-09-08_13h27.45.602,CGTgamblingSpanTasks,2022.2.1,Win32,59.73715651,,,,,,,,2.662,,,,,,,,,,,,,,1,n,1.338,9.7,0,4.162,1.5,0,44,44,27,1,16.6,0,9.7,0,,,,,,,,,,,,,,,,,,,,,,,,,,,,,,,,,,,,,,,,,,,,,,,,,,,,,,,,,,,,,,,,,,,,,,,,,,,,,,,,,,,,,,,,,,,,,,,,,,
,,614d465852620924f85603c8,2022-09-08_13h27.45.602,CGTgamblingSpanTasks,2022.2.1,Win32,59.73715651,,,,,,,,2.516,,,,,,,,,,,,,,1,n,1.484,6.08,0,4.016,1.5,0,45,45,20,1,11.84,0,6.08,0,,,,,,,,,,,,,,,,,,,,,,,,,,,,,,,,,,,,,,,,,,,,,,,,,,,,,,,,,,,,,,,,,,,,,,,,,,,,,,,,,,,,,,,,,,,,,,,,,,
,,614d465852620924f85603c8,2022-09-08_13h27.45.602,CGTgamblingSpanTasks,2022.2.1,Win32,59.73715651,,,,,,,,2.583,,,,,,,,,,,,,,2,v,1.417,6.4,0,4.083,1.5,0,46,46,26,1,11.2,0,6.4,0,,,,,,,,,,,,,,,,,,,,,,,,,,,,,,,,,,,,,,,,,,,,,,,,,,,,,,,,,,,,,,,,,,,,,,,,,,,,,,,,,,,,,,,,,,,,,,,,,,
,,614d465852620924f85603c8,2022-09-08_13h27.45.602,CGTgamblingSpanTasks,2022.2.1,Win32,59.73715651,,,,,,,,2.533,,,,,,,,,,,,,,1,n,1.467,9.03,0,4.033,1.5,0,47,47,19,1,17.94,0,9.03,0,,,,,,,,,,,,,,,,,,,,,,,,,,,,,,,,,,,,,,,,,,,,,,,,,,,,,,,,,,,,,,,,,,,,,,,,,,,,,,,,,,,,,,,,,,,,,,,,,,
,,614d465852620924f85603c8,2022-09-08_13h27.45.602,CGTgamblingSpanTasks,2022.2.1,Win32,59.73715651,,,,,,,,2.217,,,,,,,,,,,,,,2,n,1.783,21.32,1,3.217,1,0,48,48,7,1,21.32,0,7.34,0,,,,,,,,,,,,,,,,,,,,,,,,,,,,,,,,,,,,,,,,,,,,,,,,,,,,,,,,,,,,,,,,,,,,,,,,,,,,,,,,,,,,,,,,,,,,,,,,,,
,,614d465852620924f85603c8,2022-09-08_13h27.45.602,CGTgamblingSpanTasks,2022.2.1,Win32,59.73715651,,,,,,,,2.624,,,,,,,,,,,,,,1,n,1.376,5.48,0,4.124,1.5,0,49,49,12,1,13.04,0,5.48,0,,,,,,,,,,,,,,,,,,,,,,,,,,,,,,,,,,,,,,,,,,,,,,,,,,,,,,,,,,,,,,,,,,,,,,,,,,,,,,,,,,,,,,,,,,,,,,,,,,
,,614d465852620924f85603c8,2022-09-08_13h27.45.602,CGTgamblingSpanTasks,2022.2.1,Win32,59.73715651,,,,,,,,,,,,,,,,,,,,,,,,,,,,,,,,,,,,,,bespoke_choiceset_rhoInd055_muInd090.csv,bespoke_choicesets/bespoke_choiceset_rhoInd055_muInd090.csv,55,90,0,0,0,0,1,,,,,,,,,,,,,,,,,,,,,,,,,,,,,,,,,,,,,,,,,,,,,,,,,,,,,,,,,,,,,,,,,,,,,,,,,,,,,,,,,,,,,,,,,
,,614d465852620924f85603c8,2022-09-08_13h27.45.602,CGTgamblingSpanTasks,2022.2.1,Win32,59.73715651,,,,,,,,,,,,,,,,,,,,,,,,,,,,,,,,,,,,,,,,,,,,,,,,,,,,,,,,,,,,,,,,,,,,,,,,,,,,,,,,,,,,,,,,,,,,,,,,,,,,,,,,,,,,,,,,,,,,,,,,,,,,,,,,,,,,,,,
,,614d465852620924f85603c8,2022-09-08_13h27.45.602,CGTgamblingSpanTasks,2022.2.1,Win32,59.73715651,,,,,,,,,,,,,,,,,,,,,,,,,,,,,,,,,,,,,,,,,,,,,,,v,485.812,,,,,,,,,,,,,,,,,,,,,,,,,,,,,,,,,,,,,,,,,,,,,,,,,,,,,,,,,,,,,,,,,,,,,,,,,,,,,,,,,,,,,,,
,,614d465852620924f85603c8,2022-09-08_13h27.45.602,CGTgamblingSpanTasks,2022.2.1,Win32,59.73715651,,,,,,,,2.541,,,,,,,,,,,,,,1,v,1.459,0,1,3.541,1,,,,,,13.4287264,0,1.317368801,,,,,,,,,,,,,0,0,0,100,1,0.502953125,1,,,,,,,,,,,,,,,,,,,,,,,,,,,,,,,,,,,,,,,,,,,,,,,,,,,,,,,,,,,,,,,,,,,,,,,,,,,,,,,,
,,614d465852620924f85603c8,2022-09-08_13h27.45.602,CGTgamblingSpanTasks,2022.2.1,Win32,59.73715651,,,,,,,,2.434,,,,,,,,,,,,,,1,n,1.566,11.35147481,0,3.934,1.5,,,,,,17.67865084,0,11.35147481,,,,,,,,,,,,,0,1,1,91,1,0.067304606,0,,,,,,,,,,,,,,,,,,,,,,,,,,,,,,,,,,,,,,,,,,,,,,,,,,,,,,,,,,,,,,,,,,,,,,,,,,,,,,,,
,,614d465852620924f85603c8,2022-09-08_13h27.45.602,CGTgamblingSpanTasks,2022.2.1,Win32,59.73715651,,,,,,,,2.633,,,,,,,,,,,,,,2,v,1.367,11.19311486,0,4.133,1.5,,,,,,8.17598802,0,11.19311486,,,,,,,,,,,,,0,2,2,110,1,0.021568003,0,,,,,,,,,,,,,,,,,,,,,,,,,,,,,,,,,,,,,,,,,,,,,,,,,,,,,,,,,,,,,,,,,,,,,,,,,,,,,,,,
,,614d465852620924f85603c8,2022-09-08_13h27.45.602,CGTgamblingSpanTasks,2022.2.1,Win32,59.73715651,,,,,,,,2.633,,,,,,,,,,,,,,1,v,1.367,0,1,4.133,1.5,,,,,,28.14876717,0,3.117906378,,,,,,,,,,,,,0,3,3,76,1,0.470636736,1,,,,,,,,,,,,,,,,,,,,,,,,,,,,,,,,,,,,,,,,,,,,,,,,,,,,,,,,,,,,,,,,,,,,,,,,,,,,,,,,
,,614d465852620924f85603c8,2022-09-08_13h27.45.602,CGTgamblingSpanTasks,2022.2.1,Win32,59.73715651,,,,,,,,2.81,,,,,,,,,,,,,,1,v,1.19,27.39221343,1,3.81,1,,,,,,27.39221343,0,2.743407746,,,,,,,,,,,,,0,4,4,47,1,0.49752044,1,,,,,,,,,,,,,,,,,,,,,,,,,,,,,,,,,,,,,,,,,,,,,,,,,,,,,,,,,,,,,,,,,,,,,,,,,,,,,,,,
,,614d465852620924f85603c8,2022-09-08_13h27.45.602,CGTgamblingSpanTasks,2022.2.1,Win32,59.73715651,,,,,,,,2.647,,,,,,,,,,,,,,2,n,1.353,0,1,3.647,1,,,,,,18.16238569,0,1.540604093,,,,,,,,,,,,,0,5,5,34,1,0.540092491,1,,,,,,,,,,,,,,,,,,,,,,,,,,,,,,,,,,,,,,,,,,,,,,,,,,,,,,,,,,,,,,,,,,,,,,,,,,,,,,,,
,,614d465852620924f85603c8,2022-09-08_13h27.45.602,CGTgamblingSpanTasks,2022.2.1,Win32,59.73715651,,,,,,,,2.577,,,,,,,,,,,,,,1,n,1.423,8.653432553,0,4.077,1.5,,,,,,15.13999312,0,8.653432553,,,,,,,,,,,,,0,6,6,54,1,0.081767484,0,,,,,,,,,,,,,,,,,,,,,,,,,,,,,,,,,,,,,,,,,,,,,,,,,,,,,,,,,,,,,,,,,,,,,,,,,,,,,,,,
,,614d465852620924f85603c8,2022-09-08_13h27.45.602,CGTgamblingSpanTasks,2022.2.1,Win32,59.73715651,,,,,,,,2.868,,,,,,,,,,,,,,1,v,1.132,0,1,4.368,1.5,,,,,,27.12325385,0,0.080932047,,,,,,,,,,,,,0,7,7,14,1,0.906929184,0,,,,,,,,,,,,,,,,,,,,,,,,,,,,,,,,,,,,,,,,,,,,,,,,,,,,,,,,,,,,,,,,,,,,,,,,,,,,,,,,
,,614d465852620924f85603c8,2022-09-08_13h27.45.602,CGTgamblingSpanTasks,2022.2.1,Win32,59.73715651,,,,,,,,2.818,,,,,,,,,,,,,,2,n,1.182,0,1,3.818,1,,,,,,17.92584289,0,1.878232496,,,,,,,,,,,,,0,8,8,5,1,0.485559263,1,,,,,,,,,,,,,,,,,,,,,,,,,,,,,,,,,,,,,,,,,,,,,,,,,,,,,,,,,,,,,,,,,,,,,,,,,,,,,,,,
,,614d465852620924f85603c8,2022-09-08_13h27.45.602,CGTgamblingSpanTasks,2022.2.1,Win32,59.73715651,,,,,,,,2.827,,,,,,,,,,,,,,1,v,1.173,0,1,4.327,1.5,,,,,,27.57491653,0,2.99133314,,,,,,,,,,,,,0,9,9,10,1,0.47625893,1,,,,,,,,,,,,,,,,,,,,,,,,,,,,,,,,,,,,,,,,,,,,,,,,,,,,,,,,,,,,,,,,,,,,,,,,,,,,,,,,
,,614d465852620924f85603c8,2022-09-08_13h27.45.602,CGTgamblingSpanTasks,2022.2.1,Win32,59.73715651,,,,,,,,2.734,,,,,,,,,,,,,,1,n,1.266,6.833409611,0,3.734,1,,,,,,6.325091157,0,6.833409611,,,,,,,,,,,,,0,10,10,58,1,0.027113638,0,,,,,,,,,,,,,,,,,,,,,,,,,,,,,,,,,,,,,,,,,,,,,,,,,,,,,,,,,,,,,,,,,,,,,,,,,,,,,,,,
,,614d465852620924f85603c8,2022-09-08_13h27.45.602,CGTgamblingSpanTasks,2022.2.1,Win32,59.73715651,,,,,,,,2.919,,,,,,,,,,,,,,1,n,1.081,10.3417501,0,3.919,1,,,,,,15.21435748,0,10.3417501,,,,,,,,,,,,,0,11,11,72,1,0.060969226,0,,,,,,,,,,,,,,,,,,,,,,,,,,,,,,,,,,,,,,,,,,,,,,,,,,,,,,,,,,,,,,,,,,,,,,,,,,,,,,,,
,,614d465852620924f85603c8,2022-09-08_13h27.45.602,CGTgamblingSpanTasks,2022.2.1,Win32,59.73715651,,,,,,,,2.8,,,,,,,,,,,,,,1,v,1.2,13.84410806,1,3.8,1,,,,,,13.84410806,0,1.535873964,,,,,,,,,,,,,0,12,12,88,1,0.470209002,1,,,,,,,,,,,,,,,,,,,,,,,,,,,,,,,,,,,,,,,,,,,,,,,,,,,,,,,,,,,,,,,,,,,,,,,,,,,,,,,,
,,614d465852620924f85603c8,2022-09-08_13h27.45.602,CGTgamblingSpanTasks,2022.2.1,Win32,59.73715651,,,,,,,,2.948,,,,,,,,,,,,,,2,n,1.052,0,1,3.948,1,,,,,,23.0613391,0,2.387726776,,,,,,,,,,,,,0,13,13,69,1,0.488727763,1,,,,,,,,,,,,,,,,,,,,,,,,,,,,,,,,,,,,,,,,,,,,,,,,,,,,,,,,,,,,,,,,,,,,,,,,,,,,,,,,
,,614d465852620924f85603c8,2022-09-08_13h27.45.602,CGTgamblingSpanTasks,2022.2.1,Win32,59.73715651,,,,,,,,2.532,,,,,,,,,,,,,,1,v,1.468,0,1,4.032,1.5,,,,,,27.7711693,0,2.320849632,,,,,,,,,,,,,0,14,14,94,1,0.543786368,1,,,,,,,,,,,,,,,,,,,,,,,,,,,,,,,,,,,,,,,,,,,,,,,,,,,,,,,,,,,,,,,,,,,,,,,,,,,,,,,,
,,614d465852620924f85603c8,2022-09-08_13h27.45.602,CGTgamblingSpanTasks,2022.2.1,Win32,59.73715651,,,,,,,,2.009,,,,,,,,,,,,,,2,n,1.991,0,1,3.009,1,,,,,,24.479109,0,0.089582697,,,,,,,,,,,,,0,15,15,89,1,0.900200232,0,,,,,,,,,,,,,,,,,,,,,,,,,,,,,,,,,,,,,,,,,,,,,,,,,,,,,,,,,,,,,,,,,,,,,,,,,,,,,,,,
,,614d465852620924f85603c8,2022-09-08_13h27.45.602,CGTgamblingSpanTasks,2022.2.1,Win32,59.73715651,,,,,,,,2.885,,,,,,,,,,,,,,2,n,1.115,0,1,4.385,1.5,,,,,,25.65316415,0,0.079652925,,,,,,,,,,,,,0,16,16,109,1,0.90568168,0,,,,,,,,,,,,,,,,,,,,,,,,,,,,,,,,,,,,,,,,,,,,,,,,,,,,,,,,,,,,,,,,,,,,,,,,,,,,,,,,
,,614d465852620924f85603c8,2022-09-08_13h27.45.602,CGTgamblingSpanTasks,2022.2.1,Win32,59.73715651,,,,,,,,2.931,,,,,,,,,,,,,,1,v,1.069,0,1,3.931,1,,,,,,28.33977875,0,2.768313633,,,,,,,,,,,,,0,17,17,116,1,0.50406901,1,,,,,,,,,,,,,,,,,,,,,,,,,,,,,,,,,,,,,,,,,,,,,,,,,,,,,,,,,,,,,,,,,,,,,,,,,,,,,,,,
,,614d465852620924f85603c8,2022-09-08_13h27.45.602,CGTgamblingSpanTasks,2022.2.1,Win32,59.73715651,,,,,,,,2.381,,,,,,,,,,,,,,1,v,1.619,22.87092517,1,3.881,1.5,,,,,,22.87092517,0,0.059276504,,,,,,,,,,,,,0,18,18,27,1,0.911114935,0,,,,,,,,,,,,,,,,,,,,,,,,,,,,,,,,,,,,,,,,,,,,,,,,,,,,,,,,,,,,,,,,,,,,,,,,,,,,,,,,
,,614d465852620924f85603c8,2022-09-08_13h27.45.602,CGTgamblingSpanTasks,2022.2.1,Win32,59.73715651,,,,,,,,2.898,,,,,,,,,,,,,,2,n,1.102,0,1,4.398,1.5,,,,,,27.38828234,0,0.0639233,,,,,,,,,,,,,0,19,19,43,1,0.914010176,0,,,,,,,,,,,,,,,,,,,,,,,,,,,,,,,,,,,,,,,,,,,,,,,,,,,,,,,,,,,,,,,,,,,,,,,,,,,,,,,,
,,614d465852620924f85603c8,2022-09-08_13h27.45.602,CGTgamblingSpanTasks,2022.2.1,Win32,59.73715651,,,,,,,,2.85,,,,,,,,,,,,,,2,n,1.15,25.0707644,1,3.85,1,,,,,,25.0707644,0,0.067651625,,,,,,,,,,,,,0,20,20,70,1,0.909952349,0,,,,,,,,,,,,,,,,,,,,,,,,,,,,,,,,,,,,,,,,,,,,,,,,,,,,,,,,,,,,,,,,,,,,,,,,,,,,,,,,
,,614d465852620924f85603c8,2022-09-08_13h27.45.602,CGTgamblingSpanTasks,2022.2.1,Win32,59.73715651,,,,,,,,3.069,,,,,,,,,,,,,,1,v,0.931,0,1,4.069,1,,,,,,21.46599803,0,0.059789256,,,,,,,,,,,,,0,21,21,8,1,0.909019081,0,,,,,,,,,,,,,,,,,,,,,,,,,,,,,,,,,,,,,,,,,,,,,,,,,,,,,,,,,,,,,,,,,,,,,,,,,,,,,,,,
,,614d465852620924f85603c8,2022-09-08_13h27.45.602,CGTgamblingSpanTasks,2022.2.1,Win32,59.73715651,,,,,,,,3.101,,,,,,,,,,,,,,2,n,0.899,0,1,4.601,1.5,,,,,,23.24777057,0,2.003482335,,,,,,,,,,,,,0,22,22,59,1,0.536135174,1,,,,,,,,,,,,,,,,,,,,,,,,,,,,,,,,,,,,,,,,,,,,,,,,,,,,,,,,,,,,,,,,,,,,,,,,,,,,,,,,
,,614d465852620924f85603c8,2022-09-08_13h27.45.602,CGTgamblingSpanTasks,2022.2.1,Win32,59.73715651,,,,,,,,2.06,,,,,,,,,,,,,,1,v,1.94,0,1,3.06,1,,,,,,19.58698544,0,9.936178001,,,,,,,,,,,,,0,23,23,77,1,0.098812204,0,,,,,,,,,,,,,,,,,,,,,,,,,,,,,,,,,,,,,,,,,,,,,,,,,,,,,,,,,,,,,,,,,,,,,,,,,,,,,,,,
,,614d465852620924f85603c8,2022-09-08_13h27.45.602,CGTgamblingSpanTasks,2022.2.1,Win32,59.73715651,,,,,,,,2.75,,,,,,,,,,,,,,2,n,1.25,14.3363647,1,4.25,1.5,,,,,,14.3363647,0,1.396635362,,,,,,,,,,,,,0,24,24,78,1,0.504775474,1,,,,,,,,,,,,,,,,,,,,,,,,,,,,,,,,,,,,,,,,,,,,,,,,,,,,,,,,,,,,,,,,,,,,,,,,,,,,,,,,
,,614d465852620924f85603c8,2022-09-08_13h27.45.602,CGTgamblingSpanTasks,2022.2.1,Win32,59.73715651,,,,,,,,2.755,,,,,,,,,,,,,,2,v,1.245,11.41737518,0,4.255,1.5,,,,,,18.11029021,0,11.41737518,,,,,,,,,,,,,0,25,25,48,1,0.069445859,0,,,,,,,,,,,,,,,,,,,,,,,,,,,,,,,,,,,,,,,,,,,,,,,,,,,,,,,,,,,,,,,,,,,,,,,,,,,,,,,,
,,614d465852620924f85603c8,2022-09-08_13h27.45.602,CGTgamblingSpanTasks,2022.2.1,Win32,59.73715651,,,,,,,,3.249,,,,,,,,,,,,,,2,n,0.751,25.54604005,1,4.249,1,,,,,,25.54604005,0,0.088845411,,,,,,,,,,,,,0,26,26,79,1,0.901957831,0,,,,,,,,,,,,,,,,,,,,,,,,,,,,,,,,,,,,,,,,,,,,,,,,,,,,,,,,,,,,,,,,,,,,,,,,,,,,,,,,
,,614d465852620924f85603c8,2022-09-08_13h27.45.602,CGTgamblingSpanTasks,2022.2.1,Win32,59.73715651,,,,,,,,2.794,,,,,,,,,,,,,,2,n,1.206,27.53810185,1,4.294,1.5,,,,,,27.53810185,0,0.097022401,,,,,,,,,,,,,0,27,27,50,1,0.901515865,0,,,,,,,,,,,,,,,,,,,,,,,,,,,,,,,,,,,,,,,,,,,,,,,,,,,,,,,,,,,,,,,,,,,,,,,,,,,,,,,,
,,614d465852620924f85603c8,2022-09-08_13h27.45.602,CGTgamblingSpanTasks,2022.2.1,Win32,59.73715651,,,,,,,,2.066,,,,,,,,,,,,,,1,v,1.934,19.36415485,1,3.566,1.5,,,,,,19.36415485,0,1.966229494,,,,,,,,,,,,,0,28,28,96,1,0.493893111,1,,,,,,,,,,,,,,,,,,,,,,,,,,,,,,,,,,,,,,,,,,,,,,,,,,,,,,,,,,,,,,,,,,,,,,,,,,,,,,,,
,,614d465852620924f85603c8,2022-09-08_13h27.45.602,CGTgamblingSpanTasks,2022.2.1,Win32,59.73715651,,,,,,,,2.064,,,,,,,,,,,,,,2,n,1.936,0,1,3.564,1.5,,,,,,18.50662664,0,0.052546026,,,,,,,,,,,,,0,29,29,112,1,0.908444837,0,,,,,,,,,,,,,,,,,,,,,,,,,,,,,,,,,,,,,,,,,,,,,,,,,,,,,,,,,,,,,,,,,,,,,,,,,,,,,,,,
,,614d465852620924f85603c8,2022-09-08_13h27.45.602,CGTgamblingSpanTasks,2022.2.1,Win32,59.73715651,,,,,,,,2.724,,,,,,,,,,,,,,2,n,1.276,17.30137174,1,3.724,1,,,,,,17.30137174,0,1.716380842,,,,,,,,,,,,,0,30,30,20,1,0.500020285,1,,,,,,,,,,,,,,,,,,,,,,,,,,,,,,,,,,,,,,,,,,,,,,,,,,,,,,,,,,,,,,,,,,,,,,,,,,,,,,,,
,,614d465852620924f85603c8,2022-09-08_13h27.45.602,CGTgamblingSpanTasks,2022.2.1,Win32,59.73715651,,,,,,,,2.434,,,,,,,,,,,,,,1,v,1.566,0,1,3.434,1,,,,,,29.76099779,0,0.095763086,,,,,,,,,,,,,0,31,31,35,1,0.904537896,0,,,,,,,,,,,,,,,,,,,,,,,,,,,,,,,,,,,,,,,,,,,,,,,,,,,,,,,,,,,,,,,,,,,,,,,,,,,,,,,,
,,614d465852620924f85603c8,2022-09-08_13h27.45.602,CGTgamblingSpanTasks,2022.2.1,Win32,59.73715651,,,,,,,,2.384,,,,,,,,,,,,,,2,v,1.616,8.830252162,0,3.884,1.5,,,,,,15.73000491,0,8.830252162,,,,,,,,,,,,,0,32,32,95,1,0.084193143,0,,,,,,,,,,,,,,,,,,,,,,,,,,,,,,,,,,,,,,,,,,,,,,,,,,,,,,,,,,,,,,,,,,,,,,,,,,,,,,,,
,,614d465852620924f85603c8,2022-09-08_13h27.45.602,CGTgamblingSpanTasks,2022.2.1,Win32,59.73715651,,,,,,,,2.48,,,,,,,,,,,,,,2,n,1.52,0,1,3.48,1,,,,,,21.7711579,0,2.502728921,,,,,,,,,,,,,0,33,33,101,1,0.460552621,1,,,,,,,,,,,,,,,,,,,,,,,,,,,,,,,,,,,,,,,,,,,,,,,,,,,,,,,,,,,,,,,,,,,,,,,,,,,,,,,,
,,614d465852620924f85603c8,2022-09-08_13h27.45.602,CGTgamblingSpanTasks,2022.2.1,Win32,59.73715651,,,,,,,,2.462,,,,,,,,,,,,,,1,n,1.538,10.68505773,0,3.962,1.5,,,,,,17.64114152,0,10.68505773,,,,,,,,,,,,,0,34,34,98,1,0.074299362,0,,,,,,,,,,,,,,,,,,,,,,,,,,,,,,,,,,,,,,,,,,,,,,,,,,,,,,,,,,,,,,,,,,,,,,,,,,,,,,,,
,,614d465852620924f85603c8,2022-09-08_13h27.45.602,CGTgamblingSpanTasks,2022.2.1,Win32,59.73715651,,,,,,,,2.351,,,,,,,,,,,,,,2,v,1.649,4.251676631,0,3.351,1,,,,,,3.395192929,0,4.251676631,,,,,,,,,,,,,0,35,35,7,1,0.023467153,0,,,,,,,,,,,,,,,,,,,,,,,,,,,,,,,,,,,,,,,,,,,,,,,,,,,,,,,,,,,,,,,,,,,,,,,,,,,,,,,,
,,614d465852620924f85603c8,2022-09-08_13h27.45.602,CGTgamblingSpanTasks,2022.2.1,Win32,59.73715651,,,,,,,,2.878,,,,,,,,,,,,,,1,v,1.122,0,1,3.878,1,,,,,,24.66627941,0,2.765426402,,,,,,,,,,,,,0,36,36,24,1,0.467360588,1,,,,,,,,,,,,,,,,,,,,,,,,,,,,,,,,,,,,,,,,,,,,,,,,,,,,,,,,,,,,,,,,,,,,,,,,,,,,,,,,
,,614d465852620924f85603c8,2022-09-08_13h27.45.602,CGTgamblingSpanTasks,2022.2.1,Win32,59.73715651,,,,,,,,2.93,,,,,,,,,,,,,,2,v,1.07,10.31611309,0,4.43,1.5,,,,,,19.30622782,0,10.31611309,,,,,,,,,,,,,0,37,37,1,1,0.091105656,0,,,,,,,,,,,,,,,,,,,,,,,,,,,,,,,,,,,,,,,,,,,,,,,,,,,,,,,,,,,,,,,,,,,,,,,,,,,,,,,,
,,614d465852620924f85603c8,2022-09-08_13h27.45.602,CGTgamblingSpanTasks,2022.2.1,Win32,59.73715651,,,,,,,,2.983,,,,,,,,,,,,,,2,n,1.017,15.43649625,1,3.983,1,,,,,,15.43649625,0,1.65459324,,,,,,,,,,,,,0,38,38,33,1,0.479480163,1,,,,,,,,,,,,,,,,,,,,,,,,,,,,,,,,,,,,,,,,,,,,,,,,,,,,,,,,,,,,,,,,,,,,,,,,,,,,,,,,
,,614d465852620924f85603c8,2022-09-08_13h27.45.602,CGTgamblingSpanTasks,2022.2.1,Win32,59.73715651,,,,,,,,2.765,,,,,,,,,,,,,,1,v,1.235,18.51345298,1,4.265,1.5,,,,,,18.51345298,0,1.932334278,,,,,,,,,,,,,0,39,39,31,1,0.48658696,1,,,,,,,,,,,,,,,,,,,,,,,,,,,,,,,,,,,,,,,,,,,,,,,,,,,,,,,,,,,,,,,,,,,,,,,,,,,,,,,,
,,614d465852620924f85603c8,2022-09-08_13h27.45.602,CGTgamblingSpanTasks,2022.2.1,Win32,59.73715651,,,,,,,,2.517,,,,,,,,,,,,,,2,n,1.483,0,1,4.017,1.5,,,,,,17.5608285,0,1.825111303,,,,,,,,,,,,,0,40,40,104,1,0.487721116,1,,,,,,,,,,,,,,,,,,,,,,,,,,,,,,,,,,,,,,,,,,,,,,,,,,,,,,,,,,,,,,,,,,,,,,,,,,,,,,,,
,,614d465852620924f85603c8,2022-09-08_13h27.45.602,CGTgamblingSpanTasks,2022.2.1,Win32,59.73715651,,,,,,,,2.396,,,,,,,,,,,,,,1,v,1.604,0,1,3.396,1,,,,,,28.94627214,0,2.701896413,,,,,,,,,,,,,0,41,41,111,1,0.515860759,1,,,,,,,,,,,,,,,,,,,,,,,,,,,,,,,,,,,,,,,,,,,,,,,,,,,,,,,,,,,,,,,,,,,,,,,,,,,,,,,,
,,614d465852620924f85603c8,2022-09-08_13h27.45.602,CGTgamblingSpanTasks,2022.2.1,Win32,59.73715651,,,,,,,,2.615,,,,,,,,,,,,,,2,n,1.385,0,1,4.115,1.5,,,,,,27.93093084,0,0.050207531,,,,,,,,,,,,,0,42,42,83,1,0.920505936,0,,,,,,,,,,,,,,,,,,,,,,,,,,,,,,,,,,,,,,,,,,,,,,,,,,,,,,,,,,,,,,,,,,,,,,,,,,,,,,,,
,,614d465852620924f85603c8,2022-09-08_13h27.45.602,CGTgamblingSpanTasks,2022.2.1,Win32,59.73715651,,,,,,,,2.247,,,,,,,,,,,,,,2,v,1.753,11.61882862,0,3.247,1,,,,,,4.022743614,0,11.61882862,,,,,,,,,,,,,0,43,43,38,1,0.011499376,0,,,,,,,,,,,,,,,,,,,,,,,,,,,,,,,,,,,,,,,,,,,,,,,,,,,,,,,,,,,,,,,,,,,,,,,,,,,,,,,,
,,614d465852620924f85603c8,2022-09-08_13h27.45.602,CGTgamblingSpanTasks,2022.2.1,Win32,59.73715651,,,,,,,,2.901,,,,,,,,,,,,,,2,n,1.099,0,1,4.401,1.5,,,,,,24.35708027,0,2.738695417,,,,,,,,,,,,,0,44,44,114,1,0.466573634,1,,,,,,,,,,,,,,,,,,,,,,,,,,,,,,,,,,,,,,,,,,,,,,,,,,,,,,,,,,,,,,,,,,,,,,,,,,,,,,,,
,,614d465852620924f85603c8,2022-09-08_13h27.45.602,CGTgamblingSpanTasks,2022.2.1,Win32,59.73715651,,,,,,,,2.835,,,,,,,,,,,,,,2,n,1.165,28.9381277,1,3.835,1,,,,,,28.9381277,0,2.663622024,,,,,,,,,,,,,0,45,45,103,1,0.519453367,1,,,,,,,,,,,,,,,,,,,,,,,,,,,,,,,,,,,,,,,,,,,,,,,,,,,,,,,,,,,,,,,,,,,,,,,,,,,,,,,,
,,614d465852620924f85603c8,2022-09-08_13h27.45.602,CGTgamblingSpanTasks,2022.2.1,Win32,59.73715651,,,,,,,,2.814,,,,,,,,,,,,,,2,n,1.186,26.4985979,1,3.814,1,,,,,,26.4985979,0,0.051324376,,,,,,,,,,,,,0,46,46,106,1,0.918747215,0,,,,,,,,,,,,,,,,,,,,,,,,,,,,,,,,,,,,,,,,,,,,,,,,,,,,,,,,,,,,,,,,,,,,,,,,,,,,,,,,
,,614d465852620924f85603c8,2022-09-08_13h27.45.602,CGTgamblingSpanTasks,2022.2.1,Win32,59.73715651,,,,,,,,2.518,,,,,,,,,,,,,,2,n,1.482,29.77342428,1,3.518,1,,,,,,29.77342428,0,2.838865588,,,,,,,,,,,,,0,47,47,57,1,0.510363415,1,,,,,,,,,,,,,,,,,,,,,,,,,,,,,,,,,,,,,,,,,,,,,,,,,,,,,,,,,,,,,,,,,,,,,,,,,,,,,,,,
,,614d465852620924f85603c8,2022-09-08_13h27.45.602,CGTgamblingSpanTasks,2022.2.1,Win32,59.73715651,,,,,,,,2.348,,,,,,,,,,,,,,1,v,1.652,21.2188881,1,3.848,1.5,,,,,,21.2188881,0,2.067660742,,,,,,,,,,,,,0,48,48,107,1,0.50470775,1,,,,,,,,,,,,,,,,,,,,,,,,,,,,,,,,,,,,,,,,,,,,,,,,,,,,,,,,,,,,,,,,,,,,,,,,,,,,,,,,
,,614d465852620924f85603c8,2022-09-08_13h27.45.602,CGTgamblingSpanTasks,2022.2.1,Win32,59.73715651,,,,,,,,2.245,,,,,,,,,,,,,,2,n,1.755,0,1,3.745,1.5,,,,,,27.4965044,0,2.461467004,,,,,,,,,,,,,0,49,49,36,1,0.526550878,1,,,,,,,,,,,,,,,,,,,,,,,,,,,,,,,,,,,,,,,,,,,,,,,,,,,,,,,,,,,,,,,,,,,,,,,,,,,,,,,,
,,614d465852620924f85603c8,2022-09-08_13h27.45.602,CGTgamblingSpanTasks,2022.2.1,Win32,59.73715651,,,,,,,,2.35,,,,,,,,,,,,,,2,n,1.65,17.85020524,1,3.85,1.5,,,,,,17.85020524,0,2.058701084,,,,,,,,,,,,,0,50,50,25,1,0.459662216,1,,,,,,,,,,,,,,,,,,,,,,,,,,,,,,,,,,,,,,,,,,,,,,,,,,,,,,,,,,,,,,,,,,,,,,,,,,,,,,,,
,,614d465852620924f85603c8,2022-09-08_13h27.45.602,CGTgamblingSpanTasks,2022.2.1,Win32,59.73715651,,,,,,,,3.199,,,,,,,,,,,,,,1,v,0.801,27.2532142,1,4.199,1,,,,,,27.2532142,0,0.08089327,,,,,,,,,,,,,0,51,51,119,1,0.907091845,0,,,,,,,,,,,,,,,,,,,,,,,,,,,,,,,,,,,,,,,,,,,,,,,,,,,,,,,,,,,,,,,,,,,,,,,,,,,,,,,,
,,614d465852620924f85603c8,2022-09-08_13h27.45.602,CGTgamblingSpanTasks,2022.2.1,Win32,59.73715651,,,,,,,,3.136,,,,,,,,,,,,,,2,n,0.864,0,1,4.636,1.5,,,,,,17.4320197,0,1.448620949,,,,,,,,,,,,,0,52,52,30,1,0.545178213,1,,,,,,,,,,,,,,,,,,,,,,,,,,,,,,,,,,,,,,,,,,,,,,,,,,,,,,,,,,,,,,,,,,,,,,,,,,,,,,,,
,,614d465852620924f85603c8,2022-09-08_13h27.45.602,CGTgamblingSpanTasks,2022.2.1,Win32,59.73715651,,,,,,,,2.937,,,,,,,,,,,,,,1,v,1.063,23.4214135,1,3.937,1,,,,,,23.4214135,0,2.485985001,,,,,,,,,,,,,0,53,53,81,1,0.482105905,1,,,,,,,,,,,,,,,,,,,,,,,,,,,,,,,,,,,,,,,,,,,,,,,,,,,,,,,,,,,,,,,,,,,,,,,,,,,,,,,,
,,614d465852620924f85603c8,2022-09-08_13h27.45.602,CGTgamblingSpanTasks,2022.2.1,Win32,59.73715651,,,,,,,,2.698,,,,,,,,,,,,,,2,v,1.302,11.93550497,0,4.198,1.5,,,,,,14.20587264,0,11.93550497,,,,,,,,,,,,,0,54,54,21,1,0.041340301,0,,,,,,,,,,,,,,,,,,,,,,,,,,,,,,,,,,,,,,,,,,,,,,,,,,,,,,,,,,,,,,,,,,,,,,,,,,,,,,,,
,,614d465852620924f85603c8,2022-09-08_13h27.45.602,CGTgamblingSpanTasks,2022.2.1,Win32,59.73715651,,,,,,,,2.717,,,,,,,,,,,,,,1,v,1.283,0,1,4.217,1.5,,,,,,20.5726842,0,0.073558523,,,,,,,,,,,,,0,55,55,26,1,0.901008565,0,,,,,,,,,,,,,,,,,,,,,,,,,,,,,,,,,,,,,,,,,,,,,,,,,,,,,,,,,,,,,,,,,,,,,,,,,,,,,,,,
,,614d465852620924f85603c8,2022-09-08_13h27.45.602,CGTgamblingSpanTasks,2022.2.1,Win32,59.73715651,,,,,,,,2.031,,,,,,,,,,,,,,2,n,1.969,0,1,3.031,1,,,,,,11.08143071,0,1.207538756,,,,,,,,,,,,,0,56,56,84,1,0.475047453,1,,,,,,,,,,,,,,,,,,,,,,,,,,,,,,,,,,,,,,,,,,,,,,,,,,,,,,,,,,,,,,,,,,,,,,,,,,,,,,,,
,,614d465852620924f85603c8,2022-09-08_13h27.45.602,CGTgamblingSpanTasks,2022.2.1,Win32,59.73715651,,,,,,,,1.782,,,,,,,,,,,,,,2,n,2.218,0,1,2.782,1,,,,,,27.94544945,0,2.32030209,,,,,,,,,,,,,0,57,57,115,1,0.545390564,1,,,,,,,,,,,,,,,,,,,,,,,,,,,,,,,,,,,,,,,,,,,,,,,,,,,,,,,,,,,,,,,,,,,,,,,,,,,,,,,,
,,614d465852620924f85603c8,2022-09-08_13h27.45.602,CGTgamblingSpanTasks,2022.2.1,Win32,59.73715651,,,,,,,,2.649,,,,,,,,,,,,,,2,n,1.351,20.31034258,1,3.649,1,,,,,,20.31034258,0,1.870404296,,,,,,,,,,,,,0,58,58,85,1,0.519325853,1,,,,,,,,,,,,,,,,,,,,,,,,,,,,,,,,,,,,,,,,,,,,,,,,,,,,,,,,,,,,,,,,,,,,,,,,,,,,,,,,
,,614d465852620924f85603c8,2022-09-08_13h27.45.602,CGTgamblingSpanTasks,2022.2.1,Win32,59.73715651,,,,,,,,2.548,,,,,,,,,,,,,,1,n,1.452,4.904872644,0,3.548,1,,,,,,4.698775357,0,4.904872644,,,,,,,,,,,,,0,59,59,75,1,0.028064484,0,,,,,,,,,,,,,,,,,,,,,,,,,,,,,,,,,,,,,,,,,,,,,,,,,,,,,,,,,,,,,,,,,,,,,,,,,,,,,,,,
,,614d465852620924f85603c8,2022-09-08_13h27.45.602,CGTgamblingSpanTasks,2022.2.1,Win32,59.73715651,,,,,,,,2.684,,,,,,,,,,,,,,2,v,1.316,11.6744431,0,4.184,1.5,,,,,,10.43004651,0,11.6744431,,,,,,,,,,,,,0,60,60,15,1,0.026176489,0,,,,,,,,,,,,,,,,,,,,,,,,,,,,,,,,,,,,,,,,,,,,,,,,,,,,,,,,,,,,,,,,,,,,,,,,,,,,,,,,
,,614d465852620924f85603c8,2022-09-08_13h27.45.602,CGTgamblingSpanTasks,2022.2.1,Win32,59.73715651,,,,,,,,2.667,,,,,,,,,,,,,,1,v,1.333,22.0050376,1,3.667,1,,,,,,22.0050376,0,2.257683666,,,,,,,,,,,,,0,61,61,4,1,0.491147312,1,,,,,,,,,,,,,,,,,,,,,,,,,,,,,,,,,,,,,,,,,,,,,,,,,,,,,,,,,,,,,,,,,,,,,,,,,,,,,,,,
,,614d465852620924f85603c8,2022-09-08_13h27.45.602,CGTgamblingSpanTasks,2022.2.1,Win32,59.73715651,,,,,,,,2.048,,,,,,,,,,,,,,2,v,1.952,8.579385201,0,3.548,1.5,,,,,,14.11762686,0,8.579385201,,,,,,,,,,,,,0,62,62,60,1,0.073886959,0,,,,,,,,,,,,,,,,,,,,,,,,,,,,,,,,,,,,,,,,,,,,,,,,,,,,,,,,,,,,,,,,,,,,,,,,,,,,,,,,
,,614d465852620924f85603c8,2022-09-08_13h27.45.602,CGTgamblingSpanTasks,2022.2.1,Win32,59.73715651,,,,,,,,1.934,,,,,,,,,,,,,,1,n,2.066,7.646213173,0,2.934,1,,,,,,2.042350179,0,7.646213173,,,,,,,,,,,,,0,63,63,53,1,0.009522273,0,,,,,,,,,,,,,,,,,,,,,,,,,,,,,,,,,,,,,,,,,,,,,,,,,,,,,,,,,,,,,,,,,,,,,,,,,,,,,,,,
,,614d465852620924f85603c8,2022-09-08_13h27.45.602,CGTgamblingSpanTasks,2022.2.1,Win32,59.73715651,,,,,,,,2.016,,,,,,,,,,,,,,2,n,1.984,24.8002852,1,3.516,1.5,,,,,,24.8002852,0,0.071848086,,,,,,,,,,,,,0,64,64,16,1,0.90783559,0,,,,,,,,,,,,,,,,,,,,,,,,,,,,,,,,,,,,,,,,,,,,,,,,,,,,,,,,,,,,,,,,,,,,,,,,,,,,,,,,
,,614d465852620924f85603c8,2022-09-08_13h27.45.602,CGTgamblingSpanTasks,2022.2.1,Win32,59.73715651,,,,,,,,2.092,,,,,,,,,,,,,,1,n,1.908,8.42547829,0,3.092,1,,,,,,15.87668502,0,8.42547829,,,,,,,,,,,,,0,65,65,56,1,0.092099462,0,,,,,,,,,,,,,,,,,,,,,,,,,,,,,,,,,,,,,,,,,,,,,,,,,,,,,,,,,,,,,,,,,,,,,,,,,,,,,,,,
,,614d465852620924f85603c8,2022-09-08_13h27.45.602,CGTgamblingSpanTasks,2022.2.1,Win32,59.73715651,,,,,,,,2.317,,,,,,,,,,,,,,1,v,1.683,7.534278541,1,3.817,1.5,,,,,,7.534278541,0,0.747140182,,,,,,,,,,,,,0,66,66,37,1,0.50012466,1,,,,,,,,,,,,,,,,,,,,,,,,,,,,,,,,,,,,,,,,,,,,,,,,,,,,,,,,,,,,,,,,,,,,,,,,,,,,,,,,
,,614d465852620924f85603c8,2022-09-08_13h27.45.602,CGTgamblingSpanTasks,2022.2.1,Win32,59.73715651,,,,,,,,2.438,,,,,,,,,,,,,,1,v,1.562,0,1,3.938,1.5,,,,,,29.75778644,0,2.810531415,,,,,,,,,,,,,0,67,67,113,1,0.512824233,1,,,,,,,,,,,,,,,,,,,,,,,,,,,,,,,,,,,,,,,,,,,,,,,,,,,,,,,,,,,,,,,,,,,,,,,,,,,,,,,,
,,614d465852620924f85603c8,2022-09-08_13h27.45.602,CGTgamblingSpanTasks,2022.2.1,Win32,59.73715651,,,,,,,,2.833,,,,,,,,,,,,,,1,n,1.167,5.526483034,0,4.333,1.5,,,,,,9.725876653,0,5.526483034,,,,,,,,,,,,,0,68,68,44,1,0.082550696,0,,,,,,,,,,,,,,,,,,,,,,,,,,,,,,,,,,,,,,,,,,,,,,,,,,,,,,,,,,,,,,,,,,,,,,,,,,,,,,,,
,,614d465852620924f85603c8,2022-09-08_13h27.45.602,CGTgamblingSpanTasks,2022.2.1,Win32,59.73715651,,,,,,,,2.8,,,,,,,,,,,,,,2,n,1.2,0,1,4.3,1.5,,,,,,27.77179191,0,0.074524436,,,,,,,,,,,,,0,69,69,99,1,0.910114387,0,,,,,,,,,,,,,,,,,,,,,,,,,,,,,,,,,,,,,,,,,,,,,,,,,,,,,,,,,,,,,,,,,,,,,,,,,,,,,,,,
,,614d465852620924f85603c8,2022-09-08_13h27.45.602,CGTgamblingSpanTasks,2022.2.1,Win32,59.73715651,,,,,,,,2.632,,,,,,,,,,,,,,2,n,1.368,0,1,4.132,1.5,,,,,,24.57684014,0,0.061756244,,,,,,,,,,,,,0,70,70,68,1,0.911988903,0,,,,,,,,,,,,,,,,,,,,,,,,,,,,,,,,,,,,,,,,,,,,,,,,,,,,,,,,,,,,,,,,,,,,,,,,,,,,,,,,
,,614d465852620924f85603c8,2022-09-08_13h27.45.602,CGTgamblingSpanTasks,2022.2.1,Win32,59.73715651,,,,,,,,2.417,,,,,,,,,,,,,,2,n,1.583,0,1,3.917,1.5,,,,,,18.20422443,0,1.635040165,,,,,,,,,,,,,0,71,71,82,1,0.525708991,1,,,,,,,,,,,,,,,,,,,,,,,,,,,,,,,,,,,,,,,,,,,,,,,,,,,,,,,,,,,,,,,,,,,,,,,,,,,,,,,,
,,614d465852620924f85603c8,2022-09-08_13h27.45.602,CGTgamblingSpanTasks,2022.2.1,Win32,59.73715651,,,,,,,,2.736,,,,,,,,,,,,,,1,v,1.264,22.72923833,1,3.736,1,,,,,,22.72923833,0,0.067170781,,,,,,,,,,,,,0,72,72,86,1,0.907226703,0,,,,,,,,,,,,,,,,,,,,,,,,,,,,,,,,,,,,,,,,,,,,,,,,,,,,,,,,,,,,,,,,,,,,,,,,,,,,,,,,
,,614d465852620924f85603c8,2022-09-08_13h27.45.602,CGTgamblingSpanTasks,2022.2.1,Win32,59.73715651,,,,,,,,2.548,,,,,,,,,,,,,,2,n,1.452,0,1,3.548,1,,,,,,25.56803059,0,2.543951743,,,,,,,,,,,,,0,73,73,41,1,0.499247217,1,,,,,,,,,,,,,,,,,,,,,,,,,,,,,,,,,,,,,,,,,,,,,,,,,,,,,,,,,,,,,,,,,,,,,,,,,,,,,,,,
,,614d465852620924f85603c8,2022-09-08_13h27.45.602,CGTgamblingSpanTasks,2022.2.1,Win32,59.73715651,,,,,,,,2.482,,,,,,,,,,,,,,2,n,1.518,26.36733703,1,3.482,1,,,,,,26.36733703,0,2.201057101,,,,,,,,,,,,,0,74,74,90,1,0.544064207,1,,,,,,,,,,,,,,,,,,,,,,,,,,,,,,,,,,,,,,,,,,,,,,,,,,,,,,,,,,,,,,,,,,,,,,,,,,,,,,,,
,,614d465852620924f85603c8,2022-09-08_13h27.45.602,CGTgamblingSpanTasks,2022.2.1,Win32,59.73715651,,,,,,,,2.593,,,,,,,,,,,,,,2,n,1.407,0,1,3.593,1,,,,,,22.86604061,0,2.293289792,,,,,,,,,,,,,0,75,75,51,1,0.49715382,1,,,,,,,,,,,,,,,,,,,,,,,,,,,,,,,,,,,,,,,,,,,,,,,,,,,,,,,,,,,,,,,,,,,,,,,,,,,,,,,,
,,614d465852620924f85603c8,2022-09-08_13h27.45.602,CGTgamblingSpanTasks,2022.2.1,Win32,59.73715651,,,,,,,,2.644,,,,,,,,,,,,,,2,n,1.356,0,1,4.144,1.5,,,,,,22.62475578,0,2.397643354,,,,,,,,,,,,,0,76,76,93,1,0.482527609,1,,,,,,,,,,,,,,,,,,,,,,,,,,,,,,,,,,,,,,,,,,,,,,,,,,,,,,,,,,,,,,,,,,,,,,,,,,,,,,,,
,,614d465852620924f85603c8,2022-09-08_13h27.45.602,CGTgamblingSpanTasks,2022.2.1,Win32,59.73715651,,,,,,,,2.6,,,,,,,,,,,,,,1,v,1.4,13.96521039,1,4.1,1.5,,,,,,13.96521039,0,1.591282699,,,,,,,,,,,,,0,77,77,49,1,0.462956344,1,,,,,,,,,,,,,,,,,,,,,,,,,,,,,,,,,,,,,,,,,,,,,,,,,,,,,,,,,,,,,,,,,,,,,,,,,,,,,,,,
,,614d465852620924f85603c8,2022-09-08_13h27.45.602,CGTgamblingSpanTasks,2022.2.1,Win32,59.73715651,,,,,,,,2.982,,,,,,,,,,,,,,1,v,1.018,21.00799273,1,3.982,1,,,,,,21.00799273,0,0.067969053,,,,,,,,,,,,,0,78,78,92,1,0.904360262,0,,,,,,,,,,,,,,,,,,,,,,,,,,,,,,,,,,,,,,,,,,,,,,,,,,,,,,,,,,,,,,,,,,,,,,,,,,,,,,,,
,,614d465852620924f85603c8,2022-09-08_13h27.45.602,CGTgamblingSpanTasks,2022.2.1,Win32,59.73715651,,,,,,,,2.883,,,,,,,,,,,,,,2,n,1.117,0,1,4.383,1.5,,,,,,22.25959835,0,0.065383587,,,,,,,,,,,,,0,79,79,97,1,0.907413875,0,,,,,,,,,,,,,,,,,,,,,,,,,,,,,,,,,,,,,,,,,,,,,,,,,,,,,,,,,,,,,,,,,,,,,,,,,,,,,,,,
,,614d465852620924f85603c8,2022-09-08_13h27.45.602,CGTgamblingSpanTasks,2022.2.1,Win32,59.73715651,,,,,,,,2.511,,,,,,,,,,,,,,1,n,1.489,4.462262453,0,3.511,1,,,,,,0.192759042,0,4.462262453,,,,,,,,,,,,,0,80,80,52,1,0.003553223,0,,,,,,,,,,,,,,,,,,,,,,,,,,,,,,,,,,,,,,,,,,,,,,,,,,,,,,,,,,,,,,,,,,,,,,,,,,,,,,,,
,,614d465852620924f85603c8,2022-09-08_13h27.45.602,CGTgamblingSpanTasks,2022.2.1,Win32,59.73715651,,,,,,,,2.381,,,,,,,,,,,,,,2,n,1.619,0,1,3.881,1.5,,,,,,21.16780451,0,2.469465385,,,,,,,,,,,,,0,81,81,32,1,0.456531699,1,,,,,,,,,,,,,,,,,,,,,,,,,,,,,,,,,,,,,,,,,,,,,,,,,,,,,,,,,,,,,,,,,,,,,,,,,,,,,,,,
,,614d465852620924f85603c8,2022-09-08_13h27.45.602,CGTgamblingSpanTasks,2022.2.1,Win32,59.73715651,,,,,,,,2.334,,,,,,,,,,,,,,2,n,1.666,27.37527992,1,3.834,1.5,,,,,,27.37527992,0,2.860319095,,,,,,,,,,,,,0,82,82,39,1,0.486304156,1,,,,,,,,,,,,,,,,,,,,,,,,,,,,,,,,,,,,,,,,,,,,,,,,,,,,,,,,,,,,,,,,,,,,,,,,,,,,,,,,
,,614d465852620924f85603c8,2022-09-08_13h27.45.602,CGTgamblingSpanTasks,2022.2.1,Win32,59.73715651,,,,,,,,2.363,,,,,,,,,,,,,,1,n,1.637,7.50753835,0,3.363,1,,,,,,2.231316635,0,7.50753835,,,,,,,,,,,,,0,83,83,29,1,0.010273427,0,,,,,,,,,,,,,,,,,,,,,,,,,,,,,,,,,,,,,,,,,,,,,,,,,,,,,,,,,,,,,,,,,,,,,,,,,,,,,,,,
,,614d465852620924f85603c8,2022-09-08_13h27.45.602,CGTgamblingSpanTasks,2022.2.1,Win32,59.73715651,,,,,,,,1.915,,,,,,,,,,,,,,2,n,2.085,0,1,3.415,1.5,,,,,,28.9323758,0,2.893007023,,,,,,,,,,,,,0,84,84,11,1,0.497943321,1,,,,,,,,,,,,,,,,,,,,,,,,,,,,,,,,,,,,,,,,,,,,,,,,,,,,,,,,,,,,,,,,,,,,,,,,,,,,,,,,
,,614d465852620924f85603c8,2022-09-08_13h27.45.602,CGTgamblingSpanTasks,2022.2.1,Win32,59.73715651,,,,,,,,2.528,,,,,,,,,,,,,,1,n,1.472,5.683635938,0,4.028,1.5,,,,,,4.941039335,0,5.683635938,,,,,,,,,,,,,0,85,85,9,1,0.025481984,0,,,,,,,,,,,,,,,,,,,,,,,,,,,,,,,,,,,,,,,,,,,,,,,,,,,,,,,,,,,,,,,,,,,,,,,,,,,,,,,,
,,614d465852620924f85603c8,2022-09-08_13h27.45.602,CGTgamblingSpanTasks,2022.2.1,Win32,59.73715651,,,,,,,,2.714,,,,,,,,,,,,,,2,v,1.286,7.850775577,0,3.714,1,,,,,,4.622707531,0,7.850775577,,,,,,,,,,,,,0,86,86,6,1,0.017737407,0,,,,,,,,,,,,,,,,,,,,,,,,,,,,,,,,,,,,,,,,,,,,,,,,,,,,,,,,,,,,,,,,,,,,,,,,,,,,,,,,
,,614d465852620924f85603c8,2022-09-08_13h27.45.602,CGTgamblingSpanTasks,2022.2.1,Win32,59.73715651,,,,,,,,2.552,,,,,,,,,,,,,,1,n,1.448,3.877530383,0,4.052,1.5,,,,,,3.471484939,0,3.877530383,,,,,,,,,,,,,0,87,87,40,1,0.02623078,0,,,,,,,,,,,,,,,,,,,,,,,,,,,,,,,,,,,,,,,,,,,,,,,,,,,,,,,,,,,,,,,,,,,,,,,,,,,,,,,,
,,614d465852620924f85603c8,2022-09-08_13h27.45.602,CGTgamblingSpanTasks,2022.2.1,Win32,59.73715651,,,,,,,,2.734,,,,,,,,,,,,,,1,v,1.266,21.17800335,1,3.734,1,,,,,,21.17800335,0,0.059830985,,,,,,,,,,,,,0,88,88,67,1,0.908594974,0,,,,,,,,,,,,,,,,,,,,,,,,,,,,,,,,,,,,,,,,,,,,,,,,,,,,,,,,,,,,,,,,,,,,,,,,,,,,,,,,
,,614d465852620924f85603c8,2022-09-08_13h27.45.602,CGTgamblingSpanTasks,2022.2.1,Win32,59.73715651,,,,,,,,2.029,,,,,,,,,,,,,,2,n,1.971,9.012590634,1,3.029,1,,,,,,9.012590634,0,1.002188111,,,,,,,,,,,,,0,89,89,12,1,0.46958041,1,,,,,,,,,,,,,,,,,,,,,,,,,,,,,,,,,,,,,,,,,,,,,,,,,,,,,,,,,,,,,,,,,,,,,,,,,,,,,,,,
,,614d465852620924f85603c8,2022-09-08_13h27.45.602,CGTgamblingSpanTasks,2022.2.1,Win32,59.73715651,,,,,,,,2.495,,,,,,,,,,,,,,2,n,1.505,28.68598705,1,3.995,1.5,,,,,,28.68598705,0,0.050674956,,,,,,,,,,,,,0,90,90,62,1,0.920905497,0,,,,,,,,,,,,,,,,,,,,,,,,,,,,,,,,,,,,,,,,,,,,,,,,,,,,,,,,,,,,,,,,,,,,,,,,,,,,,,,,
,,614d465852620924f85603c8,2022-09-08_13h27.45.602,CGTgamblingSpanTasks,2022.2.1,Win32,59.73715651,,,,,,,,2.753,,,,,,,,,,,,,,1,v,1.247,25.21882231,1,3.753,1,,,,,,25.21882231,0,0.085746782,,,,,,,,,,,,,0,91,91,64,1,0.90272076,0,,,,,,,,,,,,,,,,,,,,,,,,,,,,,,,,,,,,,,,,,,,,,,,,,,,,,,,,,,,,,,,,,,,,,,,,,,,,,,,,
,,614d465852620924f85603c8,2022-09-08_13h27.45.602,CGTgamblingSpanTasks,2022.2.1,Win32,59.73715651,,,,,,,,2.588,,,,,,,,,,,,,,2,n,1.412,19.5450126,1,3.588,1,,,,,,19.5450126,0,2.123581464,,,,,,,,,,,,,0,92,92,65,1,0.475836144,1,,,,,,,,,,,,,,,,,,,,,,,,,,,,,,,,,,,,,,,,,,,,,,,,,,,,,,,,,,,,,,,,,,,,,,,,,,,,,,,,
,,614d465852620924f85603c8,2022-09-08_13h27.45.602,CGTgamblingSpanTasks,2022.2.1,Win32,59.73715651,,,,,,,,1.629,,,,,,,,,,,,,,1,v,2.371,17.23907308,1,2.629,1,,,,,,17.23907308,0,2.055848574,,,,,,,,,,,,,0,93,93,66,1,0.450504458,1,,,,,,,,,,,,,,,,,,,,,,,,,,,,,,,,,,,,,,,,,,,,,,,,,,,,,,,,,,,,,,,,,,,,,,,,,,,,,,,,
,,614d465852620924f85603c8,2022-09-08_13h27.45.602,CGTgamblingSpanTasks,2022.2.1,Win32,59.73715651,,,,,,,,2.869,,,,,,,,,,,,,,1,v,1.131,0,1,4.369,1.5,,,,,,27.76752685,0,0.083968035,,,,,,,,,,,,,0,94,94,13,1,0.906513967,0,,,,,,,,,,,,,,,,,,,,,,,,,,,,,,,,,,,,,,,,,,,,,,,,,,,,,,,,,,,,,,,,,,,,,,,,,,,,,,,,
,,614d465852620924f85603c8,2022-09-08_13h27.45.602,CGTgamblingSpanTasks,2022.2.1,Win32,59.73715651,,,,,,,,1.798,,,,,,,,,,,,,,2,n,2.202,0,1,2.798,1,,,,,,21.39646914,0,0.072474078,,,,,,,,,,,,,0,95,95,3,1,0.902848133,0,,,,,,,,,,,,,,,,,,,,,,,,,,,,,,,,,,,,,,,,,,,,,,,,,,,,,,,,,,,,,,,,,,,,,,,,,,,,,,,,
,,614d465852620924f85603c8,2022-09-08_13h27.45.602,CGTgamblingSpanTasks,2022.2.1,Win32,59.73715651,,,,,,,,3.022,,,,,,,,,,,,,,1,v,0.978,0,1,4.522,1.5,,,,,,21.03408097,0,2.208275162,,,,,,,,,,,,,0,96,96,0,1,0.485031246,1,,,,,,,,,,,,,,,,,,,,,,,,,,,,,,,,,,,,,,,,,,,,,,,,,,,,,,,,,,,,,,,,,,,,,,,,,,,,,,,,
,,614d465852620924f85603c8,2022-09-08_13h27.45.602,CGTgamblingSpanTasks,2022.2.1,Win32,59.73715651,,,,,,,,2.869,,,,,,,,,,,,,,1,v,1.131,28.18900855,1,3.869,1,,,,,,28.18900855,0,0.05384276,,,,,,,,,,,,,0,97,97,55,1,0.919081308,0,,,,,,,,,,,,,,,,,,,,,,,,,,,,,,,,,,,,,,,,,,,,,,,,,,,,,,,,,,,,,,,,,,,,,,,,,,,,,,,,
,,614d465852620924f85603c8,2022-09-08_13h27.45.602,CGTgamblingSpanTasks,2022.2.1,Win32,59.73715651,,,,,,,,0,,,,,,,,,,,,,,2,,,,,1.5,1.5,,,,,,7.066129113,0,0.585581699,,,,,,,,,,,,,0,98,98,19,1,0.545860632,1,,,,,,,,,,,,,,,,,,,,,,,,,,,,,,,,,,,,,,,,,,,,,,,,,,,,,,,,,,,,,,,,,,,,,,,,,,,,,,,,
,,614d465852620924f85603c8,2022-09-08_13h27.45.602,CGTgamblingSpanTasks,2022.2.1,Win32,59.73715651,,,,,,,,2.501,,,,,,,,,,,,,,2,n,1.499,25.76582409,1,4.001,1.5,,,,,,25.76582409,0,2.393193076,,,,,,,,,,,,,0,99,99,46,1,0.517129855,1,,,,,,,,,,,,,,,,,,,,,,,,,,,,,,,,,,,,,,,,,,,,,,,,,,,,,,,,,,,,,,,,,,,,,,,,,,,,,,,,
,,614d465852620924f85603c8,2022-09-08_13h27.45.602,CGTgamblingSpanTasks,2022.2.1,Win32,59.73715651,,,,,,,,3.04,,,,,,,,,,,,,,1,v,0.96,19.3050342,1,4.54,1.5,,,,,,19.3050342,0,2.030232342,,,,,,,,,,,,,0,100,100,73,1,0.484573227,1,,,,,,,,,,,,,,,,,,,,,,,,,,,,,,,,,,,,,,,,,,,,,,,,,,,,,,,,,,,,,,,,,,,,,,,,,,,,,,,,
,,614d465852620924f85603c8,2022-09-08_13h27.45.602,CGTgamblingSpanTasks,2022.2.1,Win32,59.73715651,,,,,,,,2.834,,,,,,,,,,,,,,1,n,1.166,6.091504705,0,3.834,1,,,,,,6.662965216,0,6.091504705,,,,,,,,,,,,,0,101,101,102,1,0.035087099,0,,,,,,,,,,,,,,,,,,,,,,,,,,,,,,,,,,,,,,,,,,,,,,,,,,,,,,,,,,,,,,,,,,,,,,,,,,,,,,,,
,,614d465852620924f85603c8,2022-09-08_13h27.45.602,CGTgamblingSpanTasks,2022.2.1,Win32,59.73715651,,,,,,,,2.865,,,,,,,,,,,,,,2,v,1.135,8.512335864,0,3.865,1,,,,,,10.05300841,0,8.512335864,,,,,,,,,,,,,0,102,102,74,1,0.040729225,0,,,,,,,,,,,,,,,,,,,,,,,,,,,,,,,,,,,,,,,,,,,,,,,,,,,,,,,,,,,,,,,,,,,,,,,,,,,,,,,,
,,614d465852620924f85603c8,2022-09-08_13h27.45.602,CGTgamblingSpanTasks,2022.2.1,Win32,59.73715651,,,,,,,,3.013,,,,,,,,,,,,,,1,v,0.987,0,1,4.013,1,,,,,,25.26994993,0,2.78925142,,,,,,,,,,,,,0,103,103,108,1,0.471582922,1,,,,,,,,,,,,,,,,,,,,,,,,,,,,,,,,,,,,,,,,,,,,,,,,,,,,,,,,,,,,,,,,,,,,,,,,,,,,,,,,
,,614d465852620924f85603c8,2022-09-08_13h27.45.602,CGTgamblingSpanTasks,2022.2.1,Win32,59.73715651,,,,,,,,2.9,,,,,,,,,,,,,,1,v,1.1,0,1,3.9,1,,,,,,27.60724521,0,0.088432325,,,,,,,,,,,,,0,104,104,17,1,0.904684186,0,,,,,,,,,,,,,,,,,,,,,,,,,,,,,,,,,,,,,,,,,,,,,,,,,,,,,,,,,,,,,,,,,,,,,,,,,,,,,,,,
,,614d465852620924f85603c8,2022-09-08_13h27.45.602,CGTgamblingSpanTasks,2022.2.1,Win32,59.73715651,,,,,,,,2.948,,,,,,,,,,,,,,2,n,1.052,0,1,3.948,1,,,,,,19.68065872,0,1.843597162,,,,,,,,,,,,,0,105,105,80,1,0.514941058,1,,,,,,,,,,,,,,,,,,,,,,,,,,,,,,,,,,,,,,,,,,,,,,,,,,,,,,,,,,,,,,,,,,,,,,,,,,,,,,,,
,,614d465852620924f85603c8,2022-09-08_13h27.45.602,CGTgamblingSpanTasks,2022.2.1,Win32,59.73715651,,,,,,,,2.7,,,,,,,,,,,,,,1,v,1.3,23.59556381,1,3.7,1,,,,,,23.59556381,0,2.464662219,,,,,,,,,,,,,0,106,106,22,1,0.486383205,1,,,,,,,,,,,,,,,,,,,,,,,,,,,,,,,,,,,,,,,,,,,,,,,,,,,,,,,,,,,,,,,,,,,,,,,,,,,,,,,,
,,614d465852620924f85603c8,2022-09-08_13h27.45.602,CGTgamblingSpanTasks,2022.2.1,Win32,59.73715651,,,,,,,,2.634,,,,,,,,,,,,,,1,n,1.366,6.781500919,0,4.134,1.5,,,,,,8.363821911,0,6.781500919,,,,,,,,,,,,,0,107,107,61,1,0.044227959,0,,,,,,,,,,,,,,,,,,,,,,,,,,,,,,,,,,,,,,,,,,,,,,,,,,,,,,,,,,,,,,,,,,,,,,,,,,,,,,,,
,,614d465852620924f85603c8,2022-09-08_13h27.45.602,CGTgamblingSpanTasks,2022.2.1,Win32,59.73715651,,,,,,,,2.132,,,,,,,,,,,,,,2,n,1.868,29.30724159,1,3.132,1,,,,,,29.30724159,0,3.247012935,,,,,,,,,,,,,0,108,108,71,1,0.470571125,1,,,,,,,,,,,,,,,,,,,,,,,,,,,,,,,,,,,,,,,,,,,,,,,,,,,,,,,,,,,,,,,,,,,,,,,,,,,,,,,,
,,614d465852620924f85603c8,2022-09-08_13h27.45.602,CGTgamblingSpanTasks,2022.2.1,Win32,59.73715651,,,,,,,,2.366,,,,,,,,,,,,,,1,v,1.634,0,1,3.866,1.5,,,,,,11.16819157,0,0.941456753,,,,,,,,,,,,,0,109,109,45,1,0.54163803,1,,,,,,,,,,,,,,,,,,,,,,,,,,,,,,,,,,,,,,,,,,,,,,,,,,,,,,,,,,,,,,,,,,,,,,,,,,,,,,,,
,,614d465852620924f85603c8,2022-09-08_13h27.45.602,CGTgamblingSpanTasks,2022.2.1,Win32,59.73715651,,,,,,,,2.453,,,,,,,,,,,,,,2,v,1.547,11.39288827,0,3.453,1,,,,,,20.97851654,0,11.39288827,,,,,,,,,,,,,0,110,110,2,1,0.088791079,0,,,,,,,,,,,,,,,,,,,,,,,,,,,,,,,,,,,,,,,,,,,,,,,,,,,,,,,,,,,,,,,,,,,,,,,,,,,,,,,,
,,614d465852620924f85603c8,2022-09-08_13h27.45.602,CGTgamblingSpanTasks,2022.2.1,Win32,59.73715651,,,,,,,,2.23,,,,,,,,,,,,,,1,n,1.77,1.025847652,0,3.73,1.5,,,,,,8.670591867,0,1.025847652,,,,,,,,,,,,,0,111,111,18,1,0.452680459,1,,,,,,,,,,,,,,,,,,,,,,,,,,,,,,,,,,,,,,,,,,,,,,,,,,,,,,,,,,,,,,,,,,,,,,,,,,,,,,,,
,,614d465852620924f85603c8,2022-09-08_13h27.45.602,CGTgamblingSpanTasks,2022.2.1,Win32,59.73715651,,,,,,,,1.373,,,,,,,,,,,,,,2,v,2.627,10.41201161,0,2.873,1.5,,,,,,6.307062696,0,10.41201161,,,,,,,,,,,,,0,112,112,23,1,0.018187109,0,,,,,,,,,,,,,,,,,,,,,,,,,,,,,,,,,,,,,,,,,,,,,,,,,,,,,,,,,,,,,,,,,,,,,,,,,,,,,,,,
,,614d465852620924f85603c8,2022-09-08_13h27.45.602,CGTgamblingSpanTasks,2022.2.1,Win32,59.73715651,,,,,,,,1.965,,,,,,,,,,,,,,1,v,2.035,27.88092897,1,3.465,1.5,,,,,,27.88092897,0,2.771762788,,,,,,,,,,,,,0,113,113,117,1,0.499466648,1,,,,,,,,,,,,,,,,,,,,,,,,,,,,,,,,,,,,,,,,,,,,,,,,,,,,,,,,,,,,,,,,,,,,,,,,,,,,,,,,
,,614d465852620924f85603c8,2022-09-08_13h27.45.602,CGTgamblingSpanTasks,2022.2.1,Win32,59.73715651,,,,,,,,1.462,,,,,,,,,,,,,,1,v,2.538,8.217594828,1,2.962,1.5,,,,,,8.217594828,0,0.951019374,,,,,,,,,,,,,0,114,114,87,1,0.458722936,1,,,,,,,,,,,,,,,,,,,,,,,,,,,,,,,,,,,,,,,,,,,,,,,,,,,,,,,,,,,,,,,,,,,,,,,,,,,,,,,,
,,614d465852620924f85603c8,2022-09-08_13h27.45.602,CGTgamblingSpanTasks,2022.2.1,Win32,59.73715651,,,,,,,,2.986,,,,,,,,,,,,,,1,v,1.014,0,1,4.486,1.5,,,,,,26.16821818,0,0.093528069,,,,,,,,,,,,,0,115,115,42,1,0.901022427,0,,,,,,,,,,,,,,,,,,,,,,,,,,,,,,,,,,,,,,,,,,,,,,,,,,,,,,,,,,,,,,,,,,,,,,,,,,,,,,,,
,,614d465852620924f85603c8,2022-09-08_13h27.45.602,CGTgamblingSpanTasks,2022.2.1,Win32,59.73715651,,,,,,,,2.803,,,,,,,,,,,,,,2,n,1.197,28.13634754,1,3.803,1,,,,,,28.13634754,0,2.532806323,,,,,,,,,,,,,0,116,116,28,1,0.525136524,1,,,,,,,,,,,,,,,,,,,,,,,,,,,,,,,,,,,,,,,,,,,,,,,,,,,,,,,,,,,,,,,,,,,,,,,,,,,,,,,,
,,614d465852620924f85603c8,2022-09-08_13h27.45.602,CGTgamblingSpanTasks,2022.2.1,Win32,59.73715651,,,,,,,,2.778,,,,,,,,,,,,,,2,n,1.222,0,1,4.278,1.5,,,,,,21.48443242,0,2.229247341,,,,,,,,,,,,,0,117,117,63,1,0.488155912,1,,,,,,,,,,,,,,,,,,,,,,,,,,,,,,,,,,,,,,,,,,,,,,,,,,,,,,,,,,,,,,,,,,,,,,,,,,,,,,,,
,,614d465852620924f85603c8,2022-09-08_13h27.45.602,CGTgamblingSpanTasks,2022.2.1,Win32,59.73715651,,,,,,,,3.021,,,,,,,,,,,,,,2,n,0.979,0,1,4.021,1,,,,,,26.11188619,0,0.081942421,,,,,,,,,,,,,0,118,118,105,1,0.905343856,0,,,,,,,,,,,,,,,,,,,,,,,,,,,,,,,,,,,,,,,,,,,,,,,,,,,,,,,,,,,,,,,,,,,,,,,,,,,,,,,,
,,614d465852620924f85603c8,2022-09-08_13h27.45.602,CGTgamblingSpanTasks,2022.2.1,Win32,59.73715651,,,,,,,,2.276,,,,,,,,,,,,,,2,v,1.724,11.42134125,0,3.276,1,,,,,,12.9904115,0,11.42134125,,,,,,,,,,,,,0,119,119,118,1,0.037876033,0,,,,,,,,,,,,,,,,,,,,,,,,,,,,,,,,,,,,,,,,,,,,,,,,,,,,,,,,,,,,,,,,,,,,,,,,,,,,,,,,
,,614d465852620924f85603c8,2022-09-08_13h27.45.602,CGTgamblingSpanTasks,2022.2.1,Win32,59.73715651,,,,,,,,,,,,,,,,,,,,,,,,,,,,,,,,,,,,,,,,,,,,,,,,,,,,,,,,return,15.159,,,,,,,,,,,,,,,,,,,,,,,,,,,,,,,,,,,,,,,,,,,,,,,,,,,,,,,,,,,,,,,,,,,,,,,,,,,,,,
,,614d465852620924f85603c8,2022-09-08_13h27.45.602,CGTgamblingSpanTasks,2022.2.1,Win32,59.73715651,,,,,,,,,,,,,,,,,,,,,,,,,,,,,,,,,,,,,,,,,,,,,,,,,,,,,,,,,,return,29.044,,,,,,,,,,,,,,,,,,,,,,,,,,,,,,,,,,,,,,,,,,,,,,,,,,,,,,,,,,,,,,,,,,,,,,,,,,,,
,,614d465852620924f85603c8,2022-09-08_13h27.45.602,CGTgamblingSpanTasks,2022.2.1,Win32,59.73715651,,,,,,,,,,,,,,,,,,,,,,,,,,,,,,,,,,,,,,,,,,,,,,,,,,,,,,,,,,,,return,40.563,,,,,,,,,,,,,,,,,,,,,,,,,,,,,,,,,,,,,,,,,,,,,,,,,,,,,,,,,,,,,,,,,,,,,,,,,,
,,614d465852620924f85603c8,2022-09-08_13h27.45.602,CGTgamblingSpanTasks,2022.2.1,Win32,59.73715651,,,,,,,,,,,,,,,,,,,,,,,,,,,,,,,,,,,,,,,,,,,,,,,,,,,,,,,,,,,,,,342,1,-0.146919431,-0.395734597,1,0,0,cont_buttonPractice,0,0,0,0,1,3,342,24,2,42,,,,,,,,,,,,,,,,,,,,,,,,,,,,,,,,,,,,,,,,,,,,,,,,,,,,,,,,
,,614d465852620924f85603c8,2022-09-08_13h27.45.602,CGTgamblingSpanTasks,2022.2.1,Win32,59.73715651,,,,,,,,,,,,,,,,,,,,,,,,,,,,,,,,,,,,,,,,,,,,,,,,,,,,,,,,,,,,,,937,1,-0.08056872,-0.393364929,1,0,0,cont_buttonPractice,0,1,1,1,1,3,937,73,2,37,,,,,,,,,,,,,,,,,,,,,,,,,,,,,,,,,,,,,,,,,,,,,,,,,,,,,,,,
,,614d465852620924f85603c8,2022-09-08_13h27.45.602,CGTgamblingSpanTasks,2022.2.1,Win32,59.73715651,,,,,,,,,,,,,,,,,,,,,,,,,,,,,,,,,,,,,,,,,,,,,,,,,,,,,,,,,,,,,,,,,,,,,,,,,,,,,,,,return,10.944,,,,,,,,,,,,,,,,,,,,,,,,,,,,,,,,,,,,,,,,,,,,,,,,,,,,,,
,,614d465852620924f85603c8,2022-09-08_13h27.45.602,CGTgamblingSpanTasks,2022.2.1,Win32,59.73715651,,,,,,,,,,,,,,,,,,,,,,,,,,,,,,,,,,,,,,,,,,,,,,,,,,,,,,,,,,,,,,,,,,,,,,,,,,,,,,,,,,"[6,7,5]",0,0,0,0,1,,,,,,,,,,,,,,,,,,,,,,,,,,,,,,,,,,,,,,,,,,,,,,,,
,,614d465852620924f85603c8,2022-09-08_13h27.45.602,CGTgamblingSpanTasks,2022.2.1,Win32,59.73715651,,,,,,,,,,,,,,,,,,,,,,,,,,,,,,,,,,,,,,,,,,,,,,,,,,,,,,,,,,,,,,,,,,,,,,,,,,,,,,,,,,"[6,7,5]",1,0,1,0,1,,,,,,,,,,,,,,,,,,,,,,,,,,,,,,,,,,,,,,,,,,,,,,,,
,,614d465852620924f85603c8,2022-09-08_13h27.45.602,CGTgamblingSpanTasks,2022.2.1,Win32,59.73715651,,,,,,,,,,,,,,,,,,,,,,,,,,,,,,,,,,,,,,,,,,,,,,,,,,,,,,,,,,,,,,,,,,,,,,,,,,,,,,,,,,"[6,7,5]",2,0,2,0,1,,,,,,,,,,,,,,,,,,,,,,,,,,,,,,,,,,,,,,,,,,,,,,,,
,,614d465852620924f85603c8,2022-09-08_13h27.45.602,CGTgamblingSpanTasks,2022.2.1,Win32,59.73715651,,,,,,,,,,,,,,,,,,,,,,,,,,,,,,,,,,,,,,,,,,,,,,,,,,,,,,,,,,,,,,,1,,,,,,,,,,,,,,,,,,,,,,,,,675,-0.049763033,-0.431279621,1,0,0,cont_button,0,0,0,0,1,1,,,,,,,,,,,,,,,,,,,,,,,,,,,,,,,,,,,
,,614d465852620924f85603c8,2022-09-08_13h27.45.602,CGTgamblingSpanTasks,2022.2.1,Win32,59.73715651,,,,,,,,,,,,,,,,,,,,,,,,,,,,,,,,,,,,,,,,,,,,,,,,,,,,,,,,,,,,,,,,,,,,,,,,,,,,,,,,,,"[5,9,8,2]",0,0,0,0,1,,,,,,,,,,,,,,,,,,,,,,,,,,,,,,,,,,,,,,,,,,,,,,,,
,,614d465852620924f85603c8,2022-09-08_13h27.45.602,CGTgamblingSpanTasks,2022.2.1,Win32,59.73715651,,,,,,,,,,,,,,,,,,,,,,,,,,,,,,,,,,,,,,,,,,,,,,,,,,,,,,,,,,,,,,,,,,,,,,,,,,,,,,,,,,"[5,9,8,2]",1,0,1,0,1,,,,,,,,,,,,,,,,,,,,,,,,,,,,,,,,,,,,,,,,,,,,,,,,
,,614d465852620924f85603c8,2022-09-08_13h27.45.602,CGTgamblingSpanTasks,2022.2.1,Win32,59.73715651,,,,,,,,,,,,,,,,,,,,,,,,,,,,,,,,,,,,,,,,,,,,,,,,,,,,,,,,,,,,,,,,,,,,,,,,,,,,,,,,,,"[5,9,8,2]",2,0,2,0,1,,,,,,,,,,,,,,,,,,,,,,,,,,,,,,,,,,,,,,,,,,,,,,,,
,,614d465852620924f85603c8,2022-09-08_13h27.45.602,CGTgamblingSpanTasks,2022.2.1,Win32,59.73715651,,,,,,,,,,,,,,,,,,,,,,,,,,,,,,,,,,,,,,,,,,,,,,,,,,,,,,,,,,,,,,,,,,,,,,,,,,,,,,,,,,"[5,9,8,2]",3,0,3,0,1,,,,,,,,,,,,,,,,,,,,,,,,,,,,,,,,,,,,,,,,,,,,,,,,
,,614d465852620924f85603c8,2022-09-08_13h27.45.602,CGTgamblingSpanTasks,2022.2.1,Win32,59.73715651,,,,,,,,,,,,,,,,,,,,,,,,,,,,,,,,,,,,,,,,,,,,,,,,,,,,,,,,,,,,,,,1,,,,,,,,,,,,,,,,,,,,,,,,,5982,-0.045023697,-0.409952607,1,0,0,cont_button,0,1,1,1,1,2,,,,,,,,,,,,,,,,,,,,,,,,,,,,,,,,,,,
,,614d465852620924f85603c8,2022-09-08_13h27.45.602,CGTgamblingSpanTasks,2022.2.1,Win32,59.73715651,,,,,,,,,,,,,,,,,,,,,,,,,,,,,,,,,,,,,,,,,,,,,,,,,,,,,,,,,,,,,,,,,,,,,,,,,,,,,,,,,,"[1,5,3,6,8]",0,0,0,0,1,,,,,,,,,,,,,,,,,,,,,,,,,,,,,,,,,,,,,,,,,,,,,,,,
,,614d465852620924f85603c8,2022-09-08_13h27.45.602,CGTgamblingSpanTasks,2022.2.1,Win32,59.73715651,,,,,,,,,,,,,,,,,,,,,,,,,,,,,,,,,,,,,,,,,,,,,,,,,,,,,,,,,,,,,,,,,,,,,,,,,,,,,,,,,,"[1,5,3,6,8]",1,0,1,0,1,,,,,,,,,,,,,,,,,,,,,,,,,,,,,,,,,,,,,,,,,,,,,,,,
,,614d465852620924f85603c8,2022-09-08_13h27.45.602,CGTgamblingSpanTasks,2022.2.1,Win32,59.73715651,,,,,,,,,,,,,,,,,,,,,,,,,,,,,,,,,,,,,,,,,,,,,,,,,,,,,,,,,,,,,,,,,,,,,,,,,,,,,,,,,,"[1,5,3,6,8]",2,0,2,0,1,,,,,,,,,,,,,,,,,,,,,,,,,,,,,,,,,,,,,,,,,,,,,,,,
,,614d465852620924f85603c8,2022-09-08_13h27.45.602,CGTgamblingSpanTasks,2022.2.1,Win32,59.73715651,,,,,,,,,,,,,,,,,,,,,,,,,,,,,,,,,,,,,,,,,,,,,,,,,,,,,,,,,,,,,,,,,,,,,,,,,,,,,,,,,,"[1,5,3,6,8]",3,0,3,0,1,,,,,,,,,,,,,,,,,,,,,,,,,,,,,,,,,,,,,,,,,,,,,,,,
,,614d465852620924f85603c8,2022-09-08_13h27.45.602,CGTgamblingSpanTasks,2022.2.1,Win32,59.73715651,,,,,,,,,,,,,,,,,,,,,,,,,,,,,,,,,,,,,,,,,,,,,,,,,,,,,,,,,,,,,,,,,,,,,,,,,,,,,,,,,,"[1,5,3,6,8]",4,0,4,0,1,,,,,,,,,,,,,,,,,,,,,,,,,,,,,,,,,,,,,,,,,,,,,,,,
,,614d465852620924f85603c8,2022-09-08_13h27.45.602,CGTgamblingSpanTasks,2022.2.1,Win32,59.73715651,,,,,,,,,,,,,,,,,,,,,,,,,,,,,,,,,,,,,,,,,,,,,,,,,,,,,,,,,,,,,,,1,,,,,,,,,,,,,,,,,,,,,,,,,15368,-0.047393365,-0.412322275,1,0,0,cont_button,0,2,2,2,1,3,,,,,,,,,,,,,,,,,,,,,,,,,,,,,,,,,,,
,,614d465852620924f85603c8,2022-09-08_13h27.45.602,CGTgamblingSpanTasks,2022.2.1,Win32,59.73715651,,,,,,,,,,,,,,,,,,,,,,,,,,,,,,,,,,,,,,,,,,,,,,,,,,,,,,,,,,,,,,,,,,,,,,,,,,,,,,,,,,"[5,1,8,6,4,9]",0,0,0,0,1,,,,,,,,,,,,,,,,,,,,,,,,,,,,,,,,,,,,,,,,,,,,,,,,
,,614d465852620924f85603c8,2022-09-08_13h27.45.602,CGTgamblingSpanTasks,2022.2.1,Win32,59.73715651,,,,,,,,,,,,,,,,,,,,,,,,,,,,,,,,,,,,,,,,,,,,,,,,,,,,,,,,,,,,,,,,,,,,,,,,,,,,,,,,,,"[5,1,8,6,4,9]",1,0,1,0,1,,,,,,,,,,,,,,,,,,,,,,,,,,,,,,,,,,,,,,,,,,,,,,,,
,,614d465852620924f85603c8,2022-09-08_13h27.45.602,CGTgamblingSpanTasks,2022.2.1,Win32,59.73715651,,,,,,,,,,,,,,,,,,,,,,,,,,,,,,,,,,,,,,,,,,,,,,,,,,,,,,,,,,,,,,,,,,,,,,,,,,,,,,,,,,"[5,1,8,6,4,9]",2,0,2,0,1,,,,,,,,,,,,,,,,,,,,,,,,,,,,,,,,,,,,,,,,,,,,,,,,
,,614d465852620924f85603c8,2022-09-08_13h27.45.602,CGTgamblingSpanTasks,2022.2.1,Win32,59.73715651,,,,,,,,,,,,,,,,,,,,,,,,,,,,,,,,,,,,,,,,,,,,,,,,,,,,,,,,,,,,,,,,,,,,,,,,,,,,,,,,,,"[5,1,8,6,4,9]",3,0,3,0,1,,,,,,,,,,,,,,,,,,,,,,,,,,,,,,,,,,,,,,,,,,,,,,,,
,,614d465852620924f85603c8,2022-09-08_13h27.45.602,CGTgamblingSpanTasks,2022.2.1,Win32,59.73715651,,,,,,,,,,,,,,,,,,,,,,,,,,,,,,,,,,,,,,,,,,,,,,,,,,,,,,,,,,,,,,,,,,,,,,,,,,,,,,,,,,"[5,1,8,6,4,9]",4,0,4,0,1,,,,,,,,,,,,,,,,,,,,,,,,,,,,,,,,,,,,,,,,,,,,,,,,
,,614d465852620924f85603c8,2022-09-08_13h27.45.602,CGTgamblingSpanTasks,2022.2.1,Win32,59.73715651,,,,,,,,,,,,,,,,,,,,,,,,,,,,,,,,,,,,,,,,,,,,,,,,,,,,,,,,,,,,,,,,,,,,,,,,,,,,,,,,,,"[5,1,8,6,4,9]",5,0,5,0,1,,,,,,,,,,,,,,,,,,,,,,,,,,,,,,,,,,,,,,,,,,,,,,,,
,,614d465852620924f85603c8,2022-09-08_13h27.45.602,CGTgamblingSpanTasks,2022.2.1,Win32,59.73715651,,,,,,,,,,,,,,,,,,,,,,,,,,,,,,,,,,,,,,,,,,,,,,,,,,,,,,,,,,,,,,,1,,,,,,,,,,,,,,,,,,,,,,,,,518649,-0.061611374,-0.417061611,1,0,0,cont_button,0,3,3,3,1,4,,,,,,,,,,,,,,,,,,,,,,,,,,,,,,,,,,,
,,614d465852620924f85603c8,2022-09-08_13h27.45.602,CGTgamblingSpanTasks,2022.2.1,Win32,59.73715651,,,,,,,,,,,,,,,,,,,,,,,,,,,,,,,,,,,,,,,,,,,,,,,,,,,,,,,,,,,,,,,,,,,,,,,,,,,,,,,,,,"[2,4,9,1,5,7,8]",0,0,0,0,1,,,,,,,,,,,,,,,,,,,,,,,,,,,,,,,,,,,,,,,,,,,,,,,,
,,614d465852620924f85603c8,2022-09-08_13h27.45.602,CGTgamblingSpanTasks,2022.2.1,Win32,59.73715651,,,,,,,,,,,,,,,,,,,,,,,,,,,,,,,,,,,,,,,,,,,,,,,,,,,,,,,,,,,,,,,,,,,,,,,,,,,,,,,,,,"[2,4,9,1,5,7,8]",1,0,1,0,1,,,,,,,,,,,,,,,,,,,,,,,,,,,,,,,,,,,,,,,,,,,,,,,,
,,614d465852620924f85603c8,2022-09-08_13h27.45.602,CGTgamblingSpanTasks,2022.2.1,Win32,59.73715651,,,,,,,,,,,,,,,,,,,,,,,,,,,,,,,,,,,,,,,,,,,,,,,,,,,,,,,,,,,,,,,,,,,,,,,,,,,,,,,,,,"[2,4,9,1,5,7,8]",2,0,2,0,1,,,,,,,,,,,,,,,,,,,,,,,,,,,,,,,,,,,,,,,,,,,,,,,,
,,614d465852620924f85603c8,2022-09-08_13h27.45.602,CGTgamblingSpanTasks,2022.2.1,Win32,59.73715651,,,,,,,,,,,,,,,,,,,,,,,,,,,,,,,,,,,,,,,,,,,,,,,,,,,,,,,,,,,,,,,,,,,,,,,,,,,,,,,,,,"[2,4,9,1,5,7,8]",3,0,3,0,1,,,,,,,,,,,,,,,,,,,,,,,,,,,,,,,,,,,,,,,,,,,,,,,,
,,614d465852620924f85603c8,2022-09-08_13h27.45.602,CGTgamblingSpanTasks,2022.2.1,Win32,59.73715651,,,,,,,,,,,,,,,,,,,,,,,,,,,,,,,,,,,,,,,,,,,,,,,,,,,,,,,,,,,,,,,,,,,,,,,,,,,,,,,,,,"[2,4,9,1,5,7,8]",4,0,4,0,1,,,,,,,,,,,,,,,,,,,,,,,,,,,,,,,,,,,,,,,,,,,,,,,,
,,614d465852620924f85603c8,2022-09-08_13h27.45.602,CGTgamblingSpanTasks,2022.2.1,Win32,59.73715651,,,,,,,,,,,,,,,,,,,,,,,,,,,,,,,,,,,,,,,,,,,,,,,,,,,,,,,,,,,,,,,,,,,,,,,,,,,,,,,,,,"[2,4,9,1,5,7,8]",5,0,5,0,1,,,,,,,,,,,,,,,,,,,,,,,,,,,,,,,,,,,,,,,,,,,,,,,,
,,614d465852620924f85603c8,2022-09-08_13h27.45.602,CGTgamblingSpanTasks,2022.2.1,Win32,59.73715651,,,,,,,,,,,,,,,,,,,,,,,,,,,,,,,,,,,,,,,,,,,,,,,,,,,,,,,,,,,,,,,,,,,,,,,,,,,,,,,,,,"[2,4,9,1,5,7,8]",6,0,6,0,1,,,,,,,,,,,,,,,,,,,,,,,,,,,,,,,,,,,,,,,,,,,,,,,,
,,614d465852620924f85603c8,2022-09-08_13h27.45.602,CGTgamblingSpanTasks,2022.2.1,Win32,59.73715651,,,,,,,,,,,,,,,,,,,,,,,,,,,,,,,,,,,,,,,,,,,,,,,,,,,,,,,,,,,,,,,0,,,,,,,,,,,,,,,,,,,,,,,,,2419578,-0.097156398,-0.390995261,1,0,0,cont_button,0,4,4,4,1,5,,,,,,,,,,,,,,,,,,,,,,,,,,,,,,,,,,,
,,614d465852620924f85603c8,2022-09-08_13h27.45.602,CGTgamblingSpanTasks,2022.2.1,Win32,59.73715651,,,,,,,,,,,,,,,,,,,,,,,,,,,,,,,,,,,,,,,,,,,,,,,,,,,,,,,,,,,,,,,,,,,,,,,,,,,,,,,,,,"[4,6,2,5,8,9,3]",0,0,0,0,1,,,,,,,,,,,,,,,,,,,,,,,,,,,,,,,,,,,,,,,,,,,,,,,,
,,614d465852620924f85603c8,2022-09-08_13h27.45.602,CGTgamblingSpanTasks,2022.2.1,Win32,59.73715651,,,,,,,,,,,,,,,,,,,,,,,,,,,,,,,,,,,,,,,,,,,,,,,,,,,,,,,,,,,,,,,,,,,,,,,,,,,,,,,,,,"[4,6,2,5,8,9,3]",1,0,1,0,1,,,,,,,,,,,,,,,,,,,,,,,,,,,,,,,,,,,,,,,,,,,,,,,,
,,614d465852620924f85603c8,2022-09-08_13h27.45.602,CGTgamblingSpanTasks,2022.2.1,Win32,59.73715651,,,,,,,,,,,,,,,,,,,,,,,,,,,,,,,,,,,,,,,,,,,,,,,,,,,,,,,,,,,,,,,,,,,,,,,,,,,,,,,,,,"[4,6,2,5,8,9,3]",2,0,2,0,1,,,,,,,,,,,,,,,,,,,,,,,,,,,,,,,,,,,,,,,,,,,,,,,,
,,614d465852620924f85603c8,2022-09-08_13h27.45.602,CGTgamblingSpanTasks,2022.2.1,Win32,59.73715651,,,,,,,,,,,,,,,,,,,,,,,,,,,,,,,,,,,,,,,,,,,,,,,,,,,,,,,,,,,,,,,,,,,,,,,,,,,,,,,,,,"[4,6,2,5,8,9,3]",3,0,3,0,1,,,,,,,,,,,,,,,,,,,,,,,,,,,,,,,,,,,,,,,,,,,,,,,,
,,614d465852620924f85603c8,2022-09-08_13h27.45.602,CGTgamblingSpanTasks,2022.2.1,Win32,59.73715651,,,,,,,,,,,,,,,,,,,,,,,,,,,,,,,,,,,,,,,,,,,,,,,,,,,,,,,,,,,,,,,,,,,,,,,,,,,,,,,,,,"[4,6,2,5,8,9,3]",4,0,4,0,1,,,,,,,,,,,,,,,,,,,,,,,,,,,,,,,,,,,,,,,,,,,,,,,,
,,614d465852620924f85603c8,2022-09-08_13h27.45.602,CGTgamblingSpanTasks,2022.2.1,Win32,59.73715651,,,,,,,,,,,,,,,,,,,,,,,,,,,,,,,,,,,,,,,,,,,,,,,,,,,,,,,,,,,,,,,,,,,,,,,,,,,,,,,,,,"[4,6,2,5,8,9,3]",5,0,5,0,1,,,,,,,,,,,,,,,,,,,,,,,,,,,,,,,,,,,,,,,,,,,,,,,,
,,614d465852620924f85603c8,2022-09-08_13h27.45.602,CGTgamblingSpanTasks,2022.2.1,Win32,59.73715651,,,,,,,,,,,,,,,,,,,,,,,,,,,,,,,,,,,,,,,,,,,,,,,,,,,,,,,,,,,,,,,,,,,,,,,,,,,,,,,,,,"[4,6,2,5,8,9,3]",6,0,6,0,1,,,,,,,,,,,,,,,,,,,,,,,,,,,,,,,,,,,,,,,,,,,,,,,,
,,614d465852620924f85603c8,2022-09-08_13h27.45.602,CGTgamblingSpanTasks,2022.2.1,Win32,59.73715651,,,,,,,,,,,,,,,,,,,,,,,,,,,,,,,,,,,,,,,,,,,,,,,,,,,,,,,,,,,,,,,0,,,,,,,,,,,,,,,,,,,,,,,,,24658293,0.018957346,-0.40521327,1,0,0,cont_button,0,5,5,5,1,6,,,,,,,,,,,,,,,,,,,,,,,,,,,,,,,,,,,
,,614d465852620924f85603c8,2022-09-08_13h27.45.602,CGTgamblingSpanTasks,2022.2.1,Win32,59.73715651,,,,,,,,,,,,,,,,,,,,,,,,,,,,,,,,,,,,,,,,,,,,,,,,,,,,,,,,,,,,,,,,,,,,,,,,,,,,,,,,,,"[2,4,9,1,7,8]",0,0,0,0,1,,,,,,,,,,,,,,,,,,,,,,,,,,,,,,,,,,,,,,,,,,,,,,,,
,,614d465852620924f85603c8,2022-09-08_13h27.45.602,CGTgamblingSpanTasks,2022.2.1,Win32,59.73715651,,,,,,,,,,,,,,,,,,,,,,,,,,,,,,,,,,,,,,,,,,,,,,,,,,,,,,,,,,,,,,,,,,,,,,,,,,,,,,,,,,"[2,4,9,1,7,8]",1,0,1,0,1,,,,,,,,,,,,,,,,,,,,,,,,,,,,,,,,,,,,,,,,,,,,,,,,
,,614d465852620924f85603c8,2022-09-08_13h27.45.602,CGTgamblingSpanTasks,2022.2.1,Win32,59.73715651,,,,,,,,,,,,,,,,,,,,,,,,,,,,,,,,,,,,,,,,,,,,,,,,,,,,,,,,,,,,,,,,,,,,,,,,,,,,,,,,,,"[2,4,9,1,7,8]",2,0,2,0,1,,,,,,,,,,,,,,,,,,,,,,,,,,,,,,,,,,,,,,,,,,,,,,,,
,,614d465852620924f85603c8,2022-09-08_13h27.45.602,CGTgamblingSpanTasks,2022.2.1,Win32,59.73715651,,,,,,,,,,,,,,,,,,,,,,,,,,,,,,,,,,,,,,,,,,,,,,,,,,,,,,,,,,,,,,,,,,,,,,,,,,,,,,,,,,"[2,4,9,1,7,8]",3,0,3,0,1,,,,,,,,,,,,,,,,,,,,,,,,,,,,,,,,,,,,,,,,,,,,,,,,
,,614d465852620924f85603c8,2022-09-08_13h27.45.602,CGTgamblingSpanTasks,2022.2.1,Win32,59.73715651,,,,,,,,,,,,,,,,,,,,,,,,,,,,,,,,,,,,,,,,,,,,,,,,,,,,,,,,,,,,,,,,,,,,,,,,,,,,,,,,,,"[2,4,9,1,7,8]",4,0,4,0,1,,,,,,,,,,,,,,,,,,,,,,,,,,,,,,,,,,,,,,,,,,,,,,,,
,,614d465852620924f85603c8,2022-09-08_13h27.45.602,CGTgamblingSpanTasks,2022.2.1,Win32,59.73715651,,,,,,,,,,,,,,,,,,,,,,,,,,,,,,,,,,,,,,,,,,,,,,,,,,,,,,,,,,,,,,,,,,,,,,,,,,,,,,,,,,"[2,4,9,1,7,8]",5,0,5,0,1,,,,,,,,,,,,,,,,,,,,,,,,,,,,,,,,,,,,,,,,,,,,,,,,
,,614d465852620924f85603c8,2022-09-08_13h27.45.602,CGTgamblingSpanTasks,2022.2.1,Win32,59.73715651,,,,,,,,,,,,,,,,,,,,,,,,,,,,,,,,,,,,,,,,,,,,,,,,,,,,,,,,,,,,,,,1,,,,,,,,,,,,,,,,,,,,,,,,,249178,0.016587678,-0.407582938,1,0,0,cont_button,0,6,6,6,1,7,,,,,,,,,,,,,,,,,,,,,,,,,,,,,,,,,,,
,,614d465852620924f85603c8,2022-09-08_13h27.45.602,CGTgamblingSpanTasks,2022.2.1,Win32,59.73715651,,,,,,,,,,,,,,,,,,,,,,,,,,,,,,,,,,,,,,,,,,,,,,,,,,,,,,,,,,,,,,,,,,,,,,,,,,,,,,,,,,"[9,1,6,8,7,4,2]",0,0,0,0,1,,,,,,,,,,,,,,,,,,,,,,,,,,,,,,,,,,,,,,,,,,,,,,,,
,,614d465852620924f85603c8,2022-09-08_13h27.45.602,CGTgamblingSpanTasks,2022.2.1,Win32,59.73715651,,,,,,,,,,,,,,,,,,,,,,,,,,,,,,,,,,,,,,,,,,,,,,,,,,,,,,,,,,,,,,,,,,,,,,,,,,,,,,,,,,"[9,1,6,8,7,4,2]",1,0,1,0,1,,,,,,,,,,,,,,,,,,,,,,,,,,,,,,,,,,,,,,,,,,,,,,,,
,,614d465852620924f85603c8,2022-09-08_13h27.45.602,CGTgamblingSpanTasks,2022.2.1,Win32,59.73715651,,,,,,,,,,,,,,,,,,,,,,,,,,,,,,,,,,,,,,,,,,,,,,,,,,,,,,,,,,,,,,,,,,,,,,,,,,,,,,,,,,"[9,1,6,8,7,4,2]",2,0,2,0,1,,,,,,,,,,,,,,,,,,,,,,,,,,,,,,,,,,,,,,,,,,,,,,,,
,,614d465852620924f85603c8,2022-09-08_13h27.45.602,CGTgamblingSpanTasks,2022.2.1,Win32,59.73715651,,,,,,,,,,,,,,,,,,,,,,,,,,,,,,,,,,,,,,,,,,,,,,,,,,,,,,,,,,,,,,,,,,,,,,,,,,,,,,,,,,"[9,1,6,8,7,4,2]",3,0,3,0,1,,,,,,,,,,,,,,,,,,,,,,,,,,,,,,,,,,,,,,,,,,,,,,,,
,,614d465852620924f85603c8,2022-09-08_13h27.45.602,CGTgamblingSpanTasks,2022.2.1,Win32,59.73715651,,,,,,,,,,,,,,,,,,,,,,,,,,,,,,,,,,,,,,,,,,,,,,,,,,,,,,,,,,,,,,,,,,,,,,,,,,,,,,,,,,"[9,1,6,8,7,4,2]",4,0,4,0,1,,,,,,,,,,,,,,,,,,,,,,,,,,,,,,,,,,,,,,,,,,,,,,,,
,,614d465852620924f85603c8,2022-09-08_13h27.45.602,CGTgamblingSpanTasks,2022.2.1,Win32,59.73715651,,,,,,,,,,,,,,,,,,,,,,,,,,,,,,,,,,,,,,,,,,,,,,,,,,,,,,,,,,,,,,,,,,,,,,,,,,,,,,,,,,"[9,1,6,8,7,4,2]",5,0,5,0,1,,,,,,,,,,,,,,,,,,,,,,,,,,,,,,,,,,,,,,,,,,,,,,,,
,,614d465852620924f85603c8,2022-09-08_13h27.45.602,CGTgamblingSpanTasks,2022.2.1,Win32,59.73715651,,,,,,,,,,,,,,,,,,,,,,,,,,,,,,,,,,,,,,,,,,,,,,,,,,,,,,,,,,,,,,,,,,,,,,,,,,,,,,,,,,"[9,1,6,8,7,4,2]",6,0,6,0,1,,,,,,,,,,,,,,,,,,,,,,,,,,,,,,,,,,,,,,,,,,,,,,,,
,,614d465852620924f85603c8,2022-09-08_13h27.45.602,CGTgamblingSpanTasks,2022.2.1,Win32,59.73715651,,,,,,,,,,,,,,,,,,,,,,,,,,,,,,,,,,,,,,,,,,,,,,,,,,,,,,,,,,,,,,,0,,,,,,,,,,,,,,,,,,,,,,,,,9168724,0.011848341,-0.409952607,1,0,0,cont_button,0,7,7,7,1,8,,,,,,,,,,,,,,,,,,,,,,,,,,,,,,,,,,,
,,614d465852620924f85603c8,2022-09-08_13h27.45.602,CGTgamblingSpanTasks,2022.2.1,Win32,59.73715651,,,,,,,,,,,,,,,,,,,,,,,,,,,,,,,,,,,,,,,,,,,,,,,,,,,,,,,,,,,,,,,,,,,,,,,,,,,,,,,,,,"[5,1,8,7,4,9,2]",0,0,0,0,1,,,,,,,,,,,,,,,,,,,,,,,,,,,,,,,,,,,,,,,,,,,,,,,,
,,614d465852620924f85603c8,2022-09-08_13h27.45.602,CGTgamblingSpanTasks,2022.2.1,Win32,59.73715651,,,,,,,,,,,,,,,,,,,,,,,,,,,,,,,,,,,,,,,,,,,,,,,,,,,,,,,,,,,,,,,,,,,,,,,,,,,,,,,,,,"[5,1,8,7,4,9,2]",1,0,1,0,1,,,,,,,,,,,,,,,,,,,,,,,,,,,,,,,,,,,,,,,,,,,,,,,,
,,614d465852620924f85603c8,2022-09-08_13h27.45.602,CGTgamblingSpanTasks,2022.2.1,Win32,59.73715651,,,,,,,,,,,,,,,,,,,,,,,,,,,,,,,,,,,,,,,,,,,,,,,,,,,,,,,,,,,,,,,,,,,,,,,,,,,,,,,,,,"[5,1,8,7,4,9,2]",2,0,2,0,1,,,,,,,,,,,,,,,,,,,,,,,,,,,,,,,,,,,,,,,,,,,,,,,,
,,614d465852620924f85603c8,2022-09-08_13h27.45.602,CGTgamblingSpanTasks,2022.2.1,Win32,59.73715651,,,,,,,,,,,,,,,,,,,,,,,,,,,,,,,,,,,,,,,,,,,,,,,,,,,,,,,,,,,,,,,,,,,,,,,,,,,,,,,,,,"[5,1,8,7,4,9,2]",3,0,3,0,1,,,,,,,,,,,,,,,,,,,,,,,,,,,,,,,,,,,,,,,,,,,,,,,,
,,614d465852620924f85603c8,2022-09-08_13h27.45.602,CGTgamblingSpanTasks,2022.2.1,Win32,59.73715651,,,,,,,,,,,,,,,,,,,,,,,,,,,,,,,,,,,,,,,,,,,,,,,,,,,,,,,,,,,,,,,,,,,,,,,,,,,,,,,,,,"[5,1,8,7,4,9,2]",4,0,4,0,1,,,,,,,,,,,,,,,,,,,,,,,,,,,,,,,,,,,,,,,,,,,,,,,,
,,614d465852620924f85603c8,2022-09-08_13h27.45.602,CGTgamblingSpanTasks,2022.2.1,Win32,59.73715651,,,,,,,,,,,,,,,,,,,,,,,,,,,,,,,,,,,,,,,,,,,,,,,,,,,,,,,,,,,,,,,,,,,,,,,,,,,,,,,,,,"[5,1,8,7,4,9,2]",5,0,5,0,1,,,,,,,,,,,,,,,,,,,,,,,,,,,,,,,,,,,,,,,,,,,,,,,,
,,614d465852620924f85603c8,2022-09-08_13h27.45.602,CGTgamblingSpanTasks,2022.2.1,Win32,59.73715651,,,,,,,,,,,,,,,,,,,,,,,,,,,,,,,,,,,,,,,,,,,,,,,,,,,,,,,,,,,,,,,,,,,,,,,,,,,,,,,,,,"[5,1,8,7,4,9,2]",6,0,6,0,1,,,,,,,,,,,,,,,,,,,,,,,,,,,,,,,,,,,,,,,,,,,,,,,,
,,614d465852620924f85603c8,2022-09-08_13h27.45.602,CGTgamblingSpanTasks,2022.2.1,Win32,59.73715651,,,,,,,,,,,,,,,,,,,,,,,,,,,,,,,,,,,,,,,,,,,,,,,,,,,,,,,,,,,,,,,0,,,,,,,,,,,,,,,,,,,,,,,,,5187491,0.014218009,-0.395734597,1,0,0,cont_button,0,8,8,8,1,9,,,,,,,,,,,,,,,,,,,,,,,,,,,,,,,,,,,
,,614d465852620924f85603c8,2022-09-08_13h27.45.602,CGTgamblingSpanTasks,2022.2.1,Win32,59.73715651,,,,,,,,,,,,,,,,,,,,,,,,,,,,,,,,,,,,,,,,,,,,,,,,,,,,,,,,,,,,,,,,,,,,,,,,,,,,,,,,,,"[2,7,9,4,8,5]",0,0,0,0,1,,,,,,,,,,,,,,,,,,,,,,,,,,,,,,,,,,,,,,,,,,,,,,,,
,,614d465852620924f85603c8,2022-09-08_13h27.45.602,CGTgamblingSpanTasks,2022.2.1,Win32,59.73715651,,,,,,,,,,,,,,,,,,,,,,,,,,,,,,,,,,,,,,,,,,,,,,,,,,,,,,,,,,,,,,,,,,,,,,,,,,,,,,,,,,"[2,7,9,4,8,5]",1,0,1,0,1,,,,,,,,,,,,,,,,,,,,,,,,,,,,,,,,,,,,,,,,,,,,,,,,
,,614d465852620924f85603c8,2022-09-08_13h27.45.602,CGTgamblingSpanTasks,2022.2.1,Win32,59.73715651,,,,,,,,,,,,,,,,,,,,,,,,,,,,,,,,,,,,,,,,,,,,,,,,,,,,,,,,,,,,,,,,,,,,,,,,,,,,,,,,,,"[2,7,9,4,8,5]",2,0,2,0,1,,,,,,,,,,,,,,,,,,,,,,,,,,,,,,,,,,,,,,,,,,,,,,,,
,,614d465852620924f85603c8,2022-09-08_13h27.45.602,CGTgamblingSpanTasks,2022.2.1,Win32,59.73715651,,,,,,,,,,,,,,,,,,,,,,,,,,,,,,,,,,,,,,,,,,,,,,,,,,,,,,,,,,,,,,,,,,,,,,,,,,,,,,,,,,"[2,7,9,4,8,5]",3,0,3,0,1,,,,,,,,,,,,,,,,,,,,,,,,,,,,,,,,,,,,,,,,,,,,,,,,
,,614d465852620924f85603c8,2022-09-08_13h27.45.602,CGTgamblingSpanTasks,2022.2.1,Win32,59.73715651,,,,,,,,,,,,,,,,,,,,,,,,,,,,,,,,,,,,,,,,,,,,,,,,,,,,,,,,,,,,,,,,,,,,,,,,,,,,,,,,,,"[2,7,9,4,8,5]",4,0,4,0,1,,,,,,,,,,,,,,,,,,,,,,,,,,,,,,,,,,,,,,,,,,,,,,,,
,,614d465852620924f85603c8,2022-09-08_13h27.45.602,CGTgamblingSpanTasks,2022.2.1,Win32,59.73715651,,,,,,,,,,,,,,,,,,,,,,,,,,,,,,,,,,,,,,,,,,,,,,,,,,,,,,,,,,,,,,,,,,,,,,,,,,,,,,,,,,"[2,7,9,4,8,5]",5,0,5,0,1,,,,,,,,,,,,,,,,,,,,,,,,,,,,,,,,,,,,,,,,,,,,,,,,
,,614d465852620924f85603c8,2022-09-08_13h27.45.602,CGTgamblingSpanTasks,2022.2.1,Win32,59.73715651,,,,,,,,,,,,,,,,,,,,,,,,,,,,,,,,,,,,,,,,,,,,,,,,,,,,,,,,,,,,,,,1,,,,,,,,,,,,,,,,,,,,,,,,,279485,0.014218009,-0.395734597,1,0,0,cont_button,0,9,9,9,1,10,,,,,,,,,,,,,,,,,,,,,,,,,,,,,,,,,,,
,,614d465852620924f85603c8,2022-09-08_13h27.45.602,CGTgamblingSpanTasks,2022.2.1,Win32,59.73715651,,,,,,,,,,,,,,,,,,,,,,,,,,,,,,,,,,,,,,,,,,,,,,,,,,,,,,,,,,,,,,,,,,,,,,,,,,,,,,,,,,"[7,3,6,1,8,5,9]",0,0,0,0,1,,,,,,,,,,,,,,,,,,,,,,,,,,,,,,,,,,,,,,,,,,,,,,,,
,,614d465852620924f85603c8,2022-09-08_13h27.45.602,CGTgamblingSpanTasks,2022.2.1,Win32,59.73715651,,,,,,,,,,,,,,,,,,,,,,,,,,,,,,,,,,,,,,,,,,,,,,,,,,,,,,,,,,,,,,,,,,,,,,,,,,,,,,,,,,"[7,3,6,1,8,5,9]",1,0,1,0,1,,,,,,,,,,,,,,,,,,,,,,,,,,,,,,,,,,,,,,,,,,,,,,,,
,,614d465852620924f85603c8,2022-09-08_13h27.45.602,CGTgamblingSpanTasks,2022.2.1,Win32,59.73715651,,,,,,,,,,,,,,,,,,,,,,,,,,,,,,,,,,,,,,,,,,,,,,,,,,,,,,,,,,,,,,,,,,,,,,,,,,,,,,,,,,"[7,3,6,1,8,5,9]",2,0,2,0,1,,,,,,,,,,,,,,,,,,,,,,,,,,,,,,,,,,,,,,,,,,,,,,,,
,,614d465852620924f85603c8,2022-09-08_13h27.45.602,CGTgamblingSpanTasks,2022.2.1,Win32,59.73715651,,,,,,,,,,,,,,,,,,,,,,,,,,,,,,,,,,,,,,,,,,,,,,,,,,,,,,,,,,,,,,,,,,,,,,,,,,,,,,,,,,"[7,3,6,1,8,5,9]",3,0,3,0,1,,,,,,,,,,,,,,,,,,,,,,,,,,,,,,,,,,,,,,,,,,,,,,,,
,,614d465852620924f85603c8,2022-09-08_13h27.45.602,CGTgamblingSpanTasks,2022.2.1,Win32,59.73715651,,,,,,,,,,,,,,,,,,,,,,,,,,,,,,,,,,,,,,,,,,,,,,,,,,,,,,,,,,,,,,,,,,,,,,,,,,,,,,,,,,"[7,3,6,1,8,5,9]",4,0,4,0,1,,,,,,,,,,,,,,,,,,,,,,,,,,,,,,,,,,,,,,,,,,,,,,,,
,,614d465852620924f85603c8,2022-09-08_13h27.45.602,CGTgamblingSpanTasks,2022.2.1,Win32,59.73715651,,,,,,,,,,,,,,,,,,,,,,,,,,,,,,,,,,,,,,,,,,,,,,,,,,,,,,,,,,,,,,,,,,,,,,,,,,,,,,,,,,"[7,3,6,1,8,5,9]",5,0,5,0,1,,,,,,,,,,,,,,,,,,,,,,,,,,,,,,,,,,,,,,,,,,,,,,,,
,,614d465852620924f85603c8,2022-09-08_13h27.45.602,CGTgamblingSpanTasks,2022.2.1,Win32,59.73715651,,,,,,,,,,,,,,,,,,,,,,,,,,,,,,,,,,,,,,,,,,,,,,,,,,,,,,,,,,,,,,,,,,,,,,,,,,,,,,,,,,"[7,3,6,1,8,5,9]",6,0,6,0,1,,,,,,,,,,,,,,,,,,,,,,,,,,,,,,,,,,,,,,,,,,,,,,,,
,,614d465852620924f85603c8,2022-09-08_13h27.45.602,CGTgamblingSpanTasks,2022.2.1,Win32,59.73715651,,,,,,,,,,,,,,,,,,,,,,,,,,,,,,,,,,,,,,,,,,,,,,,,,,,,,,,,,,,,,,,1,,,,,,,,,,,,,,,,,,,,,,,,,7361859,0.009478673,-0.400473934,1,0,0,cont_button,0,10,10,10,1,11,,,,,,,,,,,,,,,,,,,,,,,,,,,,,,,,,,,
,,614d465852620924f85603c8,2022-09-08_13h27.45.602,CGTgamblingSpanTasks,2022.2.1,Win32,59.73715651,,,,,,,,,,,,,,,,,,,,,,,,,,,,,,,,,,,,,,,,,,,,,,,,,,,,,,,,,,,,,,,,,,,,,,,,,,,,,,,,,,"[1,5,6,4,8,9,3,7]",0,0,0,0,1,,,,,,,,,,,,,,,,,,,,,,,,,,,,,,,,,,,,,,,,,,,,,,,,
,,614d465852620924f85603c8,2022-09-08_13h27.45.602,CGTgamblingSpanTasks,2022.2.1,Win32,59.73715651,,,,,,,,,,,,,,,,,,,,,,,,,,,,,,,,,,,,,,,,,,,,,,,,,,,,,,,,,,,,,,,,,,,,,,,,,,,,,,,,,,"[1,5,6,4,8,9,3,7]",1,0,1,0,1,,,,,,,,,,,,,,,,,,,,,,,,,,,,,,,,,,,,,,,,,,,,,,,,
,,614d465852620924f85603c8,2022-09-08_13h27.45.602,CGTgamblingSpanTasks,2022.2.1,Win32,59.73715651,,,,,,,,,,,,,,,,,,,,,,,,,,,,,,,,,,,,,,,,,,,,,,,,,,,,,,,,,,,,,,,,,,,,,,,,,,,,,,,,,,"[1,5,6,4,8,9,3,7]",2,0,2,0,1,,,,,,,,,,,,,,,,,,,,,,,,,,,,,,,,,,,,,,,,,,,,,,,,
,,614d465852620924f85603c8,2022-09-08_13h27.45.602,CGTgamblingSpanTasks,2022.2.1,Win32,59.73715651,,,,,,,,,,,,,,,,,,,,,,,,,,,,,,,,,,,,,,,,,,,,,,,,,,,,,,,,,,,,,,,,,,,,,,,,,,,,,,,,,,"[1,5,6,4,8,9,3,7]",3,0,3,0,1,,,,,,,,,,,,,,,,,,,,,,,,,,,,,,,,,,,,,,,,,,,,,,,,
,,614d465852620924f85603c8,2022-09-08_13h27.45.602,CGTgamblingSpanTasks,2022.2.1,Win32,59.73715651,,,,,,,,,,,,,,,,,,,,,,,,,,,,,,,,,,,,,,,,,,,,,,,,,,,,,,,,,,,,,,,,,,,,,,,,,,,,,,,,,,"[1,5,6,4,8,9,3,7]",4,0,4,0,1,,,,,,,,,,,,,,,,,,,,,,,,,,,,,,,,,,,,,,,,,,,,,,,,
,,614d465852620924f85603c8,2022-09-08_13h27.45.602,CGTgamblingSpanTasks,2022.2.1,Win32,59.73715651,,,,,,,,,,,,,,,,,,,,,,,,,,,,,,,,,,,,,,,,,,,,,,,,,,,,,,,,,,,,,,,,,,,,,,,,,,,,,,,,,,"[1,5,6,4,8,9,3,7]",5,0,5,0,1,,,,,,,,,,,,,,,,,,,,,,,,,,,,,,,,,,,,,,,,,,,,,,,,
,,614d465852620924f85603c8,2022-09-08_13h27.45.602,CGTgamblingSpanTasks,2022.2.1,Win32,59.73715651,,,,,,,,,,,,,,,,,,,,,,,,,,,,,,,,,,,,,,,,,,,,,,,,,,,,,,,,,,,,,,,,,,,,,,,,,,,,,,,,,,"[1,5,6,4,8,9,3,7]",6,0,6,0,1,,,,,,,,,,,,,,,,,,,,,,,,,,,,,,,,,,,,,,,,,,,,,,,,
,,614d465852620924f85603c8,2022-09-08_13h27.45.602,CGTgamblingSpanTasks,2022.2.1,Win32,59.73715651,,,,,,,,,,,,,,,,,,,,,,,,,,,,,,,,,,,,,,,,,,,,,,,,,,,,,,,,,,,,,,,,,,,,,,,,,,,,,,,,,,"[1,5,6,4,8,9,3,7]",7,0,7,0,1,,,,,,,,,,,,,,,,,,,,,,,,,,,,,,,,,,,,,,,,,,,,,,,,
,,614d465852620924f85603c8,2022-09-08_13h27.45.602,CGTgamblingSpanTasks,2022.2.1,Win32,59.73715651,,,,,,,,,,,,,,,,,,,,,,,,,,,,,,,,,,,,,,,,,,,,,,,,,,,,,,,,,,,,,,,0,,,,,,,,,,,,,,,,,,,,,,,,,14628937,-0.075829384,-0.424170616,1,0,0,cont_button,0,11,11,11,1,12,,,,,,,,,,,,,,,,,,,,,,,,,,,,,,,,,,,
,,614d465852620924f85603c8,2022-09-08_13h27.45.602,CGTgamblingSpanTasks,2022.2.1,Win32,59.73715651,,,,,,,,,,,,,,,,,,,,,,,,,,,,,,,,,,,,,,,,,,,,,,,,,,,,,,,,,,,,,,,,,,,,,,,,,,,,,,,,,,"[3,7,4,2,6,9,5,8]",0,0,0,0,1,,,,,,,,,,,,,,,,,,,,,,,,,,,,,,,,,,,,,,,,,,,,,,,,
,,614d465852620924f85603c8,2022-09-08_13h27.45.602,CGTgamblingSpanTasks,2022.2.1,Win32,59.73715651,,,,,,,,,,,,,,,,,,,,,,,,,,,,,,,,,,,,,,,,,,,,,,,,,,,,,,,,,,,,,,,,,,,,,,,,,,,,,,,,,,"[3,7,4,2,6,9,5,8]",1,0,1,0,1,,,,,,,,,,,,,,,,,,,,,,,,,,,,,,,,,,,,,,,,,,,,,,,,
,,614d465852620924f85603c8,2022-09-08_13h27.45.602,CGTgamblingSpanTasks,2022.2.1,Win32,59.73715651,,,,,,,,,,,,,,,,,,,,,,,,,,,,,,,,,,,,,,,,,,,,,,,,,,,,,,,,,,,,,,,,,,,,,,,,,,,,,,,,,,"[3,7,4,2,6,9,5,8]",2,0,2,0,1,,,,,,,,,,,,,,,,,,,,,,,,,,,,,,,,,,,,,,,,,,,,,,,,
,,614d465852620924f85603c8,2022-09-08_13h27.45.602,CGTgamblingSpanTasks,2022.2.1,Win32,59.73715651,,,,,,,,,,,,,,,,,,,,,,,,,,,,,,,,,,,,,,,,,,,,,,,,,,,,,,,,,,,,,,,,,,,,,,,,,,,,,,,,,,"[3,7,4,2,6,9,5,8]",3,0,3,0,1,,,,,,,,,,,,,,,,,,,,,,,,,,,,,,,,,,,,,,,,,,,,,,,,
,,614d465852620924f85603c8,2022-09-08_13h27.45.602,CGTgamblingSpanTasks,2022.2.1,Win32,59.73715651,,,,,,,,,,,,,,,,,,,,,,,,,,,,,,,,,,,,,,,,,,,,,,,,,,,,,,,,,,,,,,,,,,,,,,,,,,,,,,,,,,"[3,7,4,2,6,9,5,8]",4,0,4,0,1,,,,,,,,,,,,,,,,,,,,,,,,,,,,,,,,,,,,,,,,,,,,,,,,
,,614d465852620924f85603c8,2022-09-08_13h27.45.602,CGTgamblingSpanTasks,2022.2.1,Win32,59.73715651,,,,,,,,,,,,,,,,,,,,,,,,,,,,,,,,,,,,,,,,,,,,,,,,,,,,,,,,,,,,,,,,,,,,,,,,,,,,,,,,,,"[3,7,4,2,6,9,5,8]",5,0,5,0,1,,,,,,,,,,,,,,,,,,,,,,,,,,,,,,,,,,,,,,,,,,,,,,,,
,,614d465852620924f85603c8,2022-09-08_13h27.45.602,CGTgamblingSpanTasks,2022.2.1,Win32,59.73715651,,,,,,,,,,,,,,,,,,,,,,,,,,,,,,,,,,,,,,,,,,,,,,,,,,,,,,,,,,,,,,,,,,,,,,,,,,,,,,,,,,"[3,7,4,2,6,9,5,8]",6,0,6,0,1,,,,,,,,,,,,,,,,,,,,,,,,,,,,,,,,,,,,,,,,,,,,,,,,
,,614d465852620924f85603c8,2022-09-08_13h27.45.602,CGTgamblingSpanTasks,2022.2.1,Win32,59.73715651,,,,,,,,,,,,,,,,,,,,,,,,,,,,,,,,,,,,,,,,,,,,,,,,,,,,,,,,,,,,,,,,,,,,,,,,,,,,,,,,,,"[3,7,4,2,6,9,5,8]",7,0,7,0,1,,,,,,,,,,,,,,,,,,,,,,,,,,,,,,,,,,,,,,,,,,,,,,,,
,,614d465852620924f85603c8,2022-09-08_13h27.45.602,CGTgamblingSpanTasks,2022.2.1,Win32,59.73715651,,,,,,,,,,,,,,,,,,,,,,,,,,,,,,,,,,,,,,,,,,,,,,,,,,,,,,,,,,,,,,,1,,,,,,,,,,,,,,,,,,,,,,,,,37426958,-0.061611374,-0.386255924,1,0,0,cont_button,0,12,12,12,1,13,,,,,,,,,,,,,,,,,,,,,,,,,,,,,,,,,,,
,,614d465852620924f85603c8,2022-09-08_13h27.45.602,CGTgamblingSpanTasks,2022.2.1,Win32,59.73715651,,,,,,,,,,,,,,,,,,,,,,,,,,,,,,,,,,,,,,,,,,,,,,,,,,,,,,,,,,,,,,,,,,,,,,,,,,,,,,,,,,"[5,8,7,2,3,9,1,6,4]",0,0,0,0,1,,,,,,,,,,,,,,,,,,,,,,,,,,,,,,,,,,,,,,,,,,,,,,,,
,,614d465852620924f85603c8,2022-09-08_13h27.45.602,CGTgamblingSpanTasks,2022.2.1,Win32,59.73715651,,,,,,,,,,,,,,,,,,,,,,,,,,,,,,,,,,,,,,,,,,,,,,,,,,,,,,,,,,,,,,,,,,,,,,,,,,,,,,,,,,"[5,8,7,2,3,9,1,6,4]",1,0,1,0,1,,,,,,,,,,,,,,,,,,,,,,,,,,,,,,,,,,,,,,,,,,,,,,,,
,,614d465852620924f85603c8,2022-09-08_13h27.45.602,CGTgamblingSpanTasks,2022.2.1,Win32,59.73715651,,,,,,,,,,,,,,,,,,,,,,,,,,,,,,,,,,,,,,,,,,,,,,,,,,,,,,,,,,,,,,,,,,,,,,,,,,,,,,,,,,"[5,8,7,2,3,9,1,6,4]",2,0,2,0,1,,,,,,,,,,,,,,,,,,,,,,,,,,,,,,,,,,,,,,,,,,,,,,,,
,,614d465852620924f85603c8,2022-09-08_13h27.45.602,CGTgamblingSpanTasks,2022.2.1,Win32,59.73715651,,,,,,,,,,,,,,,,,,,,,,,,,,,,,,,,,,,,,,,,,,,,,,,,,,,,,,,,,,,,,,,,,,,,,,,,,,,,,,,,,,"[5,8,7,2,3,9,1,6,4]",3,0,3,0,1,,,,,,,,,,,,,,,,,,,,,,,,,,,,,,,,,,,,,,,,,,,,,,,,
,,614d465852620924f85603c8,2022-09-08_13h27.45.602,CGTgamblingSpanTasks,2022.2.1,Win32,59.73715651,,,,,,,,,,,,,,,,,,,,,,,,,,,,,,,,,,,,,,,,,,,,,,,,,,,,,,,,,,,,,,,,,,,,,,,,,,,,,,,,,,"[5,8,7,2,3,9,1,6,4]",4,0,4,0,1,,,,,,,,,,,,,,,,,,,,,,,,,,,,,,,,,,,,,,,,,,,,,,,,
,,614d465852620924f85603c8,2022-09-08_13h27.45.602,CGTgamblingSpanTasks,2022.2.1,Win32,59.73715651,,,,,,,,,,,,,,,,,,,,,,,,,,,,,,,,,,,,,,,,,,,,,,,,,,,,,,,,,,,,,,,,,,,,,,,,,,,,,,,,,,"[5,8,7,2,3,9,1,6,4]",5,0,5,0,1,,,,,,,,,,,,,,,,,,,,,,,,,,,,,,,,,,,,,,,,,,,,,,,,
,,614d465852620924f85603c8,2022-09-08_13h27.45.602,CGTgamblingSpanTasks,2022.2.1,Win32,59.73715651,,,,,,,,,,,,,,,,,,,,,,,,,,,,,,,,,,,,,,,,,,,,,,,,,,,,,,,,,,,,,,,,,,,,,,,,,,,,,,,,,,"[5,8,7,2,3,9,1,6,4]",6,0,6,0,1,,,,,,,,,,,,,,,,,,,,,,,,,,,,,,,,,,,,,,,,,,,,,,,,
,,614d465852620924f85603c8,2022-09-08_13h27.45.602,CGTgamblingSpanTasks,2022.2.1,Win32,59.73715651,,,,,,,,,,,,,,,,,,,,,,,,,,,,,,,,,,,,,,,,,,,,,,,,,,,,,,,,,,,,,,,,,,,,,,,,,,,,,,,,,,"[5,8,7,2,3,9,1,6,4]",7,0,7,0,1,,,,,,,,,,,,,,,,,,,,,,,,,,,,,,,,,,,,,,,,,,,,,,,,
,,614d465852620924f85603c8,2022-09-08_13h27.45.602,CGTgamblingSpanTasks,2022.2.1,Win32,59.73715651,,,,,,,,,,,,,,,,,,,,,,,,,,,,,,,,,,,,,,,,,,,,,,,,,,,,,,,,,,,,,,,,,,,,,,,,,,,,,,,,,,"[5,8,7,2,3,9,1,6,4]",8,0,8,0,1,,,,,,,,,,,,,,,,,,,,,,,,,,,,,,,,,,,,,,,,,,,,,,,,
,,614d465852620924f85603c8,2022-09-08_13h27.45.602,CGTgamblingSpanTasks,2022.2.1,Win32,59.73715651,,,,,,,,,,,,,,,,,,,,,,,,,,,,,,,,,,,,,,,,,,,,,,,,,,,,,,,,,,,,,,,0,,,,,,,,,,,,,,,,,,,,,,,,,589237149,0.018957346,-0.409952607,1,0,0,cont_button,0,13,13,13,1,14,,,,,,,,,,,,,,,,,,,,,,,,,,,,,,,,,,,
,,614d465852620924f85603c8,2022-09-08_13h27.45.602,CGTgamblingSpanTasks,2022.2.1,Win32,59.73715651,,,,,,,,,,,,,,,,,,,,,,,,,,,,,,,,,,,,,,,,,,,,,,,,,,,,,,,,,,,,,,,,,,,,,,,,,,,,,,,,,,,,,,,,,,,,,,,,,,,,,return,6.223,,,,,,,,,,,,,,,,,,,,,,,,,,,,,,,,,
,,614d465852620924f85603c8,2022-09-08_13h27.45.602,CGTgamblingSpanTasks,2022.2.1,Win32,59.73715651,,,,,,,,,,,,,,,,,,,,,,,,,,,,,,,,,,,,,,,,,,,,,,,,,,,,,,,,,,,,,,,,,,,,,,,,,,,,,,,,,,,,,,,,,,,,,,,,,,,,,,,return,477.568,,,,,,,,,,,,,,,,,,,,,,,,,,,,,,,
,,614d465852620924f85603c8,2022-09-08_13h27.45.602,CGTgamblingSpanTasks,2022.2.1,Win32,59.73715651,,,,,,,,,,,,,,,,,,,,,,,,,,,,,,,,,,,,,,,,,,,,,,,,,,,,,,,,,,,,,,,1,,,,,,,,,,,,3,342,24,2,42,,,,,,,,,,,,,,,,,,,,,,,,,,42,-0.063981043,-0.402843602,1,0,0,cont_buttonPractice_2,0,0,0,0,1,,,,,,,,,,,,,,,,,,,
,,614d465852620924f85603c8,2022-09-08_13h27.45.602,CGTgamblingSpanTasks,2022.2.1,Win32,59.73715651,,,,,,,,,,,,,,,,,,,,,,,,,,,,,,,,,,,,,,,,,,,,,,,,,,,,,,,,,,,,,,,1,,,,,,,,,,,,3,937,73,2,37,,,,,,,,,,,,,,,,,,,,,,,,,,37,-0.101895735,-0.386255924,1,0,0,cont_buttonPractice_2,0,1,1,1,1,,,,,,,,,,,,,,,,,,,
,,614d465852620924f85603c8,2022-09-08_13h27.45.602,CGTgamblingSpanTasks,2022.2.1,Win32,59.73715651,,,,,,,,,,,,,,,,,,,,,,,,,,,,,,,,,,,,,,,,,,,,,,,,,,,,,,,,,,,,,,,,,,,,,,,,,,,,,,,,,,,,,,,,,,,,,,,,,,,,,,,,,,,,,,,,,,,,,return,2.598,,,,,,,,,,,,,,,,,
,,614d465852620924f85603c8,2022-09-08_13h27.45.602,CGTgamblingSpanTasks,2022.2.1,Win32,59.73715651,,,,,,,,,,,,,,,,,,,,,,,,,,,,,,,,,,,,,,,,,,,,,,,,,,,,,,,,,,,,,,,,,,,,,,,,,,,,,,,,,,"[2,1]",,,,,,,,,,,,,,,,,,,,,,,,,,,,,,,,,,,,,0,0,0,0,1,,,,,,,,,,,,
,,614d465852620924f85603c8,2022-09-08_13h27.45.602,CGTgamblingSpanTasks,2022.2.1,Win32,59.73715651,,,,,,,,,,,,,,,,,,,,,,,,,,,,,,,,,,,,,,,,,,,,,,,,,,,,,,,,,,,,,,,,,,,,,,,,,,,,,,,,,,"[2,1]",,,,,,,,,,,,,,,,,,,,,,,,,,,,,,,,,,,,,1,0,1,0,1,,,,,,,,,,,,
,,614d465852620924f85603c8,2022-09-08_13h27.45.602,CGTgamblingSpanTasks,2022.2.1,Win32,59.73715651,,,,,,,,,,,,,,,,,,,,,,,,,,,,,,,,,,,,,,,,,,,,,,,,,,,,,,,,,,,,,,,1,,,,,,,,,,,,,,,,,,,,,,,,,,,,,,,,,,,,,1,,,,,,,,,,,,,,,,,,,,,,,,12,-0.061611374,-0.383886256,1,0,0,cont_buttonBS,0,0,0,0,1
,,614d465852620924f85603c8,2022-09-08_13h27.45.602,CGTgamblingSpanTasks,2022.2.1,Win32,59.73715651,,,,,,,,,,,,,,,,,,,,,,,,,,,,,,,,,,,,,,,,,,,,,,,,,,,,,,,,,,,,,,,,,,,,,,,,,,,,,,,,,,"[8,6,5]",,,,,,,,,,,,,,,,,,,,,,,,,,,,,,,,,,,,,0,0,0,0,1,,,,,,,,,,,,
,,614d465852620924f85603c8,2022-09-08_13h27.45.602,CGTgamblingSpanTasks,2022.2.1,Win32,59.73715651,,,,,,,,,,,,,,,,,,,,,,,,,,,,,,,,,,,,,,,,,,,,,,,,,,,,,,,,,,,,,,,,,,,,,,,,,,,,,,,,,,"[8,6,5]",,,,,,,,,,,,,,,,,,,,,,,,,,,,,,,,,,,,,1,0,1,0,1,,,,,,,,,,,,
,,614d465852620924f85603c8,2022-09-08_13h27.45.602,CGTgamblingSpanTasks,2022.2.1,Win32,59.73715651,,,,,,,,,,,,,,,,,,,,,,,,,,,,,,,,,,,,,,,,,,,,,,,,,,,,,,,,,,,,,,,,,,,,,,,,,,,,,,,,,,"[8,6,5]",,,,,,,,,,,,,,,,,,,,,,,,,,,,,,,,,,,,,2,0,2,0,1,,,,,,,,,,,,
,,614d465852620924f85603c8,2022-09-08_13h27.45.602,CGTgamblingSpanTasks,2022.2.1,Win32,59.73715651,,,,,,,,,,,,,,,,,,,,,,,,,,,,,,,,,,,,,,,,,,,,,,,,,,,,,,,,,,,,,,,1,,,,,,,,,,,,,,,,,,,,,,,,,,,,,,,,,,,,,2,,,,,,,,,,,,,,,,,,,,,,,,568,-0.061611374,-0.381516588,1,0,0,cont_buttonBS,0,1,1,1,1
,,614d465852620924f85603c8,2022-09-08_13h27.45.602,CGTgamblingSpanTasks,2022.2.1,Win32,59.73715651,,,,,,,,,,,,,,,,,,,,,,,,,,,,,,,,,,,,,,,,,,,,,,,,,,,,,,,,,,,,,,,,,,,,,,,,,,,,,,,,,,"[7,4,6,9]",,,,,,,,,,,,,,,,,,,,,,,,,,,,,,,,,,,,,0,0,0,0,1,,,,,,,,,,,,
,,614d465852620924f85603c8,2022-09-08_13h27.45.602,CGTgamblingSpanTasks,2022.2.1,Win32,59.73715651,,,,,,,,,,,,,,,,,,,,,,,,,,,,,,,,,,,,,,,,,,,,,,,,,,,,,,,,,,,,,,,,,,,,,,,,,,,,,,,,,,"[7,4,6,9]",,,,,,,,,,,,,,,,,,,,,,,,,,,,,,,,,,,,,1,0,1,0,1,,,,,,,,,,,,
,,614d465852620924f85603c8,2022-09-08_13h27.45.602,CGTgamblingSpanTasks,2022.2.1,Win32,59.73715651,,,,,,,,,,,,,,,,,,,,,,,,,,,,,,,,,,,,,,,,,,,,,,,,,,,,,,,,,,,,,,,,,,,,,,,,,,,,,,,,,,"[7,4,6,9]",,,,,,,,,,,,,,,,,,,,,,,,,,,,,,,,,,,,,2,0,2,0,1,,,,,,,,,,,,
,,614d465852620924f85603c8,2022-09-08_13h27.45.602,CGTgamblingSpanTasks,2022.2.1,Win32,59.73715651,,,,,,,,,,,,,,,,,,,,,,,,,,,,,,,,,,,,,,,,,,,,,,,,,,,,,,,,,,,,,,,,,,,,,,,,,,,,,,,,,,"[7,4,6,9]",,,,,,,,,,,,,,,,,,,,,,,,,,,,,,,,,,,,,3,0,3,0,1,,,,,,,,,,,,
,,614d465852620924f85603c8,2022-09-08_13h27.45.602,CGTgamblingSpanTasks,2022.2.1,Win32,59.73715651,,,,,,,,,,,,,,,,,,,,,,,,,,,,,,,,,,,,,,,,,,,,,,,,,,,,,,,,,,,,,,,0,,,,,,,,,,,,,,,,,,,,,,,,,,,,,,,,,,,,,3,,,,,,,,,,,,,,,,,,,,,,,,647,-0.011848341,-0.400473934,1,0,0,cont_buttonBS,0,2,2,2,1
,,614d465852620924f85603c8,2022-09-08_13h27.45.602,CGTgamblingSpanTasks,2022.2.1,Win32,59.73715651,,,,,,,,,,,,,,,,,,,,,,,,,,,,,,,,,,,,,,,,,,,,,,,,,,,,,,,,,,,,,,,,,,,,,,,,,,,,,,,,,,"[8,3,6,7]",,,,,,,,,,,,,,,,,,,,,,,,,,,,,,,,,,,,,0,0,0,0,1,,,,,,,,,,,,
,,614d465852620924f85603c8,2022-09-08_13h27.45.602,CGTgamblingSpanTasks,2022.2.1,Win32,59.73715651,,,,,,,,,,,,,,,,,,,,,,,,,,,,,,,,,,,,,,,,,,,,,,,,,,,,,,,,,,,,,,,,,,,,,,,,,,,,,,,,,,"[8,3,6,7]",,,,,,,,,,,,,,,,,,,,,,,,,,,,,,,,,,,,,1,0,1,0,1,,,,,,,,,,,,
,,614d465852620924f85603c8,2022-09-08_13h27.45.602,CGTgamblingSpanTasks,2022.2.1,Win32,59.73715651,,,,,,,,,,,,,,,,,,,,,,,,,,,,,,,,,,,,,,,,,,,,,,,,,,,,,,,,,,,,,,,,,,,,,,,,,,,,,,,,,,"[8,3,6,7]",,,,,,,,,,,,,,,,,,,,,,,,,,,,,,,,,,,,,2,0,2,0,1,,,,,,,,,,,,
,,614d465852620924f85603c8,2022-09-08_13h27.45.602,CGTgamblingSpanTasks,2022.2.1,Win32,59.73715651,,,,,,,,,,,,,,,,,,,,,,,,,,,,,,,,,,,,,,,,,,,,,,,,,,,,,,,,,,,,,,,,,,,,,,,,,,,,,,,,,,"[8,3,6,7]",,,,,,,,,,,,,,,,,,,,,,,,,,,,,,,,,,,,,3,0,3,0,1,,,,,,,,,,,,
,,614d465852620924f85603c8,2022-09-08_13h27.45.602,CGTgamblingSpanTasks,2022.2.1,Win32,59.73715651,,,,,,,,,,,,,,,,,,,,,,,,,,,,,,,,,,,,,,,,,,,,,,,,,,,,,,,,,,,,,,,1,,,,,,,,,,,,,,,,,,,,,,,,,,,,,,,,,,,,,4,,,,,,,,,,,,,,,,,,,,,,,,7638,-0.028436019,-0.417061611,1,0,0,cont_buttonBS,0,3,3,3,1
,,614d465852620924f85603c8,2022-09-08_13h27.45.602,CGTgamblingSpanTasks,2022.2.1,Win32,59.73715651,,,,,,,,,,,,,,,,,,,,,,,,,,,,,,,,,,,,,,,,,,,,,,,,,,,,,,,,,,,,,,,,,,,,,,,,,,,,,,,,,,"[1,4,3,8,6]",,,,,,,,,,,,,,,,,,,,,,,,,,,,,,,,,,,,,0,0,0,0,1,,,,,,,,,,,,
,,614d465852620924f85603c8,2022-09-08_13h27.45.602,CGTgamblingSpanTasks,2022.2.1,Win32,59.73715651,,,,,,,,,,,,,,,,,,,,,,,,,,,,,,,,,,,,,,,,,,,,,,,,,,,,,,,,,,,,,,,,,,,,,,,,,,,,,,,,,,"[1,4,3,8,6]",,,,,,,,,,,,,,,,,,,,,,,,,,,,,,,,,,,,,1,0,1,0,1,,,,,,,,,,,,
,,614d465852620924f85603c8,2022-09-08_13h27.45.602,CGTgamblingSpanTasks,2022.2.1,Win32,59.73715651,,,,,,,,,,,,,,,,,,,,,,,,,,,,,,,,,,,,,,,,,,,,,,,,,,,,,,,,,,,,,,,,,,,,,,,,,,,,,,,,,,"[1,4,3,8,6]",,,,,,,,,,,,,,,,,,,,,,,,,,,,,,,,,,,,,2,0,2,0,1,,,,,,,,,,,,
,,614d465852620924f85603c8,2022-09-08_13h27.45.602,CGTgamblingSpanTasks,2022.2.1,Win32,59.73715651,,,,,,,,,,,,,,,,,,,,,,,,,,,,,,,,,,,,,,,,,,,,,,,,,,,,,,,,,,,,,,,,,,,,,,,,,,,,,,,,,,"[1,4,3,8,6]",,,,,,,,,,,,,,,,,,,,,,,,,,,,,,,,,,,,,3,0,3,0,1,,,,,,,,,,,,
,,614d465852620924f85603c8,2022-09-08_13h27.45.602,CGTgamblingSpanTasks,2022.2.1,Win32,59.73715651,,,,,,,,,,,,,,,,,,,,,,,,,,,,,,,,,,,,,,,,,,,,,,,,,,,,,,,,,,,,,,,,,,,,,,,,,,,,,,,,,,"[1,4,3,8,6]",,,,,,,,,,,,,,,,,,,,,,,,,,,,,,,,,,,,,4,0,4,0,1,,,,,,,,,,,,
,,614d465852620924f85603c8,2022-09-08_13h27.45.602,CGTgamblingSpanTasks,2022.2.1,Win32,59.73715651,,,,,,,,,,,,,,,,,,,,,,,,,,,,,,,,,,,,,,,,,,,,,,,,,,,,,,,,,,,,,,,1,,,,,,,,,,,,,,,,,,,,,,,,,,,,,,,,,,,,,5,,,,,,,,,,,,,,,,,,,,,,,,68341,0.08056872,-0.414691943,1,0,0,cont_buttonBS,0,4,4,4,1
,,614d465852620924f85603c8,2022-09-08_13h27.45.602,CGTgamblingSpanTasks,2022.2.1,Win32,59.73715651,,,,,,,,,,,,,,,,,,,,,,,,,,,,,,,,,,,,,,,,,,,,,,,,,,,,,,,,,,,,,,,,,,,,,,,,,,,,,,,,,,"[5,3,9,2,1,4]",,,,,,,,,,,,,,,,,,,,,,,,,,,,,,,,,,,,,0,0,0,0,1,,,,,,,,,,,,
,,614d465852620924f85603c8,2022-09-08_13h27.45.602,CGTgamblingSpanTasks,2022.2.1,Win32,59.73715651,,,,,,,,,,,,,,,,,,,,,,,,,,,,,,,,,,,,,,,,,,,,,,,,,,,,,,,,,,,,,,,,,,,,,,,,,,,,,,,,,,"[5,3,9,2,1,4]",,,,,,,,,,,,,,,,,,,,,,,,,,,,,,,,,,,,,1,0,1,0,1,,,,,,,,,,,,
,,614d465852620924f85603c8,2022-09-08_13h27.45.602,CGTgamblingSpanTasks,2022.2.1,Win32,59.73715651,,,,,,,,,,,,,,,,,,,,,,,,,,,,,,,,,,,,,,,,,,,,,,,,,,,,,,,,,,,,,,,,,,,,,,,,,,,,,,,,,,"[5,3,9,2,1,4]",,,,,,,,,,,,,,,,,,,,,,,,,,,,,,,,,,,,,2,0,2,0,1,,,,,,,,,,,,
,,614d465852620924f85603c8,2022-09-08_13h27.45.602,CGTgamblingSpanTasks,2022.2.1,Win32,59.73715651,,,,,,,,,,,,,,,,,,,,,,,,,,,,,,,,,,,,,,,,,,,,,,,,,,,,,,,,,,,,,,,,,,,,,,,,,,,,,,,,,,"[5,3,9,2,1,4]",,,,,,,,,,,,,,,,,,,,,,,,,,,,,,,,,,,,,3,0,3,0,1,,,,,,,,,,,,
,,614d465852620924f85603c8,2022-09-08_13h27.45.602,CGTgamblingSpanTasks,2022.2.1,Win32,59.73715651,,,,,,,,,,,,,,,,,,,,,,,,,,,,,,,,,,,,,,,,,,,,,,,,,,,,,,,,,,,,,,,,,,,,,,,,,,,,,,,,,,"[5,3,9,2,1,4]",,,,,,,,,,,,,,,,,,,,,,,,,,,,,,,,,,,,,4,0,4,0,1,,,,,,,,,,,,
,,614d465852620924f85603c8,2022-09-08_13h27.45.602,CGTgamblingSpanTasks,2022.2.1,Win32,59.73715651,,,,,,,,,,,,,,,,,,,,,,,,,,,,,,,,,,,,,,,,,,,,,,,,,,,,,,,,,,,,,,,,,,,,,,,,,,,,,,,,,,"[5,3,9,2,1,4]",,,,,,,,,,,,,,,,,,,,,,,,,,,,,,,,,,,,,5,0,5,0,1,,,,,,,,,,,,
,,614d465852620924f85603c8,2022-09-08_13h27.45.602,CGTgamblingSpanTasks,2022.2.1,Win32,59.73715651,,,,,,,,,,,,,,,,,,,,,,,,,,,,,,,,,,,,,,,,,,,,,,,,,,,,,,,,,,,,,,,0,,,,,,,,,,,,,,,,,,,,,,,,,,,,,,,,,,,,,6,,,,,,,,,,,,,,,,,,,,,,,,421935,-0.05450237,-0.40521327,1,0,0,cont_buttonBS,0,5,5,5,1
,,614d465852620924f85603c8,2022-09-08_13h27.45.602,CGTgamblingSpanTasks,2022.2.1,Win32,59.73715651,,,,,,,,,,,,,,,,,,,,,,,,,,,,,,,,,,,,,,,,,,,,,,,,,,,,,,,,,,,,,,,,,,,,,,,,,,,,,,,,,,"[7,9,8,6,2,5]",,,,,,,,,,,,,,,,,,,,,,,,,,,,,,,,,,,,,0,0,0,0,1,,,,,,,,,,,,
,,614d465852620924f85603c8,2022-09-08_13h27.45.602,CGTgamblingSpanTasks,2022.2.1,Win32,59.73715651,,,,,,,,,,,,,,,,,,,,,,,,,,,,,,,,,,,,,,,,,,,,,,,,,,,,,,,,,,,,,,,,,,,,,,,,,,,,,,,,,,"[7,9,8,6,2,5]",,,,,,,,,,,,,,,,,,,,,,,,,,,,,,,,,,,,,1,0,1,0,1,,,,,,,,,,,,
,,614d465852620924f85603c8,2022-09-08_13h27.45.602,CGTgamblingSpanTasks,2022.2.1,Win32,59.73715651,,,,,,,,,,,,,,,,,,,,,,,,,,,,,,,,,,,,,,,,,,,,,,,,,,,,,,,,,,,,,,,,,,,,,,,,,,,,,,,,,,"[7,9,8,6,2,5]",,,,,,,,,,,,,,,,,,,,,,,,,,,,,,,,,,,,,2,0,2,0,1,,,,,,,,,,,,
,,614d465852620924f85603c8,2022-09-08_13h27.45.602,CGTgamblingSpanTasks,2022.2.1,Win32,59.73715651,,,,,,,,,,,,,,,,,,,,,,,,,,,,,,,,,,,,,,,,,,,,,,,,,,,,,,,,,,,,,,,,,,,,,,,,,,,,,,,,,,"[7,9,8,6,2,5]",,,,,,,,,,,,,,,,,,,,,,,,,,,,,,,,,,,,,3,0,3,0,1,,,,,,,,,,,,
,,614d465852620924f85603c8,2022-09-08_13h27.45.602,CGTgamblingSpanTasks,2022.2.1,Win32,59.73715651,,,,,,,,,,,,,,,,,,,,,,,,,,,,,,,,,,,,,,,,,,,,,,,,,,,,,,,,,,,,,,,,,,,,,,,,,,,,,,,,,,"[7,9,8,6,2,5]",,,,,,,,,,,,,,,,,,,,,,,,,,,,,,,,,,,,,4,0,4,0,1,,,,,,,,,,,,
,,614d465852620924f85603c8,2022-09-08_13h27.45.602,CGTgamblingSpanTasks,2022.2.1,Win32,59.73715651,,,,,,,,,,,,,,,,,,,,,,,,,,,,,,,,,,,,,,,,,,,,,,,,,,,,,,,,,,,,,,,,,,,,,,,,,,,,,,,,,,"[7,9,8,6,2,5]",,,,,,,,,,,,,,,,,,,,,,,,,,,,,,,,,,,,,5,0,5,0,1,,,,,,,,,,,,
,,614d465852620924f85603c8,2022-09-08_13h27.45.602,CGTgamblingSpanTasks,2022.2.1,Win32,59.73715651,,,,,,,,,,,,,,,,,,,,,,,,,,,,,,,,,,,,,,,,,,,,,,,,,,,,,,,,,,,,,,,0,,,,,,,,,,,,,,,,,,,,,,,,,,,,,,,,,,,,,7,,,,,,,,,,,,,,,,,,,,,,,,526895,-0.045023697,-0.374407583,1,0,0,cont_buttonBS,0,6,6,6,1
,,614d465852620924f85603c8,2022-09-08_13h27.45.602,CGTgamblingSpanTasks,2022.2.1,Win32,59.73715651,,,,,,,,,,,,,,,,,,,,,,,,,,,,,,,,,,,,,,,,,,,,,,,,,,,,,,,,,,,,,,,,,,,,,,,,,,,,,,,,,,"[4,6,9,1,3]",,,,,,,,,,,,,,,,,,,,,,,,,,,,,,,,,,,,,0,0,0,0,1,,,,,,,,,,,,
,,614d465852620924f85603c8,2022-09-08_13h27.45.602,CGTgamblingSpanTasks,2022.2.1,Win32,59.73715651,,,,,,,,,,,,,,,,,,,,,,,,,,,,,,,,,,,,,,,,,,,,,,,,,,,,,,,,,,,,,,,,,,,,,,,,,,,,,,,,,,"[4,6,9,1,3]",,,,,,,,,,,,,,,,,,,,,,,,,,,,,,,,,,,,,1,0,1,0,1,,,,,,,,,,,,
,,614d465852620924f85603c8,2022-09-08_13h27.45.602,CGTgamblingSpanTasks,2022.2.1,Win32,59.73715651,,,,,,,,,,,,,,,,,,,,,,,,,,,,,,,,,,,,,,,,,,,,,,,,,,,,,,,,,,,,,,,,,,,,,,,,,,,,,,,,,,"[4,6,9,1,3]",,,,,,,,,,,,,,,,,,,,,,,,,,,,,,,,,,,,,2,0,2,0,1,,,,,,,,,,,,
,,614d465852620924f85603c8,2022-09-08_13h27.45.602,CGTgamblingSpanTasks,2022.2.1,Win32,59.73715651,,,,,,,,,,,,,,,,,,,,,,,,,,,,,,,,,,,,,,,,,,,,,,,,,,,,,,,,,,,,,,,,,,,,,,,,,,,,,,,,,,"[4,6,9,1,3]",,,,,,,,,,,,,,,,,,,,,,,,,,,,,,,,,,,,,3,0,3,0,1,,,,,,,,,,,,
,,614d465852620924f85603c8,2022-09-08_13h27.45.602,CGTgamblingSpanTasks,2022.2.1,Win32,59.73715651,,,,,,,,,,,,,,,,,,,,,,,,,,,,,,,,,,,,,,,,,,,,,,,,,,,,,,,,,,,,,,,,,,,,,,,,,,,,,,,,,,"[4,6,9,1,3]",,,,,,,,,,,,,,,,,,,,,,,,,,,,,,,,,,,,,4,0,4,0,1,,,,,,,,,,,,
,,614d465852620924f85603c8,2022-09-08_13h27.45.602,CGTgamblingSpanTasks,2022.2.1,Win32,59.73715651,,,,,,,,,,,,,,,,,,,,,,,,,,,,,,,,,,,,,,,,,,,,,,,,,,,,,,,,,,,,,,,1,,,,,,,,,,,,,,,,,,,,,,,,,,,,,,,,,,,,,8,,,,,,,,,,,,,,,,,,,,,,,,31964,-0.023696682,-0.388625592,1,0,0,cont_buttonBS,0,7,7,7,1
,,614d465852620924f85603c8,2022-09-08_13h27.45.602,CGTgamblingSpanTasks,2022.2.1,Win32,59.73715651,,,,,,,,,,,,,,,,,,,,,,,,,,,,,,,,,,,,,,,,,,,,,,,,,,,,,,,,,,,,,,,,,,,,,,,,,,,,,,,,,,"[7,2,5,8,1,9]",,,,,,,,,,,,,,,,,,,,,,,,,,,,,,,,,,,,,0,0,0,0,1,,,,,,,,,,,,
,,614d465852620924f85603c8,2022-09-08_13h27.45.602,CGTgamblingSpanTasks,2022.2.1,Win32,59.73715651,,,,,,,,,,,,,,,,,,,,,,,,,,,,,,,,,,,,,,,,,,,,,,,,,,,,,,,,,,,,,,,,,,,,,,,,,,,,,,,,,,"[7,2,5,8,1,9]",,,,,,,,,,,,,,,,,,,,,,,,,,,,,,,,,,,,,1,0,1,0,1,,,,,,,,,,,,
,,614d465852620924f85603c8,2022-09-08_13h27.45.602,CGTgamblingSpanTasks,2022.2.1,Win32,59.73715651,,,,,,,,,,,,,,,,,,,,,,,,,,,,,,,,,,,,,,,,,,,,,,,,,,,,,,,,,,,,,,,,,,,,,,,,,,,,,,,,,,"[7,2,5,8,1,9]",,,,,,,,,,,,,,,,,,,,,,,,,,,,,,,,,,,,,2,0,2,0,1,,,,,,,,,,,,
,,614d465852620924f85603c8,2022-09-08_13h27.45.602,CGTgamblingSpanTasks,2022.2.1,Win32,59.73715651,,,,,,,,,,,,,,,,,,,,,,,,,,,,,,,,,,,,,,,,,,,,,,,,,,,,,,,,,,,,,,,,,,,,,,,,,,,,,,,,,,"[7,2,5,8,1,9]",,,,,,,,,,,,,,,,,,,,,,,,,,,,,,,,,,,,,3,0,3,0,1,,,,,,,,,,,,
,,614d465852620924f85603c8,2022-09-08_13h27.45.602,CGTgamblingSpanTasks,2022.2.1,Win32,59.73715651,,,,,,,,,,,,,,,,,,,,,,,,,,,,,,,,,,,,,,,,,,,,,,,,,,,,,,,,,,,,,,,,,,,,,,,,,,,,,,,,,,"[7,2,5,8,1,9]",,,,,,,,,,,,,,,,,,,,,,,,,,,,,,,,,,,,,4,0,4,0,1,,,,,,,,,,,,
,,614d465852620924f85603c8,2022-09-08_13h27.45.602,CGTgamblingSpanTasks,2022.2.1,Win32,59.73715651,,,,,,,,,,,,,,,,,,,,,,,,,,,,,,,,,,,,,,,,,,,,,,,,,,,,,,,,,,,,,,,,,,,,,,,,,,,,,,,,,,"[7,2,5,8,1,9]",,,,,,,,,,,,,,,,,,,,,,,,,,,,,,,,,,,,,5,0,5,0,1,,,,,,,,,,,,
,,614d465852620924f85603c8,2022-09-08_13h27.45.602,CGTgamblingSpanTasks,2022.2.1,Win32,59.73715651,,,,,,,,,,,,,,,,,,,,,,,,,,,,,,,,,,,,,,,,,,,,,,,,,,,,,,,,,,,,,,,0,,,,,,,,,,,,,,,,,,,,,,,,,,,,,,,,,,,,,9,,,,,,,,,,,,,,,,,,,,,,,,4198574,-0.002369668,-0.40521327,1,0,0,cont_buttonBS,0,8,8,8,1
,,614d465852620924f85603c8,2022-09-08_13h27.45.602,CGTgamblingSpanTasks,2022.2.1,Win32,59.73715651,,,,,,,,,,,,,,,,,,,,,,,,,,,,,,,,,,,,,,,,,,,,,,,,,,,,,,,,,,,,,,,,,,,,,,,,,,,,,,,,,,"[7,9,8,5,2,1]",,,,,,,,,,,,,,,,,,,,,,,,,,,,,,,,,,,,,0,0,0,0,1,,,,,,,,,,,,
,,614d465852620924f85603c8,2022-09-08_13h27.45.602,CGTgamblingSpanTasks,2022.2.1,Win32,59.73715651,,,,,,,,,,,,,,,,,,,,,,,,,,,,,,,,,,,,,,,,,,,,,,,,,,,,,,,,,,,,,,,,,,,,,,,,,,,,,,,,,,"[7,9,8,5,2,1]",,,,,,,,,,,,,,,,,,,,,,,,,,,,,,,,,,,,,1,0,1,0,1,,,,,,,,,,,,
