initITIstatic,initITIdynamic,participant,date,expName,psychopyVersion,OS,frameRate,inst1.keys,inst1.rt,startPracResp.keys,startPracResp.rt,choice1.keys,choice1.rt,outcome,extraITI,trials.thisRepN,trials.thisTrialN,trials.thisN,trials.thisIndex,trials.ran,riskyGain,riskyLoss,alternative,isi,iti,loc,postPractResp.keys,postPractResp.rt,realloc,realChoice.keys,realChoice.rt,outcomes,choices,actualITI,init ITI,staticRDM.thisRepN,staticRDM.thisTrialN,staticRDM.thisN,staticRDM.thisIndex,staticRDM.ran,riskyoption1,riskyoption2,safeoption,ischecktrial,dynamicChoiceSetName,dynamicChoiceSetPath,bestRho,bestMu,trials_2.thisRepN,trials_2.thisTrialN,trials_2.thisN,trials_2.thisIndex,trials_2.ran,key_resp.keys,key_resp.rt,dynamicRDM.thisRepN,dynamicRDM.thisTrialN,dynamicRDM.thisN,dynamicRDM.thisIndex,dynamicRDM.ran,choiceP,easy0difficult1,stopBreak.keys,stopBreak.rt,movealong.keys,movealong.rt,startPractice.keys,startPractice.rt,textboxPractice.text,correct,mousePractice.x,mousePractice.y,mousePractice.leftButton,mousePractice.midButton,mousePractice.rightButton,mousePractice.clicked_name,trialFSPractice.thisRepN,trialFSPractice.thisTrialN,trialFSPractice.thisN,trialFSPractice.thisIndex,trialFSPractice.ran,digitSpanForward,digits,digitsReverse,digitSpanReverse,digitsReverseCorrAnswer,startFSreal.keys,startFSreal.rt,digitsForTrial,digitLoop.thisRepN,digitLoop.thisTrialN,digitLoop.thisN,digitLoop.thisIndex,digitLoop.ran,textbox.text,mouse_3.x,mouse_3.y,mouse_3.leftButton,mouse_3.midButton,mouse_3.rightButton,mouse_3.clicked_name,trialsFS.thisRepN,trialsFS.thisTrialN,trialsFS.thisN,trialsFS.thisIndex,trialsFS.ran,trialNumber,moveToBS.keys,moveToBS.rt,startBSprac.keys,startBSprac.rt,textboxPractice_2.text,mousePractice_2.x,mousePractice_2.y,mousePractice_2.leftButton,mousePractice_2.midButton,mousePractice_2.rightButton,mousePractice_2.clicked_name,trialsPracticeBS.thisRepN,trialsPracticeBS.thisTrialN,trialsPracticeBS.thisN,trialsPracticeBS.thisIndex,trialsPracticeBS.ran,startBSreal.keys,startBSreal.rt,digitLoopBS.thisRepN,digitLoopBS.thisTrialN,digitLoopBS.thisN,digitLoopBS.thisIndex,digitLoopBS.ran,textboxBS.text,mouseBS.x,mouseBS.y,mouseBS.leftButton,mouseBS.midButton,mouseBS.rightButton,mouseBS.clicked_name,trialsBS.thisRepN,trialsBS.thisTrialN,trialsBS.thisN,trialsBS.thisIndex,trialsBS.ran
"[1,1,1,1.5,1,1,1.5,1,1.5,1,1.5,1,1.5,1,1.5,1,1,1.5,1.5,1.5,1,1,1.5,1,1.5,1.5,1,1.5,1,1.5,1.5,1,1.5,1,1.5,1.5,1,1,1.5,1.5,1.5,1.5,1.5,1.5,1,1,1.5,1,1,1]","[1,1.5,1,1,1,1,1.5,1,1.5,1,1,1,1.5,1,1.5,1,1,1.5,1,1,1,1,1,1,1.5,1.5,1,1.5,1,1.5,1,1.5,1.5,1,1,1.5,1.5,1,1,1.5,1,1.5,1.5,1,1.5,1.5,1.5,1,1.5,1.5,1,1.5,1.5,1,1.5,1,1,1.5,1.5,1.5,1.5,1.5,1,1,1,1.5,1,1,1.5,1.5,1,1,1,1,1.5,1,1.5,1.5,1,1.5,1.5,1.5,1.5,1,1,1,1,1.5,1.5,1.5,1.5,1,1.5,1,1,1.5,1.5,1,1.5,1,1.5,1.5,1,1.5,1.5,1.5,1,1,1,1,1.5,1,1.5,1.5,1.5,1,1.5,1.5,1.5,1]",62feca471af7bb3aeaaaa588,2022-09-08_12h10.24.392,CGTgamblingSpanTasks,2022.2.1,MacIntel,59.99160118,,,,,,,,,,,,,,,,,,,,,,,,,,,,,,,,,,,,,,,,,,,,,,,,,,,,,,,,,,,,,,,,,,,,,,,,,,,,,,,,,,,,,,,,,,,,,,,,,,,,,,,,,,,,,,,,,,,,,,,,,,,,,,,,,,,,,,,
,,62feca471af7bb3aeaaaa588,2022-09-08_12h10.24.392,CGTgamblingSpanTasks,2022.2.1,MacIntel,59.99160118,return,0.1164,,,,,,,,,,,,,,,,,,,,,,,,,,,,,,,,,,,,,,,,,,,,,,,,,,,,,,,,,,,,,,,,,,,,,,,,,,,,,,,,,,,,,,,,,,,,,,,,,,,,,,,,,,,,,,,,,,,,,,,,,,,,,,,,,,,,,
,,62feca471af7bb3aeaaaa588,2022-09-08_12h10.24.392,CGTgamblingSpanTasks,2022.2.1,MacIntel,59.99160118,,,v,2.4501,,,,,,,,,,,,,,,,,,,,,,,,,,,,,,,,,,,,,,,,,,,,,,,,,,,,,,,,,,,,,,,,,,,,,,,,,,,,,,,,,,,,,,,,,,,,,,,,,,,,,,,,,,,,,,,,,,,,,,,,,,,,,,,,,,,
,,62feca471af7bb3aeaaaa588,2022-09-08_12h10.24.392,CGTgamblingSpanTasks,2022.2.1,MacIntel,59.99160118,,,,,n,0.0252,9.45,3.9748,0,0,0,0,1,18.23,0,9.45,2,1,1,,,,,,,,,,,,,,,,,,,,,,,,,,,,,,,,,,,,,,,,,,,,,,,,,,,,,,,,,,,,,,,,,,,,,,,,,,,,,,,,,,,,,,,,,,,,,,,,,,,,,,,,,,,,,,,,,,,,
,,62feca471af7bb3aeaaaa588,2022-09-08_12h10.24.392,CGTgamblingSpanTasks,2022.2.1,MacIntel,59.99160118,,,,,n,1.771,35.16,2.229,0,1,1,1,1,53.27,0,35.16,1,1.5,1,,,,,,,,,,,,,,,,,,,,,,,,,,,,,,,,,,,,,,,,,,,,,,,,,,,,,,,,,,,,,,,,,,,,,,,,,,,,,,,,,,,,,,,,,,,,,,,,,,,,,,,,,,,,,,,,,,,,
,,62feca471af7bb3aeaaaa588,2022-09-08_12h10.24.392,CGTgamblingSpanTasks,2022.2.1,MacIntel,59.99160118,,,,,n,0.7939,8.27,3.2061,0,2,2,2,1,8.27,0,1.15,1,1.5,2,,,,,,,,,,,,,,,,,,,,,,,,,,,,,,,,,,,,,,,,,,,,,,,,,,,,,,,,,,,,,,,,,,,,,,,,,,,,,,,,,,,,,,,,,,,,,,,,,,,,,,,,,,,,,,,,,,,,
,,62feca471af7bb3aeaaaa588,2022-09-08_12h10.24.392,CGTgamblingSpanTasks,2022.2.1,MacIntel,59.99160118,,,,,v,0.7511,45.88,3.2489,0,3,3,3,1,45.88,0,40.41,3,1,1,,,,,,,,,,,,,,,,,,,,,,,,,,,,,,,,,,,,,,,,,,,,,,,,,,,,,,,,,,,,,,,,,,,,,,,,,,,,,,,,,,,,,,,,,,,,,,,,,,,,,,,,,,,,,,,,,,,,
,,62feca471af7bb3aeaaaa588,2022-09-08_12h10.24.392,CGTgamblingSpanTasks,2022.2.1,MacIntel,59.99160118,,,,,n,1.1347,0,2.8653,0,4,4,4,1,21.56,0,11.96,1,1.5,2,,,,,,,,,,,,,,,,,,,,,,,,,,,,,,,,,,,,,,,,,,,,,,,,,,,,,,,,,,,,,,,,,,,,,,,,,,,,,,,,,,,,,,,,,,,,,,,,,,,,,,,,,,,,,,,,,,,,
,,62feca471af7bb3aeaaaa588,2022-09-08_12h10.24.392,CGTgamblingSpanTasks,2022.2.1,MacIntel,59.99160118,,,,,,,,,,,,,,,,,,,,v,23.1382,,,,,,,,,,,,,,,,,,,,,,,,,,,,,,,,,,,,,,,,,,,,,,,,,,,,,,,,,,,,,,,,,,,,,,,,,,,,,,,,,,,,,,,,,,,,,,,,,,,,,,,,,,,,,,,,,,
,,62feca471af7bb3aeaaaa588,2022-09-08_12h10.24.392,CGTgamblingSpanTasks,2022.2.1,MacIntel,59.99160118,,,,,,,,2.9901,,,,,,,,,,,,,,2,n,1.0099,0,1,3.9901,1,0,0,0,32,1,10.55,0,6.73,0,,,,,,,,,,,,,,,,,,,,,,,,,,,,,,,,,,,,,,,,,,,,,,,,,,,,,,,,,,,,,,,,,,,,,,,,,,,,,,,,,,,,,,,,,,,,,,,,,,
,,62feca471af7bb3aeaaaa588,2022-09-08_12h10.24.392,CGTgamblingSpanTasks,2022.2.1,MacIntel,59.99160118,,,,,,,,3.1745,,,,,,,,,,,,,,2,v,0.8255,5.82,0,4.1745,1,0,1,1,16,1,12.36,0,5.82,0,,,,,,,,,,,,,,,,,,,,,,,,,,,,,,,,,,,,,,,,,,,,,,,,,,,,,,,,,,,,,,,,,,,,,,,,,,,,,,,,,,,,,,,,,,,,,,,,,,
,,62feca471af7bb3aeaaaa588,2022-09-08_12h10.24.392,CGTgamblingSpanTasks,2022.2.1,MacIntel,59.99160118,,,,,,,,3.5086,,,,,,,,,,,,,,2,n,0.4914,10.35,1,4.5086,1,0,2,2,40,1,10.35,0,0,1,,,,,,,,,,,,,,,,,,,,,,,,,,,,,,,,,,,,,,,,,,,,,,,,,,,,,,,,,,,,,,,,,,,,,,,,,,,,,,,,,,,,,,,,,,,,,,,,,,
,,62feca471af7bb3aeaaaa588,2022-09-08_12h10.24.392,CGTgamblingSpanTasks,2022.2.1,MacIntel,59.99160118,,,,,,,,2.8637,,,,,,,,,,,,,,1,v,1.1363,0,1,4.3637,1.5,0,3,3,39,1,15.09,0,10.46,0,,,,,,,,,,,,,,,,,,,,,,,,,,,,,,,,,,,,,,,,,,,,,,,,,,,,,,,,,,,,,,,,,,,,,,,,,,,,,,,,,,,,,,,,,,,,,,,,,,
,,62feca471af7bb3aeaaaa588,2022-09-08_12h10.24.392,CGTgamblingSpanTasks,2022.2.1,MacIntel,59.99160118,,,,,,,,2.9478,,,,,,,,,,,,,,2,n,1.0522,0,1,3.9478,1,0,4,4,42,1,19.86,0,0,1,,,,,,,,,,,,,,,,,,,,,,,,,,,,,,,,,,,,,,,,,,,,,,,,,,,,,,,,,,,,,,,,,,,,,,,,,,,,,,,,,,,,,,,,,,,,,,,,,,
,,62feca471af7bb3aeaaaa588,2022-09-08_12h10.24.392,CGTgamblingSpanTasks,2022.2.1,MacIntel,59.99160118,,,,,,,,3.1955,,,,,,,,,,,,,,2,v,0.8045,10.25,0,4.1955,1,0,5,5,46,1,0,0,10.25,1,,,,,,,,,,,,,,,,,,,,,,,,,,,,,,,,,,,,,,,,,,,,,,,,,,,,,,,,,,,,,,,,,,,,,,,,,,,,,,,,,,,,,,,,,,,,,,,,,,
,,62feca471af7bb3aeaaaa588,2022-09-08_12h10.24.392,CGTgamblingSpanTasks,2022.2.1,MacIntel,59.99160118,,,,,,,,3.1935,,,,,,,,,,,,,,1,n,0.8065,5.27,0,4.6935,1.5,0,6,6,10,1,13.45,0,5.27,0,,,,,,,,,,,,,,,,,,,,,,,,,,,,,,,,,,,,,,,,,,,,,,,,,,,,,,,,,,,,,,,,,,,,,,,,,,,,,,,,,,,,,,,,,,,,,,,,,,
,,62feca471af7bb3aeaaaa588,2022-09-08_12h10.24.392,CGTgamblingSpanTasks,2022.2.1,MacIntel,59.99160118,,,,,,,,3.1975,,,,,,,,,,,,,,2,v,0.8025,9.5,0,4.1975,1,0,7,7,25,1,17,0,9.5,0,,,,,,,,,,,,,,,,,,,,,,,,,,,,,,,,,,,,,,,,,,,,,,,,,,,,,,,,,,,,,,,,,,,,,,,,,,,,,,,,,,,,,,,,,,,,,,,,,,
,,62feca471af7bb3aeaaaa588,2022-09-08_12h10.24.392,CGTgamblingSpanTasks,2022.2.1,MacIntel,59.99160118,,,,,,,,2.9957,,,,,,,,,,,,,,1,n,1.0043,6.29,0,4.4957,1.5,0,8,8,24,1,11.43,0,6.29,0,,,,,,,,,,,,,,,,,,,,,,,,,,,,,,,,,,,,,,,,,,,,,,,,,,,,,,,,,,,,,,,,,,,,,,,,,,,,,,,,,,,,,,,,,,,,,,,,,,
,,62feca471af7bb3aeaaaa588,2022-09-08_12h10.24.392,CGTgamblingSpanTasks,2022.2.1,MacIntel,59.99160118,,,,,,,,3.0306,,,,,,,,,,,,,,1,v,0.9694,16.6,1,4.0306,1,0,9,9,27,1,16.6,0,9.7,0,,,,,,,,,,,,,,,,,,,,,,,,,,,,,,,,,,,,,,,,,,,,,,,,,,,,,,,,,,,,,,,,,,,,,,,,,,,,,,,,,,,,,,,,,,,,,,,,,,
,,62feca471af7bb3aeaaaa588,2022-09-08_12h10.24.392,CGTgamblingSpanTasks,2022.2.1,MacIntel,59.99160118,,,,,,,,3.1809,,,,,,,,,,,,,,1,v,0.8191,28.21,1,4.6809,1.5,0,10,10,1,1,28.21,0,3.89,0,,,,,,,,,,,,,,,,,,,,,,,,,,,,,,,,,,,,,,,,,,,,,,,,,,,,,,,,,,,,,,,,,,,,,,,,,,,,,,,,,,,,,,,,,,,,,,,,,,
,,62feca471af7bb3aeaaaa588,2022-09-08_12h10.24.392,CGTgamblingSpanTasks,2022.2.1,MacIntel,59.99160118,,,,,,,,3.1315,,,,,,,,,,,,,,2,n,0.8685,10.95,1,4.1315,1,0,11,11,28,1,10.95,0,6.53,0,,,,,,,,,,,,,,,,,,,,,,,,,,,,,,,,,,,,,,,,,,,,,,,,,,,,,,,,,,,,,,,,,,,,,,,,,,,,,,,,,,,,,,,,,,,,,,,,,,
,,62feca471af7bb3aeaaaa588,2022-09-08_12h10.24.392,CGTgamblingSpanTasks,2022.2.1,MacIntel,59.99160118,,,,,,,,3.1455,,,,,,,,,,,,,,2,v,0.8545,9.03,0,4.6455,1.5,0,12,12,19,1,17.94,0,9.03,0,,,,,,,,,,,,,,,,,,,,,,,,,,,,,,,,,,,,,,,,,,,,,,,,,,,,,,,,,,,,,,,,,,,,,,,,,,,,,,,,,,,,,,,,,,,,,,,,,,
,,62feca471af7bb3aeaaaa588,2022-09-08_12h10.24.392,CGTgamblingSpanTasks,2022.2.1,MacIntel,59.99160118,,,,,,,,3.0635,,,,,,,,,,,,,,1,v,0.9365,0,1,4.0635,1,0,13,13,6,1,14.72,0,4.64,0,,,,,,,,,,,,,,,,,,,,,,,,,,,,,,,,,,,,,,,,,,,,,,,,,,,,,,,,,,,,,,,,,,,,,,,,,,,,,,,,,,,,,,,,,,,,,,,,,,
,,62feca471af7bb3aeaaaa588,2022-09-08_12h10.24.392,CGTgamblingSpanTasks,2022.2.1,MacIntel,59.99160118,,,,,,,,3.1814,,,,,,,,,,,,,,2,n,0.8186,16,1,4.6814,1.5,0,14,14,4,1,16,0,4,0,,,,,,,,,,,,,,,,,,,,,,,,,,,,,,,,,,,,,,,,,,,,,,,,,,,,,,,,,,,,,,,,,,,,,,,,,,,,,,,,,,,,,,,,,,,,,,,,,,
,,62feca471af7bb3aeaaaa588,2022-09-08_12h10.24.392,CGTgamblingSpanTasks,2022.2.1,MacIntel,59.99160118,,,,,,,,2.9802,,,,,,,,,,,,,,1,v,1.0198,0,1,3.9802,1,0,15,15,5,1,22.97,0,6.51,0,,,,,,,,,,,,,,,,,,,,,,,,,,,,,,,,,,,,,,,,,,,,,,,,,,,,,,,,,,,,,,,,,,,,,,,,,,,,,,,,,,,,,,,,,,,,,,,,,,
,,62feca471af7bb3aeaaaa588,2022-09-08_12h10.24.392,CGTgamblingSpanTasks,2022.2.1,MacIntel,59.99160118,,,,,,,,2.9639,,,,,,,,,,,,,,2,v,1.0361,10.37,0,3.9639,1,0,16,16,37,1,15.27,0,10.37,0,,,,,,,,,,,,,,,,,,,,,,,,,,,,,,,,,,,,,,,,,,,,,,,,,,,,,,,,,,,,,,,,,,,,,,,,,,,,,,,,,,,,,,,,,,,,,,,,,,
,,62feca471af7bb3aeaaaa588,2022-09-08_12h10.24.392,CGTgamblingSpanTasks,2022.2.1,MacIntel,59.99160118,,,,,,,,2.9671,,,,,,,,,,,,,,2,n,1.0329,7.73,1,4.4671,1.5,0,17,17,44,1,13.1,7.73,4.68,1,,,,,,,,,,,,,,,,,,,,,,,,,,,,,,,,,,,,,,,,,,,,,,,,,,,,,,,,,,,,,,,,,,,,,,,,,,,,,,,,,,,,,,,,,,,,,,,,,,
,,62feca471af7bb3aeaaaa588,2022-09-08_12h10.24.392,CGTgamblingSpanTasks,2022.2.1,MacIntel,59.99160118,,,,,,,,2.6649,,,,,,,,,,,,,,1,v,1.3351,0,1,4.1649,1.5,0,18,18,23,1,17.28,0,9.36,0,,,,,,,,,,,,,,,,,,,,,,,,,,,,,,,,,,,,,,,,,,,,,,,,,,,,,,,,,,,,,,,,,,,,,,,,,,,,,,,,,,,,,,,,,,,,,,,,,,
,,62feca471af7bb3aeaaaa588,2022-09-08_12h10.24.392,CGTgamblingSpanTasks,2022.2.1,MacIntel,59.99160118,,,,,,,,2.8981,,,,,,,,,,,,,,1,v,1.1019,0,1,4.3981,1.5,0,19,19,7,1,21.32,0,7.34,0,,,,,,,,,,,,,,,,,,,,,,,,,,,,,,,,,,,,,,,,,,,,,,,,,,,,,,,,,,,,,,,,,,,,,,,,,,,,,,,,,,,,,,,,,,,,,,,,,,
,,62feca471af7bb3aeaaaa588,2022-09-08_12h10.24.392,CGTgamblingSpanTasks,2022.2.1,MacIntel,59.99160118,,,,,,,,3.0973,,,,,,,,,,,,,,2,n,0.9027,18.33,1,4.0973,1,0,20,20,17,1,18.33,0,8.84,0,,,,,,,,,,,,,,,,,,,,,,,,,,,,,,,,,,,,,,,,,,,,,,,,,,,,,,,,,,,,,,,,,,,,,,,,,,,,,,,,,,,,,,,,,,,,,,,,,,
,,62feca471af7bb3aeaaaa588,2022-09-08_12h10.24.392,CGTgamblingSpanTasks,2022.2.1,MacIntel,59.99160118,,,,,,,,3.1799,,,,,,,,,,,,,,1,v,0.8201,0,1,4.1799,1,0,21,21,3,1,25.2,0,5.4,0,,,,,,,,,,,,,,,,,,,,,,,,,,,,,,,,,,,,,,,,,,,,,,,,,,,,,,,,,,,,,,,,,,,,,,,,,,,,,,,,,,,,,,,,,,,,,,,,,,
,,62feca471af7bb3aeaaaa588,2022-09-08_12h10.24.392,CGTgamblingSpanTasks,2022.2.1,MacIntel,59.99160118,,,,,,,,3.0968,,,,,,,,,,,,,,2,n,0.9032,12.08,1,4.5968,1.5,0,22,22,18,1,12.08,0,5.96,0,,,,,,,,,,,,,,,,,,,,,,,,,,,,,,,,,,,,,,,,,,,,,,,,,,,,,,,,,,,,,,,,,,,,,,,,,,,,,,,,,,,,,,,,,,,,,,,,,,
,,62feca471af7bb3aeaaaa588,2022-09-08_12h10.24.392,CGTgamblingSpanTasks,2022.2.1,MacIntel,59.99160118,,,,,,,,3.0652,,,,,,,,,,,,,,1,n,0.9348,9.2,0,4.0652,1,0,23,23,21,1,17.59,0,9.2,0,,,,,,,,,,,,,,,,,,,,,,,,,,,,,,,,,,,,,,,,,,,,,,,,,,,,,,,,,,,,,,,,,,,,,,,,,,,,,,,,,,,,,,,,,,,,,,,,,,
,,62feca471af7bb3aeaaaa588,2022-09-08_12h10.24.392,CGTgamblingSpanTasks,2022.2.1,MacIntel,59.99160118,,,,,,,,3.1816,,,,,,,,,,,,,,2,n,0.8184,0,1,4.6816,1.5,0,24,24,20,1,11.84,0,6.08,0,,,,,,,,,,,,,,,,,,,,,,,,,,,,,,,,,,,,,,,,,,,,,,,,,,,,,,,,,,,,,,,,,,,,,,,,,,,,,,,,,,,,,,,,,,,,,,,,,,
,,62feca471af7bb3aeaaaa588,2022-09-08_12h10.24.392,CGTgamblingSpanTasks,2022.2.1,MacIntel,59.99160118,,,,,,,,2.8472,,,,,,,,,,,,,,2,v,1.1528,10.68,0,4.3472,1.5,0,25,25,48,1,10.68,0,10.68,1,,,,,,,,,,,,,,,,,,,,,,,,,,,,,,,,,,,,,,,,,,,,,,,,,,,,,,,,,,,,,,,,,,,,,,,,,,,,,,,,,,,,,,,,,,,,,,,,,,
,,62feca471af7bb3aeaaaa588,2022-09-08_12h10.24.392,CGTgamblingSpanTasks,2022.2.1,MacIntel,59.99160118,,,,,,,,3.0316,,,,,,,,,,,,,,1,v,0.9684,0,1,4.0316,1,0,26,26,13,1,19.28,0,8.36,0,,,,,,,,,,,,,,,,,,,,,,,,,,,,,,,,,,,,,,,,,,,,,,,,,,,,,,,,,,,,,,,,,,,,,,,,,,,,,,,,,,,,,,,,,,,,,,,,,,
,,62feca471af7bb3aeaaaa588,2022-09-08_12h10.24.392,CGTgamblingSpanTasks,2022.2.1,MacIntel,59.99160118,,,,,,,,2.9779,,,,,,,,,,,,,,1,v,1.0221,17.73,1,4.4779,1.5,0,27,27,2,1,17.73,0,3.13,0,,,,,,,,,,,,,,,,,,,,,,,,,,,,,,,,,,,,,,,,,,,,,,,,,,,,,,,,,,,,,,,,,,,,,,,,,,,,,,,,,,,,,,,,,,,,,,,,,,
,,62feca471af7bb3aeaaaa588,2022-09-08_12h10.24.392,CGTgamblingSpanTasks,2022.2.1,MacIntel,59.99160118,,,,,,,,3.2481,,,,,,,,,,,,,,2,n,0.7519,0,1,4.2481,1,0,28,28,34,1,10.39,0,6.81,0,,,,,,,,,,,,,,,,,,,,,,,,,,,,,,,,,,,,,,,,,,,,,,,,,,,,,,,,,,,,,,,,,,,,,,,,,,,,,,,,,,,,,,,,,,,,,,,,,,
,,62feca471af7bb3aeaaaa588,2022-09-08_12h10.24.392,CGTgamblingSpanTasks,2022.2.1,MacIntel,59.99160118,,,,,,,,3.1473,,,,,,,,,,,,,,1,v,0.8527,0,1,4.6473,1.5,0,29,29,0,1,20.03,0,1.99,0,,,,,,,,,,,,,,,,,,,,,,,,,,,,,,,,,,,,,,,,,,,,,,,,,,,,,,,,,,,,,,,,,,,,,,,,,,,,,,,,,,,,,,,,,,,,,,,,,,
,,62feca471af7bb3aeaaaa588,2022-09-08_12h10.24.392,CGTgamblingSpanTasks,2022.2.1,MacIntel,59.99160118,,,,,,,,3.1629,,,,,,,,,,,,,,2,n,0.8371,0,1,4.6629,1.5,0,30,30,38,1,10.12,0,6.94,0,,,,,,,,,,,,,,,,,,,,,,,,,,,,,,,,,,,,,,,,,,,,,,,,,,,,,,,,,,,,,,,,,,,,,,,,,,,,,,,,,,,,,,,,,,,,,,,,,,
,,62feca471af7bb3aeaaaa588,2022-09-08_12h10.24.392,CGTgamblingSpanTasks,2022.2.1,MacIntel,59.99160118,,,,,,,,3.1806,,,,,,,,,,,,,,2,v,0.8194,10.02,0,4.1806,1,0,31,31,31,1,15.96,0,10.02,0,,,,,,,,,,,,,,,,,,,,,,,,,,,,,,,,,,,,,,,,,,,,,,,,,,,,,,,,,,,,,,,,,,,,,,,,,,,,,,,,,,,,,,,,,,,,,,,,,,
,,62feca471af7bb3aeaaaa588,2022-09-08_12h10.24.392,CGTgamblingSpanTasks,2022.2.1,MacIntel,59.99160118,,,,,,,,3.196,,,,,,,,,,,,,,2,n,0.804,0,1,4.696,1.5,0,32,32,22,1,11.62,0,6.19,0,,,,,,,,,,,,,,,,,,,,,,,,,,,,,,,,,,,,,,,,,,,,,,,,,,,,,,,,,,,,,,,,,,,,,,,,,,,,,,,,,,,,,,,,,,,,,,,,,,
,,62feca471af7bb3aeaaaa588,2022-09-08_12h10.24.392,CGTgamblingSpanTasks,2022.2.1,MacIntel,59.99160118,,,,,,,,0.0782,,,,,,,,,,,,,,2,n,3.9218,0,1,1.0782,1,0,33,33,8,1,13.94,0,5.03,0,,,,,,,,,,,,,,,,,,,,,,,,,,,,,,,,,,,,,,,,,,,,,,,,,,,,,,,,,,,,,,,,,,,,,,,,,,,,,,,,,,,,,,,,,,,,,,,,,,
,,62feca471af7bb3aeaaaa588,2022-09-08_12h10.24.392,CGTgamblingSpanTasks,2022.2.1,MacIntel,59.99160118,,,,,,,,2.8443,,,,,,,,,,,,,,1,n,1.1557,6.63,0,4.3443,1.5,0,34,34,30,1,10.73,0,6.63,0,,,,,,,,,,,,,,,,,,,,,,,,,,,,,,,,,,,,,,,,,,,,,,,,,,,,,,,,,,,,,,,,,,,,,,,,,,,,,,,,,,,,,,,,,,,,,,,,,,
,,62feca471af7bb3aeaaaa588,2022-09-08_12h10.24.392,CGTgamblingSpanTasks,2022.2.1,MacIntel,59.99160118,,,,,,,,3.2286,,,,,,,,,,,,,,2,v,0.7714,6.4,0,4.7286,1.5,0,35,35,26,1,11.2,0,6.4,0,,,,,,,,,,,,,,,,,,,,,,,,,,,,,,,,,,,,,,,,,,,,,,,,,,,,,,,,,,,,,,,,,,,,,,,,,,,,,,,,,,,,,,,,,,,,,,,,,,
,,62feca471af7bb3aeaaaa588,2022-09-08_12h10.24.392,CGTgamblingSpanTasks,2022.2.1,MacIntel,59.99160118,,,,,,,,3.3464,,,,,,,,,,,,,,1,n,0.6536,8.07,0,4.3464,1,0,36,36,11,1,19.86,0,8.07,0,,,,,,,,,,,,,,,,,,,,,,,,,,,,,,,,,,,,,,,,,,,,,,,,,,,,,,,,,,,,,,,,,,,,,,,,,,,,,,,,,,,,,,,,,,,,,,,,,,
,,62feca471af7bb3aeaaaa588,2022-09-08_12h10.24.392,CGTgamblingSpanTasks,2022.2.1,MacIntel,59.99160118,,,,,,,,3.413,,,,,,,,,,,,,,2,n,0.587,0,1,4.413,1,0,37,37,33,1,15.7,0,10.15,0,,,,,,,,,,,,,,,,,,,,,,,,,,,,,,,,,,,,,,,,,,,,,,,,,,,,,,,,,,,,,,,,,,,,,,,,,,,,,,,,,,,,,,,,,,,,,,,,,,
,,62feca471af7bb3aeaaaa588,2022-09-08_12h10.24.392,CGTgamblingSpanTasks,2022.2.1,MacIntel,59.99160118,,,,,,,,3.4991,,,,,,,,,,,,,,1,v,0.5009,0,1,4.9991,1.5,0,38,38,9,1,20.53,0,7.73,0,,,,,,,,,,,,,,,,,,,,,,,,,,,,,,,,,,,,,,,,,,,,,,,,,,,,,,,,,,,,,,,,,,,,,,,,,,,,,,,,,,,,,,,,,,,,,,,,,,
,,62feca471af7bb3aeaaaa588,2022-09-08_12h10.24.392,CGTgamblingSpanTasks,2022.2.1,MacIntel,59.99160118,,,,,,,,3.3568,,,,,,,,,,,,,,1,v,0.6432,0,1,4.8568,1.5,0,39,39,47,1,0,0,3.13,1,,,,,,,,,,,,,,,,,,,,,,,,,,,,,,,,,,,,,,,,,,,,,,,,,,,,,,,,,,,,,,,,,,,,,,,,,,,,,,,,,,,,,,,,,,,,,,,,,,
,,62feca471af7bb3aeaaaa588,2022-09-08_12h10.24.392,CGTgamblingSpanTasks,2022.2.1,MacIntel,59.99160118,,,,,,,,3.2577,,,,,,,,,,,,,,1,v,0.7423,12.68,1,4.7577,1.5,0,40,40,14,1,12.68,0,5.66,0,,,,,,,,,,,,,,,,,,,,,,,,,,,,,,,,,,,,,,,,,,,,,,,,,,,,,,,,,,,,,,,,,,,,,,,,,,,,,,,,,,,,,,,,,,,,,,,,,,
,,62feca471af7bb3aeaaaa588,2022-09-08_12h10.24.392,CGTgamblingSpanTasks,2022.2.1,MacIntel,59.99160118,,,,,,,,3.3328,,,,,,,,,,,,,,2,n,0.6672,10.24,1,4.8328,1.5,0,41,41,36,1,10.24,0,6.88,0,,,,,,,,,,,,,,,,,,,,,,,,,,,,,,,,,,,,,,,,,,,,,,,,,,,,,,,,,,,,,,,,,,,,,,,,,,,,,,,,,,,,,,,,,,,,,,,,,,
,,62feca471af7bb3aeaaaa588,2022-09-08_12h10.24.392,CGTgamblingSpanTasks,2022.2.1,MacIntel,59.99160118,,,,,,,,2.9788,,,,,,,,,,,,,,1,v,1.0212,0,1,4.4788,1.5,0,42,42,35,1,15.47,0,10.27,0,,,,,,,,,,,,,,,,,,,,,,,,,,,,,,,,,,,,,,,,,,,,,,,,,,,,,,,,,,,,,,,,,,,,,,,,,,,,,,,,,,,,,,,,,,,,,,,,,,
,,62feca471af7bb3aeaaaa588,2022-09-08_12h10.24.392,CGTgamblingSpanTasks,2022.2.1,MacIntel,59.99160118,,,,,,,,3.0487,,,,,,,,,,,,,,1,v,0.9513,6.99,1,4.5487,1.5,0,43,43,43,1,16.11,6.99,6.99,1,,,,,,,,,,,,,,,,,,,,,,,,,,,,,,,,,,,,,,,,,,,,,,,,,,,,,,,,,,,,,,,,,,,,,,,,,,,,,,,,,,,,,,,,,,,,,,,,,,
,,62feca471af7bb3aeaaaa588,2022-09-08_12h10.24.392,CGTgamblingSpanTasks,2022.2.1,MacIntel,59.99160118,,,,,,,,3.2113,,,,,,,,,,,,,,2,v,0.7887,7.55,0,4.2113,1,0,44,44,45,1,0,0,7.55,1,,,,,,,,,,,,,,,,,,,,,,,,,,,,,,,,,,,,,,,,,,,,,,,,,,,,,,,,,,,,,,,,,,,,,,,,,,,,,,,,,,,,,,,,,,,,,,,,,,
,,62feca471af7bb3aeaaaa588,2022-09-08_12h10.24.392,CGTgamblingSpanTasks,2022.2.1,MacIntel,59.99160118,,,,,,,,3.0626,,,,,,,,,,,,,,1,v,0.9374,0,1,4.0626,1,0,45,45,12,1,13.04,0,5.48,0,,,,,,,,,,,,,,,,,,,,,,,,,,,,,,,,,,,,,,,,,,,,,,,,,,,,,,,,,,,,,,,,,,,,,,,,,,,,,,,,,,,,,,,,,,,,,,,,,,
,,62feca471af7bb3aeaaaa588,2022-09-08_12h10.24.392,CGTgamblingSpanTasks,2022.2.1,MacIntel,59.99160118,,,,,,,,3.3147,,,,,,,,,,,,,,1,v,0.6853,0,1,4.8147,1.5,0,46,46,29,1,16.26,0,9.87,0,,,,,,,,,,,,,,,,,,,,,,,,,,,,,,,,,,,,,,,,,,,,,,,,,,,,,,,,,,,,,,,,,,,,,,,,,,,,,,,,,,,,,,,,,,,,,,,,,,
,,62feca471af7bb3aeaaaa588,2022-09-08_12h10.24.392,CGTgamblingSpanTasks,2022.2.1,MacIntel,59.99160118,,,,,,,,3.0973,,,,,,,,,,,,,,1,v,0.9027,18.77,1,4.0973,1,0,47,47,15,1,18.77,0,8.61,0,,,,,,,,,,,,,,,,,,,,,,,,,,,,,,,,,,,,,,,,,,,,,,,,,,,,,,,,,,,,,,,,,,,,,,,,,,,,,,,,,,,,,,,,,,,,,,,,,,
,,62feca471af7bb3aeaaaa588,2022-09-08_12h10.24.392,CGTgamblingSpanTasks,2022.2.1,MacIntel,59.99160118,,,,,,,,3.0557,,,,,,,,,,,,,,2,n,0.9443,14.26,1,4.0557,1,0,48,48,41,1,14.26,0,0,1,,,,,,,,,,,,,,,,,,,,,,,,,,,,,,,,,,,,,,,,,,,,,,,,,,,,,,,,,,,,,,,,,,,,,,,,,,,,,,,,,,,,,,,,,,,,,,,,,,
,,62feca471af7bb3aeaaaa588,2022-09-08_12h10.24.392,CGTgamblingSpanTasks,2022.2.1,MacIntel,59.99160118,,,,,,,,2.9663,,,,,,,,,,,,,,1,n,1.0337,9.92,0,3.9663,1,0,49,49,49,1,6.79,0,9.92,1,,,,,,,,,,,,,,,,,,,,,,,,,,,,,,,,,,,,,,,,,,,,,,,,,,,,,,,,,,,,,,,,,,,,,,,,,,,,,,,,,,,,,,,,,,,,,,,,,,
,,62feca471af7bb3aeaaaa588,2022-09-08_12h10.24.392,CGTgamblingSpanTasks,2022.2.1,MacIntel,59.99160118,,,,,,,,,,,,,,,,,,,,,,,,,,,,,,,,,,,,,,bespoke_choiceset_rhoInd130_muInd019.csv,bespoke_choicesets/bespoke_choiceset_rhoInd130_muInd019.csv,130,19,0,0,0,0,1,,,,,,,,,,,,,,,,,,,,,,,,,,,,,,,,,,,,,,,,,,,,,,,,,,,,,,,,,,,,,,,,,,,,,,,,,,,,,,,,,,,,,,,,,
,,62feca471af7bb3aeaaaa588,2022-09-08_12h10.24.392,CGTgamblingSpanTasks,2022.2.1,MacIntel,59.99160118,,,,,,,,,,,,,,,,,,,,,,,,,,,,,,,,,,,,,,,,,,,,,,,,,,,,,,,,,,,,,,,,,,,,,,,,,,,,,,,,,,,,,,,,,,,,,,,,,,,,,,,,,,,,,,,,,,,,,,,,,,,,,,,,,,,,,,,
,,62feca471af7bb3aeaaaa588,2022-09-08_12h10.24.392,CGTgamblingSpanTasks,2022.2.1,MacIntel,59.99160118,,,,,,,,,,,,,,,,,,,,,,,,,,,,,,,,,,,,,,,,,,,,,,,v,1.7071,,,,,,,,,,,,,,,,,,,,,,,,,,,,,,,,,,,,,,,,,,,,,,,,,,,,,,,,,,,,,,,,,,,,,,,,,,,,,,,,,,,,,,,
,,62feca471af7bb3aeaaaa588,2022-09-08_12h10.24.392,CGTgamblingSpanTasks,2022.2.1,MacIntel,59.99160118,,,,,,,,3.1935,,,,,,,,,,,,,,2,n,0.8065,28.9381277,1,4.1935,1,,,,,,28.9381277,0,2.663622024,,,,,,,,,,,,,0,0,0,103,1,0.519453367,1,,,,,,,,,,,,,,,,,,,,,,,,,,,,,,,,,,,,,,,,,,,,,,,,,,,,,,,,,,,,,,,,,,,,,,,,,,,,,,,,
,,62feca471af7bb3aeaaaa588,2022-09-08_12h10.24.392,CGTgamblingSpanTasks,2022.2.1,MacIntel,59.99160118,,,,,,,,3.1465,,,,,,,,,,,,,,1,v,0.8535,27.4965044,1,4.6465,1.5,,,,,,27.4965044,0,2.461467004,,,,,,,,,,,,,0,1,1,36,1,0.526550878,1,,,,,,,,,,,,,,,,,,,,,,,,,,,,,,,,,,,,,,,,,,,,,,,,,,,,,,,,,,,,,,,,,,,,,,,,,,,,,,,,
,,62feca471af7bb3aeaaaa588,2022-09-08_12h10.24.392,CGTgamblingSpanTasks,2022.2.1,MacIntel,59.99160118,,,,,,,,3.131,,,,,,,,,,,,,,2,n,0.869,0,1,4.131,1,,,,,,18.50662664,0,0.052546026,,,,,,,,,,,,,0,2,2,112,1,0.908444837,0,,,,,,,,,,,,,,,,,,,,,,,,,,,,,,,,,,,,,,,,,,,,,,,,,,,,,,,,,,,,,,,,,,,,,,,,,,,,,,,,
,,62feca471af7bb3aeaaaa588,2022-09-08_12h10.24.392,CGTgamblingSpanTasks,2022.2.1,MacIntel,59.99160118,,,,,,,,3.1301,,,,,,,,,,,,,,1,n,0.8699,11.61882862,0,4.1301,1,,,,,,4.022743614,0,11.61882862,,,,,,,,,,,,,0,3,3,38,1,0.011499376,0,,,,,,,,,,,,,,,,,,,,,,,,,,,,,,,,,,,,,,,,,,,,,,,,,,,,,,,,,,,,,,,,,,,,,,,,,,,,,,,,
,,62feca471af7bb3aeaaaa588,2022-09-08_12h10.24.392,CGTgamblingSpanTasks,2022.2.1,MacIntel,59.99160118,,,,,,,,2.9787,,,,,,,,,,,,,,1,v,1.0213,0,1,3.9787,1,,,,,,23.0613391,0,2.387726776,,,,,,,,,,,,,0,4,4,69,1,0.488727763,1,,,,,,,,,,,,,,,,,,,,,,,,,,,,,,,,,,,,,,,,,,,,,,,,,,,,,,,,,,,,,,,,,,,,,,,,,,,,,,,,
,,62feca471af7bb3aeaaaa588,2022-09-08_12h10.24.392,CGTgamblingSpanTasks,2022.2.1,MacIntel,59.99160118,,,,,,,,3.3129,,,,,,,,,,,,,,1,n,0.6871,0.059276504,0,4.3129,1,,,,,,22.87092517,0,0.059276504,,,,,,,,,,,,,0,5,5,27,1,0.911114935,0,,,,,,,,,,,,,,,,,,,,,,,,,,,,,,,,,,,,,,,,,,,,,,,,,,,,,,,,,,,,,,,,,,,,,,,,,,,,,,,,
,,62feca471af7bb3aeaaaa588,2022-09-08_12h10.24.392,CGTgamblingSpanTasks,2022.2.1,MacIntel,59.99160118,,,,,,,,2.8274,,,,,,,,,,,,,,1,n,1.1726,3.877530383,0,4.3274,1.5,,,,,,3.471484939,0,3.877530383,,,,,,,,,,,,,0,6,6,40,1,0.02623078,0,,,,,,,,,,,,,,,,,,,,,,,,,,,,,,,,,,,,,,,,,,,,,,,,,,,,,,,,,,,,,,,,,,,,,,,,,,,,,,,,
,,62feca471af7bb3aeaaaa588,2022-09-08_12h10.24.392,CGTgamblingSpanTasks,2022.2.1,MacIntel,59.99160118,,,,,,,,2.9238,,,,,,,,,,,,,,2,n,1.0762,7.066129113,1,3.9238,1,,,,,,7.066129113,0,0.585581699,,,,,,,,,,,,,0,7,7,19,1,0.545860632,1,,,,,,,,,,,,,,,,,,,,,,,,,,,,,,,,,,,,,,,,,,,,,,,,,,,,,,,,,,,,,,,,,,,,,,,,,,,,,,,,
,,62feca471af7bb3aeaaaa588,2022-09-08_12h10.24.392,CGTgamblingSpanTasks,2022.2.1,MacIntel,59.99160118,,,,,,,,3.0606,,,,,,,,,,,,,,1,v,0.9394,17.4320197,1,4.5606,1.5,,,,,,17.4320197,0,1.448620949,,,,,,,,,,,,,0,8,8,30,1,0.545178213,1,,,,,,,,,,,,,,,,,,,,,,,,,,,,,,,,,,,,,,,,,,,,,,,,,,,,,,,,,,,,,,,,,,,,,,,,,,,,,,,,
,,62feca471af7bb3aeaaaa588,2022-09-08_12h10.24.392,CGTgamblingSpanTasks,2022.2.1,MacIntel,59.99160118,,,,,,,,2.8957,,,,,,,,,,,,,,1,v,1.1043,0,1,3.8957,1,,,,,,26.16821818,0,0.093528069,,,,,,,,,,,,,0,9,9,42,1,0.901022427,0,,,,,,,,,,,,,,,,,,,,,,,,,,,,,,,,,,,,,,,,,,,,,,,,,,,,,,,,,,,,,,,,,,,,,,,,,,,,,,,,
,,62feca471af7bb3aeaaaa588,2022-09-08_12h10.24.392,CGTgamblingSpanTasks,2022.2.1,MacIntel,59.99160118,,,,,,,,3.2815,,,,,,,,,,,,,,2,n,0.7185,8.217594828,1,4.2815,1,,,,,,8.217594828,0,0.951019374,,,,,,,,,,,,,0,10,10,87,1,0.458722936,1,,,,,,,,,,,,,,,,,,,,,,,,,,,,,,,,,,,,,,,,,,,,,,,,,,,,,,,,,,,,,,,,,,,,,,,,,,,,,,,,
,,62feca471af7bb3aeaaaa588,2022-09-08_12h10.24.392,CGTgamblingSpanTasks,2022.2.1,MacIntel,59.99160118,,,,,,,,3.1978,,,,,,,,,,,,,,2,n,0.8022,24.8002852,1,4.1978,1,,,,,,24.8002852,0,0.071848086,,,,,,,,,,,,,0,11,11,16,1,0.90783559,0,,,,,,,,,,,,,,,,,,,,,,,,,,,,,,,,,,,,,,,,,,,,,,,,,,,,,,,,,,,,,,,,,,,,,,,,,,,,,,,,
,,62feca471af7bb3aeaaaa588,2022-09-08_12h10.24.392,CGTgamblingSpanTasks,2022.2.1,MacIntel,59.99160118,,,,,,,,3.247,,,,,,,,,,,,,,1,v,0.753,0,1,4.747,1.5,,,,,,22.0050376,0,2.257683666,,,,,,,,,,,,,0,12,12,4,1,0.491147312,1,,,,,,,,,,,,,,,,,,,,,,,,,,,,,,,,,,,,,,,,,,,,,,,,,,,,,,,,,,,,,,,,,,,,,,,,,,,,,,,,
,,62feca471af7bb3aeaaaa588,2022-09-08_12h10.24.392,CGTgamblingSpanTasks,2022.2.1,MacIntel,59.99160118,,,,,,,,3.3469,,,,,,,,,,,,,,1,v,0.6531,0,1,4.3469,1,,,,,,20.97851654,0,11.39288827,,,,,,,,,,,,,0,13,13,2,1,0.088791079,0,,,,,,,,,,,,,,,,,,,,,,,,,,,,,,,,,,,,,,,,,,,,,,,,,,,,,,,,,,,,,,,,,,,,,,,,,,,,,,,,
,,62feca471af7bb3aeaaaa588,2022-09-08_12h10.24.392,CGTgamblingSpanTasks,2022.2.1,MacIntel,59.99160118,,,,,,,,3.1452,,,,,,,,,,,,,,2,n,0.8548,0,1,4.6452,1.5,,,,,,11.16819157,0,0.941456753,,,,,,,,,,,,,0,14,14,45,1,0.54163803,1,,,,,,,,,,,,,,,,,,,,,,,,,,,,,,,,,,,,,,,,,,,,,,,,,,,,,,,,,,,,,,,,,,,,,,,,,,,,,,,,
,,62feca471af7bb3aeaaaa588,2022-09-08_12h10.24.392,CGTgamblingSpanTasks,2022.2.1,MacIntel,59.99160118,,,,,,,,3.1652,,,,,,,,,,,,,,2,n,0.8348,0,1,4.1652,1,,,,,,24.66627941,0,2.765426402,,,,,,,,,,,,,0,15,15,24,1,0.467360588,1,,,,,,,,,,,,,,,,,,,,,,,,,,,,,,,,,,,,,,,,,,,,,,,,,,,,,,,,,,,,,,,,,,,,,,,,,,,,,,,,
,,62feca471af7bb3aeaaaa588,2022-09-08_12h10.24.392,CGTgamblingSpanTasks,2022.2.1,MacIntel,59.99160118,,,,,,,,3.0099,,,,,,,,,,,,,,1,v,0.9901,0,1,4.0099,1,,,,,,23.59556381,0,2.464662219,,,,,,,,,,,,,0,16,16,22,1,0.486383205,1,,,,,,,,,,,,,,,,,,,,,,,,,,,,,,,,,,,,,,,,,,,,,,,,,,,,,,,,,,,,,,,,,,,,,,,,,,,,,,,,
,,62feca471af7bb3aeaaaa588,2022-09-08_12h10.24.392,CGTgamblingSpanTasks,2022.2.1,MacIntel,59.99160118,,,,,,,,3.1754,,,,,,,,,,,,,,1,v,0.8246,18.16238569,1,4.6754,1.5,,,,,,18.16238569,0,1.540604093,,,,,,,,,,,,,0,17,17,34,1,0.540092491,1,,,,,,,,,,,,,,,,,,,,,,,,,,,,,,,,,,,,,,,,,,,,,,,,,,,,,,,,,,,,,,,,,,,,,,,,,,,,,,,,
,,62feca471af7bb3aeaaaa588,2022-09-08_12h10.24.392,CGTgamblingSpanTasks,2022.2.1,MacIntel,59.99160118,,,,,,,,3.1489,,,,,,,,,,,,,,1,v,0.8511,0,1,4.1489,1,,,,,,28.68598705,0,0.050674956,,,,,,,,,,,,,0,18,18,62,1,0.920905497,0,,,,,,,,,,,,,,,,,,,,,,,,,,,,,,,,,,,,,,,,,,,,,,,,,,,,,,,,,,,,,,,,,,,,,,,,,,,,,,,,
,,62feca471af7bb3aeaaaa588,2022-09-08_12h10.24.392,CGTgamblingSpanTasks,2022.2.1,MacIntel,59.99160118,,,,,,,,2.9638,,,,,,,,,,,,,,2,n,1.0362,21.16780451,1,3.9638,1,,,,,,21.16780451,0,2.469465385,,,,,,,,,,,,,0,19,19,32,1,0.456531699,1,,,,,,,,,,,,,,,,,,,,,,,,,,,,,,,,,,,,,,,,,,,,,,,,,,,,,,,,,,,,,,,,,,,,,,,,,,,,,,,,
,,62feca471af7bb3aeaaaa588,2022-09-08_12h10.24.392,CGTgamblingSpanTasks,2022.2.1,MacIntel,59.99160118,,,,,,,,1.5626,,,,,,,,,,,,,,2,n,2.4374,19.36415485,1,2.5626,1,,,,,,19.36415485,0,1.966229494,,,,,,,,,,,,,0,20,20,96,1,0.493893111,1,,,,,,,,,,,,,,,,,,,,,,,,,,,,,,,,,,,,,,,,,,,,,,,,,,,,,,,,,,,,,,,,,,,,,,,,,,,,,,,,
,,62feca471af7bb3aeaaaa588,2022-09-08_12h10.24.392,CGTgamblingSpanTasks,2022.2.1,MacIntel,59.99160118,,,,,,,,2.6526,,,,,,,,,,,,,,1,v,1.3474,28.18900855,1,3.6526,1,,,,,,28.18900855,0,0.05384276,,,,,,,,,,,,,0,21,21,55,1,0.919081308,0,,,,,,,,,,,,,,,,,,,,,,,,,,,,,,,,,,,,,,,,,,,,,,,,,,,,,,,,,,,,,,,,,,,,,,,,,,,,,,,,
,,62feca471af7bb3aeaaaa588,2022-09-08_12h10.24.392,CGTgamblingSpanTasks,2022.2.1,MacIntel,59.99160118,,,,,,,,3.1479,,,,,,,,,,,,,,1,v,0.8521,0,1,4.1479,1,,,,,,17.85020524,0,2.058701084,,,,,,,,,,,,,0,22,22,25,1,0.459662216,1,,,,,,,,,,,,,,,,,,,,,,,,,,,,,,,,,,,,,,,,,,,,,,,,,,,,,,,,,,,,,,,,,,,,,,,,,,,,,,,,
,,62feca471af7bb3aeaaaa588,2022-09-08_12h10.24.392,CGTgamblingSpanTasks,2022.2.1,MacIntel,59.99160118,,,,,,,,3.0946,,,,,,,,,,,,,,1,v,0.9054,17.30137174,1,4.0946,1,,,,,,17.30137174,0,1.716380842,,,,,,,,,,,,,0,23,23,20,1,0.500020285,1,,,,,,,,,,,,,,,,,,,,,,,,,,,,,,,,,,,,,,,,,,,,,,,,,,,,,,,,,,,,,,,,,,,,,,,,,,,,,,,,
,,62feca471af7bb3aeaaaa588,2022-09-08_12h10.24.392,CGTgamblingSpanTasks,2022.2.1,MacIntel,59.99160118,,,,,,,,2.2966,,,,,,,,,,,,,,2,n,1.7034,0,1,3.7966,1.5,,,,,,23.24777057,0,2.003482335,,,,,,,,,,,,,0,24,24,59,1,0.536135174,1,,,,,,,,,,,,,,,,,,,,,,,,,,,,,,,,,,,,,,,,,,,,,,,,,,,,,,,,,,,,,,,,,,,,,,,,,,,,,,,,
,,62feca471af7bb3aeaaaa588,2022-09-08_12h10.24.392,CGTgamblingSpanTasks,2022.2.1,MacIntel,59.99160118,,,,,,,,3.1304,,,,,,,,,,,,,,1,v,0.8696,0,1,4.6304,1.5,,,,,,17.67865084,0,11.35147481,,,,,,,,,,,,,0,25,25,91,1,0.067304606,0,,,,,,,,,,,,,,,,,,,,,,,,,,,,,,,,,,,,,,,,,,,,,,,,,,,,,,,,,,,,,,,,,,,,,,,,,,,,,,,,
,,62feca471af7bb3aeaaaa588,2022-09-08_12h10.24.392,CGTgamblingSpanTasks,2022.2.1,MacIntel,59.99160118,,,,,,,,3.1313,,,,,,,,,,,,,,1,v,0.8687,0,1,4.1313,1,,,,,,11.08143071,0,1.207538756,,,,,,,,,,,,,0,26,26,84,1,0.475047453,1,,,,,,,,,,,,,,,,,,,,,,,,,,,,,,,,,,,,,,,,,,,,,,,,,,,,,,,,,,,,,,,,,,,,,,,,,,,,,,,,
,,62feca471af7bb3aeaaaa588,2022-09-08_12h10.24.392,CGTgamblingSpanTasks,2022.2.1,MacIntel,59.99160118,,,,,,,,3.1973,,,,,,,,,,,,,,2,n,0.8027,13.96521039,1,4.6973,1.5,,,,,,13.96521039,0,1.591282699,,,,,,,,,,,,,0,27,27,49,1,0.462956344,1,,,,,,,,,,,,,,,,,,,,,,,,,,,,,,,,,,,,,,,,,,,,,,,,,,,,,,,,,,,,,,,,,,,,,,,,,,,,,,,,
,,62feca471af7bb3aeaaaa588,2022-09-08_12h10.24.392,CGTgamblingSpanTasks,2022.2.1,MacIntel,59.99160118,,,,,,,,3.325,,,,,,,,,,,,,,2,n,0.675,0,1,4.325,1,,,,,,20.31034258,0,1.870404296,,,,,,,,,,,,,0,28,28,85,1,0.519325853,1,,,,,,,,,,,,,,,,,,,,,,,,,,,,,,,,,,,,,,,,,,,,,,,,,,,,,,,,,,,,,,,,,,,,,,,,,,,,,,,,
,,62feca471af7bb3aeaaaa588,2022-09-08_12h10.24.392,CGTgamblingSpanTasks,2022.2.1,MacIntel,59.99160118,,,,,,,,3.3598,,,,,,,,,,,,,,1,v,0.6402,0,1,4.8598,1.5,,,,,,27.37527992,0,2.860319095,,,,,,,,,,,,,0,29,29,39,1,0.486304156,1,,,,,,,,,,,,,,,,,,,,,,,,,,,,,,,,,,,,,,,,,,,,,,,,,,,,,,,,,,,,,,,,,,,,,,,,,,,,,,,,
,,62feca471af7bb3aeaaaa588,2022-09-08_12h10.24.392,CGTgamblingSpanTasks,2022.2.1,MacIntel,59.99160118,,,,,,,,3.1982,,,,,,,,,,,,,,1,v,0.8018,0,1,4.1982,1,,,,,,27.60724521,0,0.088432325,,,,,,,,,,,,,0,30,30,17,1,0.904684186,0,,,,,,,,,,,,,,,,,,,,,,,,,,,,,,,,,,,,,,,,,,,,,,,,,,,,,,,,,,,,,,,,,,,,,,,,,,,,,,,,
,,62feca471af7bb3aeaaaa588,2022-09-08_12h10.24.392,CGTgamblingSpanTasks,2022.2.1,MacIntel,59.99160118,,,,,,,,3.2143,,,,,,,,,,,,,,2,n,0.7857,27.88092897,1,4.7143,1.5,,,,,,27.88092897,0,2.771762788,,,,,,,,,,,,,0,31,31,117,1,0.499466648,1,,,,,,,,,,,,,,,,,,,,,,,,,,,,,,,,,,,,,,,,,,,,,,,,,,,,,,,,,,,,,,,,,,,,,,,,,,,,,,,,
,,62feca471af7bb3aeaaaa588,2022-09-08_12h10.24.392,CGTgamblingSpanTasks,2022.2.1,MacIntel,59.99160118,,,,,,,,3.1413,,,,,,,,,,,,,,2,n,0.8587,15.13999312,1,4.6413,1.5,,,,,,15.13999312,0,8.653432553,,,,,,,,,,,,,0,32,32,54,1,0.081767484,0,,,,,,,,,,,,,,,,,,,,,,,,,,,,,,,,,,,,,,,,,,,,,,,,,,,,,,,,,,,,,,,,,,,,,,,,,,,,,,,,
,,62feca471af7bb3aeaaaa588,2022-09-08_12h10.24.392,CGTgamblingSpanTasks,2022.2.1,MacIntel,59.99160118,,,,,,,,2.974,,,,,,,,,,,,,,2,n,1.026,21.48443242,1,3.974,1,,,,,,21.48443242,0,2.229247341,,,,,,,,,,,,,0,33,33,63,1,0.488155912,1,,,,,,,,,,,,,,,,,,,,,,,,,,,,,,,,,,,,,,,,,,,,,,,,,,,,,,,,,,,,,,,,,,,,,,,,,,,,,,,,
,,62feca471af7bb3aeaaaa588,2022-09-08_12h10.24.392,CGTgamblingSpanTasks,2022.2.1,MacIntel,59.99160118,,,,,,,,3.2934,,,,,,,,,,,,,,1,v,0.7066,0,1,4.2934,1,,,,,,26.36733703,0,2.201057101,,,,,,,,,,,,,0,34,34,90,1,0.544064207,1,,,,,,,,,,,,,,,,,,,,,,,,,,,,,,,,,,,,,,,,,,,,,,,,,,,,,,,,,,,,,,,,,,,,,,,,,,,,,,,,
,,62feca471af7bb3aeaaaa588,2022-09-08_12h10.24.392,CGTgamblingSpanTasks,2022.2.1,MacIntel,59.99160118,,,,,,,,2.9789,,,,,,,,,,,,,,2,v,1.0211,7.50753835,0,4.4789,1.5,,,,,,2.231316635,0,7.50753835,,,,,,,,,,,,,0,35,35,29,1,0.010273427,0,,,,,,,,,,,,,,,,,,,,,,,,,,,,,,,,,,,,,,,,,,,,,,,,,,,,,,,,,,,,,,,,,,,,,,,,,,,,,,,,
,,62feca471af7bb3aeaaaa588,2022-09-08_12h10.24.392,CGTgamblingSpanTasks,2022.2.1,MacIntel,59.99160118,,,,,,,,2.9316,,,,,,,,,,,,,,1,v,1.0684,0,1,4.4316,1.5,,,,,,23.4214135,0,2.485985001,,,,,,,,,,,,,0,36,36,81,1,0.482105905,1,,,,,,,,,,,,,,,,,,,,,,,,,,,,,,,,,,,,,,,,,,,,,,,,,,,,,,,,,,,,,,,,,,,,,,,,,,,,,,,,
,,62feca471af7bb3aeaaaa588,2022-09-08_12h10.24.392,CGTgamblingSpanTasks,2022.2.1,MacIntel,59.99160118,,,,,,,,2.03,,,,,,,,,,,,,,2,v,1.97,6.091504705,0,3.03,1,,,,,,6.662965216,0,6.091504705,,,,,,,,,,,,,0,37,37,102,1,0.035087099,0,,,,,,,,,,,,,,,,,,,,,,,,,,,,,,,,,,,,,,,,,,,,,,,,,,,,,,,,,,,,,,,,,,,,,,,,,,,,,,,,
,,62feca471af7bb3aeaaaa588,2022-09-08_12h10.24.392,CGTgamblingSpanTasks,2022.2.1,MacIntel,59.99160118,,,,,,,,3.2273,,,,,,,,,,,,,,2,n,0.7727,0,1,4.2273,1,,,,,,27.53810185,0,0.097022401,,,,,,,,,,,,,0,38,38,50,1,0.901515865,0,,,,,,,,,,,,,,,,,,,,,,,,,,,,,,,,,,,,,,,,,,,,,,,,,,,,,,,,,,,,,,,,,,,,,,,,,,,,,,,,
,,62feca471af7bb3aeaaaa588,2022-09-08_12h10.24.392,CGTgamblingSpanTasks,2022.2.1,MacIntel,59.99160118,,,,,,,,3.1251,,,,,,,,,,,,,,1,n,0.8749,11.19311486,0,4.6251,1.5,,,,,,8.17598802,0,11.19311486,,,,,,,,,,,,,0,39,39,110,1,0.021568003,0,,,,,,,,,,,,,,,,,,,,,,,,,,,,,,,,,,,,,,,,,,,,,,,,,,,,,,,,,,,,,,,,,,,,,,,,,,,,,,,,
,,62feca471af7bb3aeaaaa588,2022-09-08_12h10.24.392,CGTgamblingSpanTasks,2022.2.1,MacIntel,59.99160118,,,,,,,,3.3194,,,,,,,,,,,,,,2,v,0.6806,0.074524436,0,4.3194,1,,,,,,27.77179191,0,0.074524436,,,,,,,,,,,,,0,40,40,99,1,0.910114387,0,,,,,,,,,,,,,,,,,,,,,,,,,,,,,,,,,,,,,,,,,,,,,,,,,,,,,,,,,,,,,,,,,,,,,,,,,,,,,,,,
,,62feca471af7bb3aeaaaa588,2022-09-08_12h10.24.392,CGTgamblingSpanTasks,2022.2.1,MacIntel,59.99160118,,,,,,,,3.2117,,,,,,,,,,,,,,2,v,0.7883,2.532806323,0,4.7117,1.5,,,,,,28.13634754,0,2.532806323,,,,,,,,,,,,,0,41,41,28,1,0.525136524,1,,,,,,,,,,,,,,,,,,,,,,,,,,,,,,,,,,,,,,,,,,,,,,,,,,,,,,,,,,,,,,,,,,,,,,,,,,,,,,,,
,,62feca471af7bb3aeaaaa588,2022-09-08_12h10.24.392,CGTgamblingSpanTasks,2022.2.1,MacIntel,59.99160118,,,,,,,,0,,,,,,,,,,,,,,1,,,,,1.5,1.5,,,,,,17.92584289,0,1.878232496,,,,,,,,,,,,,0,42,42,5,1,0.485559263,1,,,,,,,,,,,,,,,,,,,,,,,,,,,,,,,,,,,,,,,,,,,,,,,,,,,,,,,,,,,,,,,,,,,,,,,,,,,,,,,,
,,62feca471af7bb3aeaaaa588,2022-09-08_12h10.24.392,CGTgamblingSpanTasks,2022.2.1,MacIntel,59.99160118,,,,,,,,3.2548,,,,,,,,,,,,,,1,v,0.7452,0,1,4.2548,1,,,,,,22.25959835,0,0.065383587,,,,,,,,,,,,,0,43,43,97,1,0.907413875,0,,,,,,,,,,,,,,,,,,,,,,,,,,,,,,,,,,,,,,,,,,,,,,,,,,,,,,,,,,,,,,,,,,,,,,,,,,,,,,,,
,,62feca471af7bb3aeaaaa588,2022-09-08_12h10.24.392,CGTgamblingSpanTasks,2022.2.1,MacIntel,59.99160118,,,,,,,,2.9644,,,,,,,,,,,,,,1,v,1.0356,0,1,4.4644,1.5,,,,,,7.534278541,0,0.747140182,,,,,,,,,,,,,0,44,44,37,1,0.50012466,1,,,,,,,,,,,,,,,,,,,,,,,,,,,,,,,,,,,,,,,,,,,,,,,,,,,,,,,,,,,,,,,,,,,,,,,,,,,,,,,,
,,62feca471af7bb3aeaaaa588,2022-09-08_12h10.24.392,CGTgamblingSpanTasks,2022.2.1,MacIntel,59.99160118,,,,,,,,3.2767,,,,,,,,,,,,,,1,n,0.7233,4.251676631,0,4.7767,1.5,,,,,,3.395192929,0,4.251676631,,,,,,,,,,,,,0,45,45,7,1,0.023467153,0,,,,,,,,,,,,,,,,,,,,,,,,,,,,,,,,,,,,,,,,,,,,,,,,,,,,,,,,,,,,,,,,,,,,,,,,,,,,,,,,
,,62feca471af7bb3aeaaaa588,2022-09-08_12h10.24.392,CGTgamblingSpanTasks,2022.2.1,MacIntel,59.99160118,,,,,,,,3.2643,,,,,,,,,,,,,,2,n,0.7357,25.0707644,1,4.7643,1.5,,,,,,25.0707644,0,0.067651625,,,,,,,,,,,,,0,46,46,70,1,0.909952349,0,,,,,,,,,,,,,,,,,,,,,,,,,,,,,,,,,,,,,,,,,,,,,,,,,,,,,,,,,,,,,,,,,,,,,,,,,,,,,,,,
,,62feca471af7bb3aeaaaa588,2022-09-08_12h10.24.392,CGTgamblingSpanTasks,2022.2.1,MacIntel,59.99160118,,,,,,,,3.042,,,,,,,,,,,,,,2,n,0.958,28.14876717,1,4.042,1,,,,,,28.14876717,0,3.117906378,,,,,,,,,,,,,0,47,47,76,1,0.470636736,1,,,,,,,,,,,,,,,,,,,,,,,,,,,,,,,,,,,,,,,,,,,,,,,,,,,,,,,,,,,,,,,,,,,,,,,,,,,,,,,,
,,62feca471af7bb3aeaaaa588,2022-09-08_12h10.24.392,CGTgamblingSpanTasks,2022.2.1,MacIntel,59.99160118,,,,,,,,3.2979,,,,,,,,,,,,,,1,v,0.7021,17.5608285,1,4.7979,1.5,,,,,,17.5608285,0,1.825111303,,,,,,,,,,,,,0,48,48,104,1,0.487721116,1,,,,,,,,,,,,,,,,,,,,,,,,,,,,,,,,,,,,,,,,,,,,,,,,,,,,,,,,,,,,,,,,,,,,,,,,,,,,,,,,
,,62feca471af7bb3aeaaaa588,2022-09-08_12h10.24.392,CGTgamblingSpanTasks,2022.2.1,MacIntel,59.99160118,,,,,,,,3.3144,,,,,,,,,,,,,,2,v,0.6856,11.6744431,0,4.8144,1.5,,,,,,10.43004651,0,11.6744431,,,,,,,,,,,,,0,49,49,15,1,0.026176489,0,,,,,,,,,,,,,,,,,,,,,,,,,,,,,,,,,,,,,,,,,,,,,,,,,,,,,,,,,,,,,,,,,,,,,,,,,,,,,,,,
,,62feca471af7bb3aeaaaa588,2022-09-08_12h10.24.392,CGTgamblingSpanTasks,2022.2.1,MacIntel,59.99160118,,,,,,,,3.2616,,,,,,,,,,,,,,1,v,0.7384,14.3363647,1,4.2616,1,,,,,,14.3363647,0,1.396635362,,,,,,,,,,,,,0,50,50,78,1,0.504775474,1,,,,,,,,,,,,,,,,,,,,,,,,,,,,,,,,,,,,,,,,,,,,,,,,,,,,,,,,,,,,,,,,,,,,,,,,,,,,,,,,
,,62feca471af7bb3aeaaaa588,2022-09-08_12h10.24.392,CGTgamblingSpanTasks,2022.2.1,MacIntel,59.99160118,,,,,,,,3.1486,,,,,,,,,,,,,,1,v,0.8514,19.58698544,1,4.6486,1.5,,,,,,19.58698544,0,9.936178001,,,,,,,,,,,,,0,51,51,77,1,0.098812204,0,,,,,,,,,,,,,,,,,,,,,,,,,,,,,,,,,,,,,,,,,,,,,,,,,,,,,,,,,,,,,,,,,,,,,,,,,,,,,,,,
,,62feca471af7bb3aeaaaa588,2022-09-08_12h10.24.392,CGTgamblingSpanTasks,2022.2.1,MacIntel,59.99160118,,,,,,,,3.3633,,,,,,,,,,,,,,1,v,0.6367,19.68065872,1,4.8633,1.5,,,,,,19.68065872,0,1.843597162,,,,,,,,,,,,,0,52,52,80,1,0.514941058,1,,,,,,,,,,,,,,,,,,,,,,,,,,,,,,,,,,,,,,,,,,,,,,,,,,,,,,,,,,,,,,,,,,,,,,,,,,,,,,,,
,,62feca471af7bb3aeaaaa588,2022-09-08_12h10.24.392,CGTgamblingSpanTasks,2022.2.1,MacIntel,59.99160118,,,,,,,,3.1902,,,,,,,,,,,,,,1,v,0.8098,0,1,4.1902,1,,,,,,21.46599803,0,0.059789256,,,,,,,,,,,,,0,53,53,8,1,0.909019081,0,,,,,,,,,,,,,,,,,,,,,,,,,,,,,,,,,,,,,,,,,,,,,,,,,,,,,,,,,,,,,,,,,,,,,,,,,,,,,,,,
,,62feca471af7bb3aeaaaa588,2022-09-08_12h10.24.392,CGTgamblingSpanTasks,2022.2.1,MacIntel,59.99160118,,,,,,,,3.2628,,,,,,,,,,,,,,2,v,0.7372,10.41201161,0,4.7628,1.5,,,,,,6.307062696,0,10.41201161,,,,,,,,,,,,,0,54,54,23,1,0.018187109,0,,,,,,,,,,,,,,,,,,,,,,,,,,,,,,,,,,,,,,,,,,,,,,,,,,,,,,,,,,,,,,,,,,,,,,,,,,,,,,,,
,,62feca471af7bb3aeaaaa588,2022-09-08_12h10.24.392,CGTgamblingSpanTasks,2022.2.1,MacIntel,59.99160118,,,,,,,,2.9797,,,,,,,,,,,,,,1,v,1.0203,25.56803059,1,3.9797,1,,,,,,25.56803059,0,2.543951743,,,,,,,,,,,,,0,55,55,41,1,0.499247217,1,,,,,,,,,,,,,,,,,,,,,,,,,,,,,,,,,,,,,,,,,,,,,,,,,,,,,,,,,,,,,,,,,,,,,,,,,,,,,,,,
,,62feca471af7bb3aeaaaa588,2022-09-08_12h10.24.392,CGTgamblingSpanTasks,2022.2.1,MacIntel,59.99160118,,,,,,,,3.1253,,,,,,,,,,,,,,1,n,0.8747,11.42134125,0,4.1253,1,,,,,,12.9904115,0,11.42134125,,,,,,,,,,,,,0,56,56,118,1,0.037876033,0,,,,,,,,,,,,,,,,,,,,,,,,,,,,,,,,,,,,,,,,,,,,,,,,,,,,,,,,,,,,,,,,,,,,,,,,,,,,,,,,
,,62feca471af7bb3aeaaaa588,2022-09-08_12h10.24.392,CGTgamblingSpanTasks,2022.2.1,MacIntel,59.99160118,,,,,,,,3.1615,,,,,,,,,,,,,,2,v,0.8385,0.067170781,0,4.6615,1.5,,,,,,22.72923833,0,0.067170781,,,,,,,,,,,,,0,57,57,86,1,0.907226703,0,,,,,,,,,,,,,,,,,,,,,,,,,,,,,,,,,,,,,,,,,,,,,,,,,,,,,,,,,,,,,,,,,,,,,,,,,,,,,,,,
,,62feca471af7bb3aeaaaa588,2022-09-08_12h10.24.392,CGTgamblingSpanTasks,2022.2.1,MacIntel,59.99160118,,,,,,,,3.0459,,,,,,,,,,,,,,1,v,0.9541,0,1,4.5459,1.5,,,,,,27.2532142,0,0.08089327,,,,,,,,,,,,,0,58,58,119,1,0.907091845,0,,,,,,,,,,,,,,,,,,,,,,,,,,,,,,,,,,,,,,,,,,,,,,,,,,,,,,,,,,,,,,,,,,,,,,,,,,,,,,,,
,,62feca471af7bb3aeaaaa588,2022-09-08_12h10.24.392,CGTgamblingSpanTasks,2022.2.1,MacIntel,59.99160118,,,,,,,,3.2183,,,,,,,,,,,,,,1,v,0.7817,0,1,4.7183,1.5,,,,,,14.20587264,0,11.93550497,,,,,,,,,,,,,0,59,59,21,1,0.041340301,0,,,,,,,,,,,,,,,,,,,,,,,,,,,,,,,,,,,,,,,,,,,,,,,,,,,,,,,,,,,,,,,,,,,,,,,,,,,,,,,,
,,62feca471af7bb3aeaaaa588,2022-09-08_12h10.24.392,CGTgamblingSpanTasks,2022.2.1,MacIntel,59.99160118,,,,,,,,3.093,,,,,,,,,,,,,,1,v,0.907,29.75778644,1,4.593,1.5,,,,,,29.75778644,0,2.810531415,,,,,,,,,,,,,0,60,60,113,1,0.512824233,1,,,,,,,,,,,,,,,,,,,,,,,,,,,,,,,,,,,,,,,,,,,,,,,,,,,,,,,,,,,,,,,,,,,,,,,,,,,,,,,,
,,62feca471af7bb3aeaaaa588,2022-09-08_12h10.24.392,CGTgamblingSpanTasks,2022.2.1,MacIntel,59.99160118,,,,,,,,2.9987,,,,,,,,,,,,,,2,n,1.0013,8.670591867,1,4.4987,1.5,,,,,,8.670591867,0,1.025847652,,,,,,,,,,,,,0,61,61,18,1,0.452680459,1,,,,,,,,,,,,,,,,,,,,,,,,,,,,,,,,,,,,,,,,,,,,,,,,,,,,,,,,,,,,,,,,,,,,,,,,,,,,,,,,
,,62feca471af7bb3aeaaaa588,2022-09-08_12h10.24.392,CGTgamblingSpanTasks,2022.2.1,MacIntel,59.99160118,,,,,,,,3.3125,,,,,,,,,,,,,,2,v,0.6875,4.462262453,0,4.3125,1,,,,,,0.192759042,0,4.462262453,,,,,,,,,,,,,0,62,62,52,1,0.003553223,0,,,,,,,,,,,,,,,,,,,,,,,,,,,,,,,,,,,,,,,,,,,,,,,,,,,,,,,,,,,,,,,,,,,,,,,,,,,,,,,,
,,62feca471af7bb3aeaaaa588,2022-09-08_12h10.24.392,CGTgamblingSpanTasks,2022.2.1,MacIntel,59.99160118,,,,,,,,3.1426,,,,,,,,,,,,,,2,n,0.8574,22.62475578,1,4.1426,1,,,,,,22.62475578,0,2.397643354,,,,,,,,,,,,,0,63,63,93,1,0.482527609,1,,,,,,,,,,,,,,,,,,,,,,,,,,,,,,,,,,,,,,,,,,,,,,,,,,,,,,,,,,,,,,,,,,,,,,,,,,,,,,,,
,,62feca471af7bb3aeaaaa588,2022-09-08_12h10.24.392,CGTgamblingSpanTasks,2022.2.1,MacIntel,59.99160118,,,,,,,,3.1815,,,,,,,,,,,,,,1,v,0.8185,13.4287264,1,4.1815,1,,,,,,13.4287264,0,1.317368801,,,,,,,,,,,,,0,64,64,100,1,0.502953125,1,,,,,,,,,,,,,,,,,,,,,,,,,,,,,,,,,,,,,,,,,,,,,,,,,,,,,,,,,,,,,,,,,,,,,,,,,,,,,,,,
,,62feca471af7bb3aeaaaa588,2022-09-08_12h10.24.392,CGTgamblingSpanTasks,2022.2.1,MacIntel,59.99160118,,,,,,,,3.3647,,,,,,,,,,,,,,2,n,0.6353,25.76582409,1,4.8647,1.5,,,,,,25.76582409,0,2.393193076,,,,,,,,,,,,,0,65,65,46,1,0.517129855,1,,,,,,,,,,,,,,,,,,,,,,,,,,,,,,,,,,,,,,,,,,,,,,,,,,,,,,,,,,,,,,,,,,,,,,,,,,,,,,,,
,,62feca471af7bb3aeaaaa588,2022-09-08_12h10.24.392,CGTgamblingSpanTasks,2022.2.1,MacIntel,59.99160118,,,,,,,,3.1979,,,,,,,,,,,,,,1,v,0.8021,9.012590634,1,4.1979,1,,,,,,9.012590634,0,1.002188111,,,,,,,,,,,,,0,66,66,12,1,0.46958041,1,,,,,,,,,,,,,,,,,,,,,,,,,,,,,,,,,,,,,,,,,,,,,,,,,,,,,,,,,,,,,,,,,,,,,,,,,,,,,,,,
,,62feca471af7bb3aeaaaa588,2022-09-08_12h10.24.392,CGTgamblingSpanTasks,2022.2.1,MacIntel,59.99160118,,,,,,,,3.3942,,,,,,,,,,,,,,1,v,0.6058,24.479109,1,4.3942,1,,,,,,24.479109,0,0.089582697,,,,,,,,,,,,,0,67,67,89,1,0.900200232,0,,,,,,,,,,,,,,,,,,,,,,,,,,,,,,,,,,,,,,,,,,,,,,,,,,,,,,,,,,,,,,,,,,,,,,,,,,,,,,,,
,,62feca471af7bb3aeaaaa588,2022-09-08_12h10.24.392,CGTgamblingSpanTasks,2022.2.1,MacIntel,59.99160118,,,,,,,,3.361,,,,,,,,,,,,,,1,v,0.639,0,1,4.861,1.5,,,,,,24.57684014,0,0.061756244,,,,,,,,,,,,,0,68,68,68,1,0.911988903,0,,,,,,,,,,,,,,,,,,,,,,,,,,,,,,,,,,,,,,,,,,,,,,,,,,,,,,,,,,,,,,,,,,,,,,,,,,,,,,,,
,,62feca471af7bb3aeaaaa588,2022-09-08_12h10.24.392,CGTgamblingSpanTasks,2022.2.1,MacIntel,59.99160118,,,,,,,,3.3479,,,,,,,,,,,,,,1,v,0.6521,0,1,4.8479,1.5,,,,,,21.39646914,0,0.072474078,,,,,,,,,,,,,0,69,69,3,1,0.902848133,0,,,,,,,,,,,,,,,,,,,,,,,,,,,,,,,,,,,,,,,,,,,,,,,,,,,,,,,,,,,,,,,,,,,,,,,,,,,,,,,,
,,62feca471af7bb3aeaaaa588,2022-09-08_12h10.24.392,CGTgamblingSpanTasks,2022.2.1,MacIntel,59.99160118,,,,,,,,3.4771,,,,,,,,,,,,,,1,v,0.5229,15.21435748,1,4.4771,1,,,,,,15.21435748,0,10.3417501,,,,,,,,,,,,,0,70,70,72,1,0.060969226,0,,,,,,,,,,,,,,,,,,,,,,,,,,,,,,,,,,,,,,,,,,,,,,,,,,,,,,,,,,,,,,,,,,,,,,,,,,,,,,,,
,,62feca471af7bb3aeaaaa588,2022-09-08_12h10.24.392,CGTgamblingSpanTasks,2022.2.1,MacIntel,59.99160118,,,,,,,,3.1647,,,,,,,,,,,,,,1,n,0.8353,8.579385201,0,4.1647,1,,,,,,14.11762686,0,8.579385201,,,,,,,,,,,,,0,71,71,60,1,0.073886959,0,,,,,,,,,,,,,,,,,,,,,,,,,,,,,,,,,,,,,,,,,,,,,,,,,,,,,,,,,,,,,,,,,,,,,,,,,,,,,,,,
,,62feca471af7bb3aeaaaa588,2022-09-08_12h10.24.392,CGTgamblingSpanTasks,2022.2.1,MacIntel,59.99160118,,,,,,,,3.4411,,,,,,,,,,,,,,1,v,0.5589,27.76752685,1,4.4411,1,,,,,,27.76752685,0,0.083968035,,,,,,,,,,,,,0,72,72,13,1,0.906513967,0,,,,,,,,,,,,,,,,,,,,,,,,,,,,,,,,,,,,,,,,,,,,,,,,,,,,,,,,,,,,,,,,,,,,,,,,,,,,,,,,
,,62feca471af7bb3aeaaaa588,2022-09-08_12h10.24.392,CGTgamblingSpanTasks,2022.2.1,MacIntel,59.99160118,,,,,,,,3.197,,,,,,,,,,,,,,1,v,0.803,29.76099779,1,4.197,1,,,,,,29.76099779,0,0.095763086,,,,,,,,,,,,,0,73,73,35,1,0.904537896,0,,,,,,,,,,,,,,,,,,,,,,,,,,,,,,,,,,,,,,,,,,,,,,,,,,,,,,,,,,,,,,,,,,,,,,,,,,,,,,,,
,,62feca471af7bb3aeaaaa588,2022-09-08_12h10.24.392,CGTgamblingSpanTasks,2022.2.1,MacIntel,59.99160118,,,,,,,,3.1466,,,,,,,,,,,,,,1,v,0.8534,17.64114152,1,4.6466,1.5,,,,,,17.64114152,0,10.68505773,,,,,,,,,,,,,0,74,74,98,1,0.074299362,0,,,,,,,,,,,,,,,,,,,,,,,,,,,,,,,,,,,,,,,,,,,,,,,,,,,,,,,,,,,,,,,,,,,,,,,,,,,,,,,,
,,62feca471af7bb3aeaaaa588,2022-09-08_12h10.24.392,CGTgamblingSpanTasks,2022.2.1,MacIntel,59.99160118,,,,,,,,3.2247,,,,,,,,,,,,,,2,n,0.7753,27.94544945,1,4.2247,1,,,,,,27.94544945,0,2.32030209,,,,,,,,,,,,,0,75,75,115,1,0.545390564,1,,,,,,,,,,,,,,,,,,,,,,,,,,,,,,,,,,,,,,,,,,,,,,,,,,,,,,,,,,,,,,,,,,,,,,,,,,,,,,,,
,,62feca471af7bb3aeaaaa588,2022-09-08_12h10.24.392,CGTgamblingSpanTasks,2022.2.1,MacIntel,59.99160118,,,,,,,,3.1574,,,,,,,,,,,,,,2,n,0.8426,21.7711579,1,4.6574,1.5,,,,,,21.7711579,0,2.502728921,,,,,,,,,,,,,0,76,76,101,1,0.460552621,1,,,,,,,,,,,,,,,,,,,,,,,,,,,,,,,,,,,,,,,,,,,,,,,,,,,,,,,,,,,,,,,,,,,,,,,,,,,,,,,,
,,62feca471af7bb3aeaaaa588,2022-09-08_12h10.24.392,CGTgamblingSpanTasks,2022.2.1,MacIntel,59.99160118,,,,,,,,3.3467,,,,,,,,,,,,,,1,v,0.6533,27.7711693,1,4.8467,1.5,,,,,,27.7711693,0,2.320849632,,,,,,,,,,,,,0,77,77,94,1,0.543786368,1,,,,,,,,,,,,,,,,,,,,,,,,,,,,,,,,,,,,,,,,,,,,,,,,,,,,,,,,,,,,,,,,,,,,,,,,,,,,,,,,
,,62feca471af7bb3aeaaaa588,2022-09-08_12h10.24.392,CGTgamblingSpanTasks,2022.2.1,MacIntel,59.99160118,,,,,,,,3.2095,,,,,,,,,,,,,,2,v,0.7905,7.850775577,0,4.2095,1,,,,,,4.622707531,0,7.850775577,,,,,,,,,,,,,0,78,78,6,1,0.017737407,0,,,,,,,,,,,,,,,,,,,,,,,,,,,,,,,,,,,,,,,,,,,,,,,,,,,,,,,,,,,,,,,,,,,,,,,,,,,,,,,,
,,62feca471af7bb3aeaaaa588,2022-09-08_12h10.24.392,CGTgamblingSpanTasks,2022.2.1,MacIntel,59.99160118,,,,,,,,3.1311,,,,,,,,,,,,,,1,v,0.8689,21.2188881,1,4.6311,1.5,,,,,,21.2188881,0,2.067660742,,,,,,,,,,,,,0,79,79,107,1,0.50470775,1,,,,,,,,,,,,,,,,,,,,,,,,,,,,,,,,,,,,,,,,,,,,,,,,,,,,,,,,,,,,,,,,,,,,,,,,,,,,,,,,
,,62feca471af7bb3aeaaaa588,2022-09-08_12h10.24.392,CGTgamblingSpanTasks,2022.2.1,MacIntel,59.99160118,,,,,,,,3.2239,,,,,,,,,,,,,,1,v,0.7761,24.35708027,1,4.7239,1.5,,,,,,24.35708027,0,2.738695417,,,,,,,,,,,,,0,80,80,114,1,0.466573634,1,,,,,,,,,,,,,,,,,,,,,,,,,,,,,,,,,,,,,,,,,,,,,,,,,,,,,,,,,,,,,,,,,,,,,,,,,,,,,,,,
,,62feca471af7bb3aeaaaa588,2022-09-08_12h10.24.392,CGTgamblingSpanTasks,2022.2.1,MacIntel,59.99160118,,,,,,,,3.2124,,,,,,,,,,,,,,1,v,0.7876,0,1,4.7124,1.5,,,,,,18.51345298,0,1.932334278,,,,,,,,,,,,,0,81,81,31,1,0.48658696,1,,,,,,,,,,,,,,,,,,,,,,,,,,,,,,,,,,,,,,,,,,,,,,,,,,,,,,,,,,,,,,,,,,,,,,,,,,,,,,,,
,,62feca471af7bb3aeaaaa588,2022-09-08_12h10.24.392,CGTgamblingSpanTasks,2022.2.1,MacIntel,59.99160118,,,,,,,,3.2443,,,,,,,,,,,,,,1,n,0.7557,2.208275162,0,4.7443,1.5,,,,,,21.03408097,0,2.208275162,,,,,,,,,,,,,0,82,82,0,1,0.485031246,1,,,,,,,,,,,,,,,,,,,,,,,,,,,,,,,,,,,,,,,,,,,,,,,,,,,,,,,,,,,,,,,,,,,,,,,,,,,,,,,,
,,62feca471af7bb3aeaaaa588,2022-09-08_12h10.24.392,CGTgamblingSpanTasks,2022.2.1,MacIntel,59.99160118,,,,,,,,3.3301,,,,,,,,,,,,,,1,v,0.6699,25.26994993,1,4.3301,1,,,,,,25.26994993,0,2.78925142,,,,,,,,,,,,,0,83,83,108,1,0.471582922,1,,,,,,,,,,,,,,,,,,,,,,,,,,,,,,,,,,,,,,,,,,,,,,,,,,,,,,,,,,,,,,,,,,,,,,,,,,,,,,,,
,,62feca471af7bb3aeaaaa588,2022-09-08_12h10.24.392,CGTgamblingSpanTasks,2022.2.1,MacIntel,59.99160118,,,,,,,,3.326,,,,,,,,,,,,,,1,v,0.674,0,1,4.326,1,,,,,,15.87668502,0,8.42547829,,,,,,,,,,,,,0,84,84,56,1,0.092099462,0,,,,,,,,,,,,,,,,,,,,,,,,,,,,,,,,,,,,,,,,,,,,,,,,,,,,,,,,,,,,,,,,,,,,,,,,,,,,,,,,
,,62feca471af7bb3aeaaaa588,2022-09-08_12h10.24.392,CGTgamblingSpanTasks,2022.2.1,MacIntel,59.99160118,,,,,,,,3.192,,,,,,,,,,,,,,1,v,0.808,18.11029021,1,4.192,1,,,,,,18.11029021,0,11.41737518,,,,,,,,,,,,,0,85,85,48,1,0.069445859,0,,,,,,,,,,,,,,,,,,,,,,,,,,,,,,,,,,,,,,,,,,,,,,,,,,,,,,,,,,,,,,,,,,,,,,,,,,,,,,,,
,,62feca471af7bb3aeaaaa588,2022-09-08_12h10.24.392,CGTgamblingSpanTasks,2022.2.1,MacIntel,59.99160118,,,,,,,,3.2972,,,,,,,,,,,,,,1,v,0.7028,6.325091157,1,4.2972,1,,,,,,6.325091157,0,6.833409611,,,,,,,,,,,,,0,86,86,58,1,0.027113638,0,,,,,,,,,,,,,,,,,,,,,,,,,,,,,,,,,,,,,,,,,,,,,,,,,,,,,,,,,,,,,,,,,,,,,,,,,,,,,,,,
,,62feca471af7bb3aeaaaa588,2022-09-08_12h10.24.392,CGTgamblingSpanTasks,2022.2.1,MacIntel,59.99160118,,,,,,,,3.2613,,,,,,,,,,,,,,2,n,0.7387,0,1,4.7613,1.5,,,,,,22.86604061,0,2.293289792,,,,,,,,,,,,,0,87,87,51,1,0.49715382,1,,,,,,,,,,,,,,,,,,,,,,,,,,,,,,,,,,,,,,,,,,,,,,,,,,,,,,,,,,,,,,,,,,,,,,,,,,,,,,,,
,,62feca471af7bb3aeaaaa588,2022-09-08_12h10.24.392,CGTgamblingSpanTasks,2022.2.1,MacIntel,59.99160118,,,,,,,,3.2295,,,,,,,,,,,,,,2,n,0.7705,0,1,4.7295,1.5,,,,,,25.54604005,0,0.088845411,,,,,,,,,,,,,0,88,88,79,1,0.901957831,0,,,,,,,,,,,,,,,,,,,,,,,,,,,,,,,,,,,,,,,,,,,,,,,,,,,,,,,,,,,,,,,,,,,,,,,,,,,,,,,,
,,62feca471af7bb3aeaaaa588,2022-09-08_12h10.24.392,CGTgamblingSpanTasks,2022.2.1,MacIntel,59.99160118,,,,,,,,3.4111,,,,,,,,,,,,,,1,v,0.5889,27.93093084,1,4.9111,1.5,,,,,,27.93093084,0,0.050207531,,,,,,,,,,,,,0,89,89,83,1,0.920505936,0,,,,,,,,,,,,,,,,,,,,,,,,,,,,,,,,,,,,,,,,,,,,,,,,,,,,,,,,,,,,,,,,,,,,,,,,,,,,,,,,
,,62feca471af7bb3aeaaaa588,2022-09-08_12h10.24.392,CGTgamblingSpanTasks,2022.2.1,MacIntel,59.99160118,,,,,,,,3.2648,,,,,,,,,,,,,,2,n,0.7352,0,1,4.7648,1.5,,,,,,27.57491653,0,2.99133314,,,,,,,,,,,,,0,90,90,10,1,0.47625893,1,,,,,,,,,,,,,,,,,,,,,,,,,,,,,,,,,,,,,,,,,,,,,,,,,,,,,,,,,,,,,,,,,,,,,,,,,,,,,,,,
,,62feca471af7bb3aeaaaa588,2022-09-08_12h10.24.392,CGTgamblingSpanTasks,2022.2.1,MacIntel,59.99160118,,,,,,,,3.4793,,,,,,,,,,,,,,1,v,0.5207,0,1,4.4793,1,,,,,,25.65316415,0,0.079652925,,,,,,,,,,,,,0,91,91,109,1,0.90568168,0,,,,,,,,,,,,,,,,,,,,,,,,,,,,,,,,,,,,,,,,,,,,,,,,,,,,,,,,,,,,,,,,,,,,,,,,,,,,,,,,
,,62feca471af7bb3aeaaaa588,2022-09-08_12h10.24.392,CGTgamblingSpanTasks,2022.2.1,MacIntel,59.99160118,,,,,,,,3.2471,,,,,,,,,,,,,,1,v,0.7529,27.38828234,1,4.7471,1.5,,,,,,27.38828234,0,0.0639233,,,,,,,,,,,,,0,92,92,43,1,0.914010176,0,,,,,,,,,,,,,,,,,,,,,,,,,,,,,,,,,,,,,,,,,,,,,,,,,,,,,,,,,,,,,,,,,,,,,,,,,,,,,,,,
,,62feca471af7bb3aeaaaa588,2022-09-08_12h10.24.392,CGTgamblingSpanTasks,2022.2.1,MacIntel,59.99160118,,,,,,,,3.1976,,,,,,,,,,,,,,2,n,0.8024,4.941039335,1,4.1976,1,,,,,,4.941039335,0,5.683635938,,,,,,,,,,,,,0,93,93,9,1,0.025481984,0,,,,,,,,,,,,,,,,,,,,,,,,,,,,,,,,,,,,,,,,,,,,,,,,,,,,,,,,,,,,,,,,,,,,,,,,,,,,,,,,
,,62feca471af7bb3aeaaaa588,2022-09-08_12h10.24.392,CGTgamblingSpanTasks,2022.2.1,MacIntel,59.99160118,,,,,,,,3.1647,,,,,,,,,,,,,,1,v,0.8353,0,1,4.1647,1,,,,,,18.20422443,0,1.635040165,,,,,,,,,,,,,0,94,94,82,1,0.525708991,1,,,,,,,,,,,,,,,,,,,,,,,,,,,,,,,,,,,,,,,,,,,,,,,,,,,,,,,,,,,,,,,,,,,,,,,,,,,,,,,,
,,62feca471af7bb3aeaaaa588,2022-09-08_12h10.24.392,CGTgamblingSpanTasks,2022.2.1,MacIntel,59.99160118,,,,,,,,3.2648,,,,,,,,,,,,,,1,v,0.7352,27.39221343,1,4.7648,1.5,,,,,,27.39221343,0,2.743407746,,,,,,,,,,,,,0,95,95,47,1,0.49752044,1,,,,,,,,,,,,,,,,,,,,,,,,,,,,,,,,,,,,,,,,,,,,,,,,,,,,,,,,,,,,,,,,,,,,,,,,,,,,,,,,
,,62feca471af7bb3aeaaaa588,2022-09-08_12h10.24.392,CGTgamblingSpanTasks,2022.2.1,MacIntel,59.99160118,,,,,,,,3.2316,,,,,,,,,,,,,,2,n,0.7684,26.11188619,1,4.7316,1.5,,,,,,26.11188619,0,0.081942421,,,,,,,,,,,,,0,96,96,105,1,0.905343856,0,,,,,,,,,,,,,,,,,,,,,,,,,,,,,,,,,,,,,,,,,,,,,,,,,,,,,,,,,,,,,,,,,,,,,,,,,,,,,,,,
,,62feca471af7bb3aeaaaa588,2022-09-08_12h10.24.392,CGTgamblingSpanTasks,2022.2.1,MacIntel,59.99160118,,,,,,,,3.2962,,,,,,,,,,,,,,1,v,0.7038,0,1,4.2962,1,,,,,,27.12325385,0,0.080932047,,,,,,,,,,,,,0,97,97,14,1,0.906929184,0,,,,,,,,,,,,,,,,,,,,,,,,,,,,,,,,,,,,,,,,,,,,,,,,,,,,,,,,,,,,,,,,,,,,,,,,,,,,,,,,
,,62feca471af7bb3aeaaaa588,2022-09-08_12h10.24.392,CGTgamblingSpanTasks,2022.2.1,MacIntel,59.99160118,,,,,,,,3.3811,,,,,,,,,,,,,,2,n,0.6189,0,1,4.8811,1.5,,,,,,21.00799273,0,0.067969053,,,,,,,,,,,,,0,98,98,92,1,0.904360262,0,,,,,,,,,,,,,,,,,,,,,,,,,,,,,,,,,,,,,,,,,,,,,,,,,,,,,,,,,,,,,,,,,,,,,,,,,,,,,,,,
,,62feca471af7bb3aeaaaa588,2022-09-08_12h10.24.392,CGTgamblingSpanTasks,2022.2.1,MacIntel,59.99160118,,,,,,,,3.2637,,,,,,,,,,,,,,1,v,0.7363,0,1,4.2637,1,,,,,,15.43649625,0,1.65459324,,,,,,,,,,,,,0,99,99,33,1,0.479480163,1,,,,,,,,,,,,,,,,,,,,,,,,,,,,,,,,,,,,,,,,,,,,,,,,,,,,,,,,,,,,,,,,,,,,,,,,,,,,,,,,
,,62feca471af7bb3aeaaaa588,2022-09-08_12h10.24.392,CGTgamblingSpanTasks,2022.2.1,MacIntel,59.99160118,,,,,,,,3.4636,,,,,,,,,,,,,,1,v,0.5364,0,1,4.9636,1.5,,,,,,28.33977875,0,2.768313633,,,,,,,,,,,,,0,100,100,116,1,0.50406901,1,,,,,,,,,,,,,,,,,,,,,,,,,,,,,,,,,,,,,,,,,,,,,,,,,,,,,,,,,,,,,,,,,,,,,,,,,,,,,,,,
,,62feca471af7bb3aeaaaa588,2022-09-08_12h10.24.392,CGTgamblingSpanTasks,2022.2.1,MacIntel,59.99160118,,,,,,,,3.3639,,,,,,,,,,,,,,1,v,0.6361,19.30622782,1,4.8639,1.5,,,,,,19.30622782,0,10.31611309,,,,,,,,,,,,,0,101,101,1,1,0.091105656,0,,,,,,,,,,,,,,,,,,,,,,,,,,,,,,,,,,,,,,,,,,,,,,,,,,,,,,,,,,,,,,,,,,,,,,,,,,,,,,,,
,,62feca471af7bb3aeaaaa588,2022-09-08_12h10.24.392,CGTgamblingSpanTasks,2022.2.1,MacIntel,59.99160118,,,,,,,,3.1556,,,,,,,,,,,,,,1,v,0.8444,9.725876653,1,4.1556,1,,,,,,9.725876653,0,5.526483034,,,,,,,,,,,,,0,102,102,44,1,0.082550696,0,,,,,,,,,,,,,,,,,,,,,,,,,,,,,,,,,,,,,,,,,,,,,,,,,,,,,,,,,,,,,,,,,,,,,,,,,,,,,,,,
,,62feca471af7bb3aeaaaa588,2022-09-08_12h10.24.392,CGTgamblingSpanTasks,2022.2.1,MacIntel,59.99160118,,,,,,,,3.2131,,,,,,,,,,,,,,2,n,0.7869,28.9323758,1,4.7131,1.5,,,,,,28.9323758,0,2.893007023,,,,,,,,,,,,,0,103,103,11,1,0.497943321,1,,,,,,,,,,,,,,,,,,,,,,,,,,,,,,,,,,,,,,,,,,,,,,,,,,,,,,,,,,,,,,,,,,,,,,,,,,,,,,,,
,,62feca471af7bb3aeaaaa588,2022-09-08_12h10.24.392,CGTgamblingSpanTasks,2022.2.1,MacIntel,59.99160118,,,,,,,,3.3631,,,,,,,,,,,,,,2,n,0.6369,21.17800335,1,4.8631,1.5,,,,,,21.17800335,0,0.059830985,,,,,,,,,,,,,0,104,104,67,1,0.908594974,0,,,,,,,,,,,,,,,,,,,,,,,,,,,,,,,,,,,,,,,,,,,,,,,,,,,,,,,,,,,,,,,,,,,,,,,,,,,,,,,,
,,62feca471af7bb3aeaaaa588,2022-09-08_12h10.24.392,CGTgamblingSpanTasks,2022.2.1,MacIntel,59.99160118,,,,,,,,3.3584,,,,,,,,,,,,,,1,v,0.6416,0,1,4.8584,1.5,,,,,,13.84410806,0,1.535873964,,,,,,,,,,,,,0,105,105,88,1,0.470209002,1,,,,,,,,,,,,,,,,,,,,,,,,,,,,,,,,,,,,,,,,,,,,,,,,,,,,,,,,,,,,,,,,,,,,,,,,,,,,,,,,
,,62feca471af7bb3aeaaaa588,2022-09-08_12h10.24.392,CGTgamblingSpanTasks,2022.2.1,MacIntel,59.99160118,,,,,,,,3.0292,,,,,,,,,,,,,,1,v,0.9708,0,1,4.0292,1,,,,,,8.363821911,0,6.781500919,,,,,,,,,,,,,0,106,106,61,1,0.044227959,0,,,,,,,,,,,,,,,,,,,,,,,,,,,,,,,,,,,,,,,,,,,,,,,,,,,,,,,,,,,,,,,,,,,,,,,,,,,,,,,,
,,62feca471af7bb3aeaaaa588,2022-09-08_12h10.24.392,CGTgamblingSpanTasks,2022.2.1,MacIntel,59.99160118,,,,,,,,3.2147,,,,,,,,,,,,,,2,n,0.7853,19.5450126,1,4.2147,1,,,,,,19.5450126,0,2.123581464,,,,,,,,,,,,,0,107,107,65,1,0.475836144,1,,,,,,,,,,,,,,,,,,,,,,,,,,,,,,,,,,,,,,,,,,,,,,,,,,,,,,,,,,,,,,,,,,,,,,,,,,,,,,,,
,,62feca471af7bb3aeaaaa588,2022-09-08_12h10.24.392,CGTgamblingSpanTasks,2022.2.1,MacIntel,59.99160118,,,,,,,,2.6436,,,,,,,,,,,,,,2,v,1.3564,8.512335864,0,3.6436,1,,,,,,10.05300841,0,8.512335864,,,,,,,,,,,,,0,108,108,74,1,0.040729225,0,,,,,,,,,,,,,,,,,,,,,,,,,,,,,,,,,,,,,,,,,,,,,,,,,,,,,,,,,,,,,,,,,,,,,,,,,,,,,,,,
,,62feca471af7bb3aeaaaa588,2022-09-08_12h10.24.392,CGTgamblingSpanTasks,2022.2.1,MacIntel,59.99160118,,,,,,,,3.1934,,,,,,,,,,,,,,2,v,0.8066,7.646213173,0,4.1934,1,,,,,,2.042350179,0,7.646213173,,,,,,,,,,,,,0,109,109,53,1,0.009522273,0,,,,,,,,,,,,,,,,,,,,,,,,,,,,,,,,,,,,,,,,,,,,,,,,,,,,,,,,,,,,,,,,,,,,,,,,,,,,,,,,
,,62feca471af7bb3aeaaaa588,2022-09-08_12h10.24.392,CGTgamblingSpanTasks,2022.2.1,MacIntel,59.99160118,,,,,,,,3.3473,,,,,,,,,,,,,,1,v,0.6527,26.4985979,1,4.8473,1.5,,,,,,26.4985979,0,0.051324376,,,,,,,,,,,,,0,110,110,106,1,0.918747215,0,,,,,,,,,,,,,,,,,,,,,,,,,,,,,,,,,,,,,,,,,,,,,,,,,,,,,,,,,,,,,,,,,,,,,,,,,,,,,,,,
,,62feca471af7bb3aeaaaa588,2022-09-08_12h10.24.392,CGTgamblingSpanTasks,2022.2.1,MacIntel,59.99160118,,,,,,,,3.4966,,,,,,,,,,,,,,1,v,0.5034,0,1,4.4966,1,,,,,,29.30724159,0,3.247012935,,,,,,,,,,,,,0,111,111,71,1,0.470571125,1,,,,,,,,,,,,,,,,,,,,,,,,,,,,,,,,,,,,,,,,,,,,,,,,,,,,,,,,,,,,,,,,,,,,,,,,,,,,,,,,
,,62feca471af7bb3aeaaaa588,2022-09-08_12h10.24.392,CGTgamblingSpanTasks,2022.2.1,MacIntel,59.99160118,,,,,,,,3.2622,,,,,,,,,,,,,,2,n,0.7378,0,1,4.7622,1.5,,,,,,17.23907308,0,2.055848574,,,,,,,,,,,,,0,112,112,66,1,0.450504458,1,,,,,,,,,,,,,,,,,,,,,,,,,,,,,,,,,,,,,,,,,,,,,,,,,,,,,,,,,,,,,,,,,,,,,,,,,,,,,,,,
,,62feca471af7bb3aeaaaa588,2022-09-08_12h10.24.392,CGTgamblingSpanTasks,2022.2.1,MacIntel,59.99160118,,,,,,,,3.507,,,,,,,,,,,,,,1,v,0.493,0,1,5.007,1.5,,,,,,25.21882231,0,0.085746782,,,,,,,,,,,,,0,113,113,64,1,0.90272076,0,,,,,,,,,,,,,,,,,,,,,,,,,,,,,,,,,,,,,,,,,,,,,,,,,,,,,,,,,,,,,,,,,,,,,,,,,,,,,,,,
,,62feca471af7bb3aeaaaa588,2022-09-08_12h10.24.392,CGTgamblingSpanTasks,2022.2.1,MacIntel,59.99160118,,,,,,,,2.9142,,,,,,,,,,,,,,2,v,1.0858,4.904872644,0,4.4142,1.5,,,,,,4.698775357,0,4.904872644,,,,,,,,,,,,,0,114,114,75,1,0.028064484,0,,,,,,,,,,,,,,,,,,,,,,,,,,,,,,,,,,,,,,,,,,,,,,,,,,,,,,,,,,,,,,,,,,,,,,,,,,,,,,,,
,,62feca471af7bb3aeaaaa588,2022-09-08_12h10.24.392,CGTgamblingSpanTasks,2022.2.1,MacIntel,59.99160118,,,,,,,,3.331,,,,,,,,,,,,,,1,v,0.669,0,1,4.331,1,,,,,,29.77342428,0,2.838865588,,,,,,,,,,,,,0,115,115,57,1,0.510363415,1,,,,,,,,,,,,,,,,,,,,,,,,,,,,,,,,,,,,,,,,,,,,,,,,,,,,,,,,,,,,,,,,,,,,,,,,,,,,,,,,
,,62feca471af7bb3aeaaaa588,2022-09-08_12h10.24.392,CGTgamblingSpanTasks,2022.2.1,MacIntel,59.99160118,,,,,,,,3.0975,,,,,,,,,,,,,,1,v,0.9025,0,1,4.5975,1.5,,,,,,19.3050342,0,2.030232342,,,,,,,,,,,,,0,116,116,73,1,0.484573227,1,,,,,,,,,,,,,,,,,,,,,,,,,,,,,,,,,,,,,,,,,,,,,,,,,,,,,,,,,,,,,,,,,,,,,,,,,,,,,,,,
,,62feca471af7bb3aeaaaa588,2022-09-08_12h10.24.392,CGTgamblingSpanTasks,2022.2.1,MacIntel,59.99160118,,,,,,,,3.1808,,,,,,,,,,,,,,1,v,0.8192,20.5726842,1,4.6808,1.5,,,,,,20.5726842,0,0.073558523,,,,,,,,,,,,,0,117,117,26,1,0.901008565,0,,,,,,,,,,,,,,,,,,,,,,,,,,,,,,,,,,,,,,,,,,,,,,,,,,,,,,,,,,,,,,,,,,,,,,,,,,,,,,,,
,,62feca471af7bb3aeaaaa588,2022-09-08_12h10.24.392,CGTgamblingSpanTasks,2022.2.1,MacIntel,59.99160118,,,,,,,,3.2098,,,,,,,,,,,,,,1,v,0.7902,0,1,4.7098,1.5,,,,,,15.73000491,0,8.830252162,,,,,,,,,,,,,0,118,118,95,1,0.084193143,0,,,,,,,,,,,,,,,,,,,,,,,,,,,,,,,,,,,,,,,,,,,,,,,,,,,,,,,,,,,,,,,,,,,,,,,,,,,,,,,,
,,62feca471af7bb3aeaaaa588,2022-09-08_12h10.24.392,CGTgamblingSpanTasks,2022.2.1,MacIntel,59.99160118,,,,,,,,3.3954,,,,,,,,,,,,,,2,n,0.6046,28.94627214,1,4.3954,1,,,,,,28.94627214,0,2.701896413,,,,,,,,,,,,,0,119,119,111,1,0.515860759,1,,,,,,,,,,,,,,,,,,,,,,,,,,,,,,,,,,,,,,,,,,,,,,,,,,,,,,,,,,,,,,,,,,,,,,,,,,,,,,,,
,,62feca471af7bb3aeaaaa588,2022-09-08_12h10.24.392,CGTgamblingSpanTasks,2022.2.1,MacIntel,59.99160118,,,,,,,,,,,,,,,,,,,,,,,,,,,,,,,,,,,,,,,,,,,,,,,,,,,,,,,,return,7.0752,,,,,,,,,,,,,,,,,,,,,,,,,,,,,,,,,,,,,,,,,,,,,,,,,,,,,,,,,,,,,,,,,,,,,,,,,,,,,,
,,62feca471af7bb3aeaaaa588,2022-09-08_12h10.24.392,CGTgamblingSpanTasks,2022.2.1,MacIntel,59.99160118,,,,,,,,,,,,,,,,,,,,,,,,,,,,,,,,,,,,,,,,,,,,,,,,,,,,,,,,,,return,32.9782,,,,,,,,,,,,,,,,,,,,,,,,,,,,,,,,,,,,,,,,,,,,,,,,,,,,,,,,,,,,,,,,,,,,,,,,,,,,
,,62feca471af7bb3aeaaaa588,2022-09-08_12h10.24.392,CGTgamblingSpanTasks,2022.2.1,MacIntel,59.99160118,,,,,,,,,,,,,,,,,,,,,,,,,,,,,,,,,,,,,,,,,,,,,,,,,,,,,,,,,,,,return,11.7747,,,,,,,,,,,,,,,,,,,,,,,,,,,,,,,,,,,,,,,,,,,,,,,,,,,,,,,,,,,,,,,,,,,,,,,,,,
,,62feca471af7bb3aeaaaa588,2022-09-08_12h10.24.392,CGTgamblingSpanTasks,2022.2.1,MacIntel,59.99160118,,,,,,,,,,,,,,,,,,,,,,,,,,,,,,,,,,,,,,,,,,,,,,,,,,,,,,,,,,,,,,342,1,-0.011292725,-0.400798679,1,0,0,cont_buttonPractice,0,0,0,0,1,3,342,24,2,42,,,,,,,,,,,,,,,,,,,,,,,,,,,,,,,,,,,,,,,,,,,,,,,,,,,,,,,,
,,62feca471af7bb3aeaaaa588,2022-09-08_12h10.24.392,CGTgamblingSpanTasks,2022.2.1,MacIntel,59.99160118,,,,,,,,,,,,,,,,,,,,,,,,,,,,,,,,,,,,,,,,,,,,,,,,,,,,,,,,,,,,,,937,1,-0.03010376,-0.415099623,1,0,0,cont_buttonPractice,0,1,1,1,1,3,937,73,2,37,,,,,,,,,,,,,,,,,,,,,,,,,,,,,,,,,,,,,,,,,,,,,,,,,,,,,,,,
,,62feca471af7bb3aeaaaa588,2022-09-08_12h10.24.392,CGTgamblingSpanTasks,2022.2.1,MacIntel,59.99160118,,,,,,,,,,,,,,,,,,,,,,,,,,,,,,,,,,,,,,,,,,,,,,,,,,,,,,,,,,,,,,,,,,,,,,,,,,,,,,,,return,26.2575,,,,,,,,,,,,,,,,,,,,,,,,,,,,,,,,,,,,,,,,,,,,,,,,,,,,,,
,,62feca471af7bb3aeaaaa588,2022-09-08_12h10.24.392,CGTgamblingSpanTasks,2022.2.1,MacIntel,59.99160118,,,,,,,,,,,,,,,,,,,,,,,,,,,,,,,,,,,,,,,,,,,,,,,,,,,,,,,,,,,,,,,,,,,,,,,,,,,,,,,,,,"[5,8,4]",0,0,0,0,1,,,,,,,,,,,,,,,,,,,,,,,,,,,,,,,,,,,,,,,,,,,,,,,,
,,62feca471af7bb3aeaaaa588,2022-09-08_12h10.24.392,CGTgamblingSpanTasks,2022.2.1,MacIntel,59.99160118,,,,,,,,,,,,,,,,,,,,,,,,,,,,,,,,,,,,,,,,,,,,,,,,,,,,,,,,,,,,,,,,,,,,,,,,,,,,,,,,,,"[5,8,4]",1,0,1,0,1,,,,,,,,,,,,,,,,,,,,,,,,,,,,,,,,,,,,,,,,,,,,,,,,
,,62feca471af7bb3aeaaaa588,2022-09-08_12h10.24.392,CGTgamblingSpanTasks,2022.2.1,MacIntel,59.99160118,,,,,,,,,,,,,,,,,,,,,,,,,,,,,,,,,,,,,,,,,,,,,,,,,,,,,,,,,,,,,,,,,,,,,,,,,,,,,,,,,,"[5,8,4]",2,0,2,0,1,,,,,,,,,,,,,,,,,,,,,,,,,,,,,,,,,,,,,,,,,,,,,,,,
,,62feca471af7bb3aeaaaa588,2022-09-08_12h10.24.392,CGTgamblingSpanTasks,2022.2.1,MacIntel,59.99160118,,,,,,,,,,,,,,,,,,,,,,,,,,,,,,,,,,,,,,,,,,,,,,,,,,,,,,,,,,,,,,,1,,,,,,,,,,,,,,,,,,,,,,,,,584,-0.0316352,-0.410303141,1,0,0,cont_button,0,0,0,0,1,1,,,,,,,,,,,,,,,,,,,,,,,,,,,,,,,,,,,
,,62feca471af7bb3aeaaaa588,2022-09-08_12h10.24.392,CGTgamblingSpanTasks,2022.2.1,MacIntel,59.99160118,,,,,,,,,,,,,,,,,,,,,,,,,,,,,,,,,,,,,,,,,,,,,,,,,,,,,,,,,,,,,,,,,,,,,,,,,,,,,,,,,,"[6,7,4,5]",0,0,0,0,1,,,,,,,,,,,,,,,,,,,,,,,,,,,,,,,,,,,,,,,,,,,,,,,,
,,62feca471af7bb3aeaaaa588,2022-09-08_12h10.24.392,CGTgamblingSpanTasks,2022.2.1,MacIntel,59.99160118,,,,,,,,,,,,,,,,,,,,,,,,,,,,,,,,,,,,,,,,,,,,,,,,,,,,,,,,,,,,,,,,,,,,,,,,,,,,,,,,,,"[6,7,4,5]",1,0,1,0,1,,,,,,,,,,,,,,,,,,,,,,,,,,,,,,,,,,,,,,,,,,,,,,,,
,,62feca471af7bb3aeaaaa588,2022-09-08_12h10.24.392,CGTgamblingSpanTasks,2022.2.1,MacIntel,59.99160118,,,,,,,,,,,,,,,,,,,,,,,,,,,,,,,,,,,,,,,,,,,,,,,,,,,,,,,,,,,,,,,,,,,,,,,,,,,,,,,,,,"[6,7,4,5]",2,0,2,0,1,,,,,,,,,,,,,,,,,,,,,,,,,,,,,,,,,,,,,,,,,,,,,,,,
,,62feca471af7bb3aeaaaa588,2022-09-08_12h10.24.392,CGTgamblingSpanTasks,2022.2.1,MacIntel,59.99160118,,,,,,,,,,,,,,,,,,,,,,,,,,,,,,,,,,,,,,,,,,,,,,,,,,,,,,,,,,,,,,,,,,,,,,,,,,,,,,,,,,"[6,7,4,5]",3,0,3,0,1,,,,,,,,,,,,,,,,,,,,,,,,,,,,,,,,,,,,,,,,,,,,,,,,
,,62feca471af7bb3aeaaaa588,2022-09-08_12h10.24.392,CGTgamblingSpanTasks,2022.2.1,MacIntel,59.99160118,,,,,,,,,,,,,,,,,,,,,,,,,,,,,,,,,,,,,,,,,,,,,,,,,,,,,,,,,,,,,,,1,,,,,,,,,,,,,,,,,,,,,,,,,6745,-0.018370972,-0.387762858,1,0,0,cont_button,0,1,1,1,1,2,,,,,,,,,,,,,,,,,,,,,,,,,,,,,,,,,,,
,,62feca471af7bb3aeaaaa588,2022-09-08_12h10.24.392,CGTgamblingSpanTasks,2022.2.1,MacIntel,59.99160118,,,,,,,,,,,,,,,,,,,,,,,,,,,,,,,,,,,,,,,,,,,,,,,,,,,,,,,,,,,,,,,,,,,,,,,,,,,,,,,,,,"[6,2,7,9,5]",0,0,0,0,1,,,,,,,,,,,,,,,,,,,,,,,,,,,,,,,,,,,,,,,,,,,,,,,,
,,62feca471af7bb3aeaaaa588,2022-09-08_12h10.24.392,CGTgamblingSpanTasks,2022.2.1,MacIntel,59.99160118,,,,,,,,,,,,,,,,,,,,,,,,,,,,,,,,,,,,,,,,,,,,,,,,,,,,,,,,,,,,,,,,,,,,,,,,,,,,,,,,,,"[6,2,7,9,5]",1,0,1,0,1,,,,,,,,,,,,,,,,,,,,,,,,,,,,,,,,,,,,,,,,,,,,,,,,
,,62feca471af7bb3aeaaaa588,2022-09-08_12h10.24.392,CGTgamblingSpanTasks,2022.2.1,MacIntel,59.99160118,,,,,,,,,,,,,,,,,,,,,,,,,,,,,,,,,,,,,,,,,,,,,,,,,,,,,,,,,,,,,,,,,,,,,,,,,,,,,,,,,,"[6,2,7,9,5]",2,0,2,0,1,,,,,,,,,,,,,,,,,,,,,,,,,,,,,,,,,,,,,,,,,,,,,,,,
,,62feca471af7bb3aeaaaa588,2022-09-08_12h10.24.392,CGTgamblingSpanTasks,2022.2.1,MacIntel,59.99160118,,,,,,,,,,,,,,,,,,,,,,,,,,,,,,,,,,,,,,,,,,,,,,,,,,,,,,,,,,,,,,,,,,,,,,,,,,,,,,,,,,"[6,2,7,9,5]",3,0,3,0,1,,,,,,,,,,,,,,,,,,,,,,,,,,,,,,,,,,,,,,,,,,,,,,,,
,,62feca471af7bb3aeaaaa588,2022-09-08_12h10.24.392,CGTgamblingSpanTasks,2022.2.1,MacIntel,59.99160118,,,,,,,,,,,,,,,,,,,,,,,,,,,,,,,,,,,,,,,,,,,,,,,,,,,,,,,,,,,,,,,,,,,,,,,,,,,,,,,,,,"[6,2,7,9,5]",4,0,4,0,1,,,,,,,,,,,,,,,,,,,,,,,,,,,,,,,,,,,,,,,,,,,,,,,,
,,62feca471af7bb3aeaaaa588,2022-09-08_12h10.24.392,CGTgamblingSpanTasks,2022.2.1,MacIntel,59.99160118,,,,,,,,,,,,,,,,,,,,,,,,,,,,,,,,,,,,,,,,,,,,,,,,,,,,,,,,,,,,,,,1,,,,,,,,,,,,,,,,,,,,,,,,,62795,0.008759155,-0.412526788,1,0,0,cont_button,0,2,2,2,1,3,,,,,,,,,,,,,,,,,,,,,,,,,,,,,,,,,,,
,,62feca471af7bb3aeaaaa588,2022-09-08_12h10.24.392,CGTgamblingSpanTasks,2022.2.1,MacIntel,59.99160118,,,,,,,,,,,,,,,,,,,,,,,,,,,,,,,,,,,,,,,,,,,,,,,,,,,,,,,,,,,,,,,,,,,,,,,,,,,,,,,,,,"[3,1,6,8,4,7]",0,0,0,0,1,,,,,,,,,,,,,,,,,,,,,,,,,,,,,,,,,,,,,,,,,,,,,,,,
,,62feca471af7bb3aeaaaa588,2022-09-08_12h10.24.392,CGTgamblingSpanTasks,2022.2.1,MacIntel,59.99160118,,,,,,,,,,,,,,,,,,,,,,,,,,,,,,,,,,,,,,,,,,,,,,,,,,,,,,,,,,,,,,,,,,,,,,,,,,,,,,,,,,"[3,1,6,8,4,7]",1,0,1,0,1,,,,,,,,,,,,,,,,,,,,,,,,,,,,,,,,,,,,,,,,,,,,,,,,
,,62feca471af7bb3aeaaaa588,2022-09-08_12h10.24.392,CGTgamblingSpanTasks,2022.2.1,MacIntel,59.99160118,,,,,,,,,,,,,,,,,,,,,,,,,,,,,,,,,,,,,,,,,,,,,,,,,,,,,,,,,,,,,,,,,,,,,,,,,,,,,,,,,,"[3,1,6,8,4,7]",2,0,2,0,1,,,,,,,,,,,,,,,,,,,,,,,,,,,,,,,,,,,,,,,,,,,,,,,,
,,62feca471af7bb3aeaaaa588,2022-09-08_12h10.24.392,CGTgamblingSpanTasks,2022.2.1,MacIntel,59.99160118,,,,,,,,,,,,,,,,,,,,,,,,,,,,,,,,,,,,,,,,,,,,,,,,,,,,,,,,,,,,,,,,,,,,,,,,,,,,,,,,,,"[3,1,6,8,4,7]",3,0,3,0,1,,,,,,,,,,,,,,,,,,,,,,,,,,,,,,,,,,,,,,,,,,,,,,,,
,,62feca471af7bb3aeaaaa588,2022-09-08_12h10.24.392,CGTgamblingSpanTasks,2022.2.1,MacIntel,59.99160118,,,,,,,,,,,,,,,,,,,,,,,,,,,,,,,,,,,,,,,,,,,,,,,,,,,,,,,,,,,,,,,,,,,,,,,,,,,,,,,,,,"[3,1,6,8,4,7]",4,0,4,0,1,,,,,,,,,,,,,,,,,,,,,,,,,,,,,,,,,,,,,,,,,,,,,,,,
,,62feca471af7bb3aeaaaa588,2022-09-08_12h10.24.392,CGTgamblingSpanTasks,2022.2.1,MacIntel,59.99160118,,,,,,,,,,,,,,,,,,,,,,,,,,,,,,,,,,,,,,,,,,,,,,,,,,,,,,,,,,,,,,,,,,,,,,,,,,,,,,,,,,"[3,1,6,8,4,7]",5,0,5,0,1,,,,,,,,,,,,,,,,,,,,,,,,,,,,,,,,,,,,,,,,,,,,,,,,
,,62feca471af7bb3aeaaaa588,2022-09-08_12h10.24.392,CGTgamblingSpanTasks,2022.2.1,MacIntel,59.99160118,,,,,,,,,,,,,,,,,,,,,,,,,,,,,,,,,,,,,,,,,,,,,,,,,,,,,,,,,,,,,,,1,,,,,,,,,,,,,,,,,,,,,,,,,316847,-0.001131321,-0.393248427,1,0,0,cont_button,0,3,3,3,1,4,,,,,,,,,,,,,,,,,,,,,,,,,,,,,,,,,,,
,,62feca471af7bb3aeaaaa588,2022-09-08_12h10.24.392,CGTgamblingSpanTasks,2022.2.1,MacIntel,59.99160118,,,,,,,,,,,,,,,,,,,,,,,,,,,,,,,,,,,,,,,,,,,,,,,,,,,,,,,,,,,,,,,,,,,,,,,,,,,,,,,,,,"[3,8,4,6,1,2,9]",0,0,0,0,1,,,,,,,,,,,,,,,,,,,,,,,,,,,,,,,,,,,,,,,,,,,,,,,,
,,62feca471af7bb3aeaaaa588,2022-09-08_12h10.24.392,CGTgamblingSpanTasks,2022.2.1,MacIntel,59.99160118,,,,,,,,,,,,,,,,,,,,,,,,,,,,,,,,,,,,,,,,,,,,,,,,,,,,,,,,,,,,,,,,,,,,,,,,,,,,,,,,,,"[3,8,4,6,1,2,9]",1,0,1,0,1,,,,,,,,,,,,,,,,,,,,,,,,,,,,,,,,,,,,,,,,,,,,,,,,
,,62feca471af7bb3aeaaaa588,2022-09-08_12h10.24.392,CGTgamblingSpanTasks,2022.2.1,MacIntel,59.99160118,,,,,,,,,,,,,,,,,,,,,,,,,,,,,,,,,,,,,,,,,,,,,,,,,,,,,,,,,,,,,,,,,,,,,,,,,,,,,,,,,,"[3,8,4,6,1,2,9]",2,0,2,0,1,,,,,,,,,,,,,,,,,,,,,,,,,,,,,,,,,,,,,,,,,,,,,,,,
,,62feca471af7bb3aeaaaa588,2022-09-08_12h10.24.392,CGTgamblingSpanTasks,2022.2.1,MacIntel,59.99160118,,,,,,,,,,,,,,,,,,,,,,,,,,,,,,,,,,,,,,,,,,,,,,,,,,,,,,,,,,,,,,,,,,,,,,,,,,,,,,,,,,"[3,8,4,6,1,2,9]",3,0,3,0,1,,,,,,,,,,,,,,,,,,,,,,,,,,,,,,,,,,,,,,,,,,,,,,,,
,,62feca471af7bb3aeaaaa588,2022-09-08_12h10.24.392,CGTgamblingSpanTasks,2022.2.1,MacIntel,59.99160118,,,,,,,,,,,,,,,,,,,,,,,,,,,,,,,,,,,,,,,,,,,,,,,,,,,,,,,,,,,,,,,,,,,,,,,,,,,,,,,,,,"[3,8,4,6,1,2,9]",4,0,4,0,1,,,,,,,,,,,,,,,,,,,,,,,,,,,,,,,,,,,,,,,,,,,,,,,,
,,62feca471af7bb3aeaaaa588,2022-09-08_12h10.24.392,CGTgamblingSpanTasks,2022.2.1,MacIntel,59.99160118,,,,,,,,,,,,,,,,,,,,,,,,,,,,,,,,,,,,,,,,,,,,,,,,,,,,,,,,,,,,,,,,,,,,,,,,,,,,,,,,,,"[3,8,4,6,1,2,9]",5,0,5,0,1,,,,,,,,,,,,,,,,,,,,,,,,,,,,,,,,,,,,,,,,,,,,,,,,
,,62feca471af7bb3aeaaaa588,2022-09-08_12h10.24.392,CGTgamblingSpanTasks,2022.2.1,MacIntel,59.99160118,,,,,,,,,,,,,,,,,,,,,,,,,,,,,,,,,,,,,,,,,,,,,,,,,,,,,,,,,,,,,,,,,,,,,,,,,,,,,,,,,,"[3,8,4,6,1,2,9]",6,0,6,0,1,,,,,,,,,,,,,,,,,,,,,,,,,,,,,,,,,,,,,,,,,,,,,,,,
,,62feca471af7bb3aeaaaa588,2022-09-08_12h10.24.392,CGTgamblingSpanTasks,2022.2.1,MacIntel,59.99160118,,,,,,,,,,,,,,,,,,,,,,,,,,,,,,,,,,,,,,,,,,,,,,,,,,,,,,,,,,,,,,,1,,,,,,,,,,,,,,,,,,,,,,,,,3846129,0.014583266,-0.391941325,1,0,0,cont_button,0,4,4,4,1,5,,,,,,,,,,,,,,,,,,,,,,,,,,,,,,,,,,,
,,62feca471af7bb3aeaaaa588,2022-09-08_12h10.24.392,CGTgamblingSpanTasks,2022.2.1,MacIntel,59.99160118,,,,,,,,,,,,,,,,,,,,,,,,,,,,,,,,,,,,,,,,,,,,,,,,,,,,,,,,,,,,,,,,,,,,,,,,,,,,,,,,,,"[9,3,4,8,2,6,5,7]",0,0,0,0,1,,,,,,,,,,,,,,,,,,,,,,,,,,,,,,,,,,,,,,,,,,,,,,,,
,,62feca471af7bb3aeaaaa588,2022-09-08_12h10.24.392,CGTgamblingSpanTasks,2022.2.1,MacIntel,59.99160118,,,,,,,,,,,,,,,,,,,,,,,,,,,,,,,,,,,,,,,,,,,,,,,,,,,,,,,,,,,,,,,,,,,,,,,,,,,,,,,,,,"[9,3,4,8,2,6,5,7]",1,0,1,0,1,,,,,,,,,,,,,,,,,,,,,,,,,,,,,,,,,,,,,,,,,,,,,,,,
,,62feca471af7bb3aeaaaa588,2022-09-08_12h10.24.392,CGTgamblingSpanTasks,2022.2.1,MacIntel,59.99160118,,,,,,,,,,,,,,,,,,,,,,,,,,,,,,,,,,,,,,,,,,,,,,,,,,,,,,,,,,,,,,,,,,,,,,,,,,,,,,,,,,"[9,3,4,8,2,6,5,7]",2,0,2,0,1,,,,,,,,,,,,,,,,,,,,,,,,,,,,,,,,,,,,,,,,,,,,,,,,
,,62feca471af7bb3aeaaaa588,2022-09-08_12h10.24.392,CGTgamblingSpanTasks,2022.2.1,MacIntel,59.99160118,,,,,,,,,,,,,,,,,,,,,,,,,,,,,,,,,,,,,,,,,,,,,,,,,,,,,,,,,,,,,,,,,,,,,,,,,,,,,,,,,,"[9,3,4,8,2,6,5,7]",3,0,3,0,1,,,,,,,,,,,,,,,,,,,,,,,,,,,,,,,,,,,,,,,,,,,,,,,,
,,62feca471af7bb3aeaaaa588,2022-09-08_12h10.24.392,CGTgamblingSpanTasks,2022.2.1,MacIntel,59.99160118,,,,,,,,,,,,,,,,,,,,,,,,,,,,,,,,,,,,,,,,,,,,,,,,,,,,,,,,,,,,,,,,,,,,,,,,,,,,,,,,,,"[9,3,4,8,2,6,5,7]",4,0,4,0,1,,,,,,,,,,,,,,,,,,,,,,,,,,,,,,,,,,,,,,,,,,,,,,,,
,,62feca471af7bb3aeaaaa588,2022-09-08_12h10.24.392,CGTgamblingSpanTasks,2022.2.1,MacIntel,59.99160118,,,,,,,,,,,,,,,,,,,,,,,,,,,,,,,,,,,,,,,,,,,,,,,,,,,,,,,,,,,,,,,,,,,,,,,,,,,,,,,,,,"[9,3,4,8,2,6,5,7]",5,0,5,0,1,,,,,,,,,,,,,,,,,,,,,,,,,,,,,,,,,,,,,,,,,,,,,,,,
,,62feca471af7bb3aeaaaa588,2022-09-08_12h10.24.392,CGTgamblingSpanTasks,2022.2.1,MacIntel,59.99160118,,,,,,,,,,,,,,,,,,,,,,,,,,,,,,,,,,,,,,,,,,,,,,,,,,,,,,,,,,,,,,,,,,,,,,,,,,,,,,,,,,"[9,3,4,8,2,6,5,7]",6,0,6,0,1,,,,,,,,,,,,,,,,,,,,,,,,,,,,,,,,,,,,,,,,,,,,,,,,
,,62feca471af7bb3aeaaaa588,2022-09-08_12h10.24.392,CGTgamblingSpanTasks,2022.2.1,MacIntel,59.99160118,,,,,,,,,,,,,,,,,,,,,,,,,,,,,,,,,,,,,,,,,,,,,,,,,,,,,,,,,,,,,,,,,,,,,,,,,,,,,,,,,,"[9,3,4,8,2,6,5,7]",7,0,7,0,1,,,,,,,,,,,,,,,,,,,,,,,,,,,,,,,,,,,,,,,,,,,,,,,,
,,62feca471af7bb3aeaaaa588,2022-09-08_12h10.24.392,CGTgamblingSpanTasks,2022.2.1,MacIntel,59.99160118,,,,,,,,,,,,,,,,,,,,,,,,,,,,,,,,,,,,,,,,,,,,,,,,,,,,,,,,,,,,,,,0,,,,,,,,,,,,,,,,,,,,,,,,,93486257,0.013706936,-0.390430027,1,0,0,cont_button,0,5,5,5,1,6,,,,,,,,,,,,,,,,,,,,,,,,,,,,,,,,,,,
,,62feca471af7bb3aeaaaa588,2022-09-08_12h10.24.392,CGTgamblingSpanTasks,2022.2.1,MacIntel,59.99160118,,,,,,,,,,,,,,,,,,,,,,,,,,,,,,,,,,,,,,,,,,,,,,,,,,,,,,,,,,,,,,,,,,,,,,,,,,,,,,,,,,"[8,2,4,6,9,5,3,1]",0,0,0,0,1,,,,,,,,,,,,,,,,,,,,,,,,,,,,,,,,,,,,,,,,,,,,,,,,
,,62feca471af7bb3aeaaaa588,2022-09-08_12h10.24.392,CGTgamblingSpanTasks,2022.2.1,MacIntel,59.99160118,,,,,,,,,,,,,,,,,,,,,,,,,,,,,,,,,,,,,,,,,,,,,,,,,,,,,,,,,,,,,,,,,,,,,,,,,,,,,,,,,,"[8,2,4,6,9,5,3,1]",1,0,1,0,1,,,,,,,,,,,,,,,,,,,,,,,,,,,,,,,,,,,,,,,,,,,,,,,,
,,62feca471af7bb3aeaaaa588,2022-09-08_12h10.24.392,CGTgamblingSpanTasks,2022.2.1,MacIntel,59.99160118,,,,,,,,,,,,,,,,,,,,,,,,,,,,,,,,,,,,,,,,,,,,,,,,,,,,,,,,,,,,,,,,,,,,,,,,,,,,,,,,,,"[8,2,4,6,9,5,3,1]",2,0,2,0,1,,,,,,,,,,,,,,,,,,,,,,,,,,,,,,,,,,,,,,,,,,,,,,,,
,,62feca471af7bb3aeaaaa588,2022-09-08_12h10.24.392,CGTgamblingSpanTasks,2022.2.1,MacIntel,59.99160118,,,,,,,,,,,,,,,,,,,,,,,,,,,,,,,,,,,,,,,,,,,,,,,,,,,,,,,,,,,,,,,,,,,,,,,,,,,,,,,,,,"[8,2,4,6,9,5,3,1]",3,0,3,0,1,,,,,,,,,,,,,,,,,,,,,,,,,,,,,,,,,,,,,,,,,,,,,,,,
,,62feca471af7bb3aeaaaa588,2022-09-08_12h10.24.392,CGTgamblingSpanTasks,2022.2.1,MacIntel,59.99160118,,,,,,,,,,,,,,,,,,,,,,,,,,,,,,,,,,,,,,,,,,,,,,,,,,,,,,,,,,,,,,,,,,,,,,,,,,,,,,,,,,"[8,2,4,6,9,5,3,1]",4,0,4,0,1,,,,,,,,,,,,,,,,,,,,,,,,,,,,,,,,,,,,,,,,,,,,,,,,
,,62feca471af7bb3aeaaaa588,2022-09-08_12h10.24.392,CGTgamblingSpanTasks,2022.2.1,MacIntel,59.99160118,,,,,,,,,,,,,,,,,,,,,,,,,,,,,,,,,,,,,,,,,,,,,,,,,,,,,,,,,,,,,,,,,,,,,,,,,,,,,,,,,,"[8,2,4,6,9,5,3,1]",5,0,5,0,1,,,,,,,,,,,,,,,,,,,,,,,,,,,,,,,,,,,,,,,,,,,,,,,,
,,62feca471af7bb3aeaaaa588,2022-09-08_12h10.24.392,CGTgamblingSpanTasks,2022.2.1,MacIntel,59.99160118,,,,,,,,,,,,,,,,,,,,,,,,,,,,,,,,,,,,,,,,,,,,,,,,,,,,,,,,,,,,,,,,,,,,,,,,,,,,,,,,,,"[8,2,4,6,9,5,3,1]",6,0,6,0,1,,,,,,,,,,,,,,,,,,,,,,,,,,,,,,,,,,,,,,,,,,,,,,,,
,,62feca471af7bb3aeaaaa588,2022-09-08_12h10.24.392,CGTgamblingSpanTasks,2022.2.1,MacIntel,59.99160118,,,,,,,,,,,,,,,,,,,,,,,,,,,,,,,,,,,,,,,,,,,,,,,,,,,,,,,,,,,,,,,,,,,,,,,,,,,,,,,,,,"[8,2,4,6,9,5,3,1]",7,0,7,0,1,,,,,,,,,,,,,,,,,,,,,,,,,,,,,,,,,,,,,,,,,,,,,,,,
,,62feca471af7bb3aeaaaa588,2022-09-08_12h10.24.392,CGTgamblingSpanTasks,2022.2.1,MacIntel,59.99160118,,,,,,,,,,,,,,,,,,,,,,,,,,,,,,,,,,,,,,,,,,,,,,,,,,,,,,,,,,,,,,,1,,,,,,,,,,,,,,,,,,,,,,,,,82469531,-0.008245646,-0.389948459,1,0,0,cont_button,0,6,6,6,1,7,,,,,,,,,,,,,,,,,,,,,,,,,,,,,,,,,,,
,,62feca471af7bb3aeaaaa588,2022-09-08_12h10.24.392,CGTgamblingSpanTasks,2022.2.1,MacIntel,59.99160118,,,,,,,,,,,,,,,,,,,,,,,,,,,,,,,,,,,,,,,,,,,,,,,,,,,,,,,,,,,,,,,,,,,,,,,,,,,,,,,,,,"[6,2,8,7,5,1,9,4,3]",0,0,0,0,1,,,,,,,,,,,,,,,,,,,,,,,,,,,,,,,,,,,,,,,,,,,,,,,,
,,62feca471af7bb3aeaaaa588,2022-09-08_12h10.24.392,CGTgamblingSpanTasks,2022.2.1,MacIntel,59.99160118,,,,,,,,,,,,,,,,,,,,,,,,,,,,,,,,,,,,,,,,,,,,,,,,,,,,,,,,,,,,,,,,,,,,,,,,,,,,,,,,,,"[6,2,8,7,5,1,9,4,3]",1,0,1,0,1,,,,,,,,,,,,,,,,,,,,,,,,,,,,,,,,,,,,,,,,,,,,,,,,
,,62feca471af7bb3aeaaaa588,2022-09-08_12h10.24.392,CGTgamblingSpanTasks,2022.2.1,MacIntel,59.99160118,,,,,,,,,,,,,,,,,,,,,,,,,,,,,,,,,,,,,,,,,,,,,,,,,,,,,,,,,,,,,,,,,,,,,,,,,,,,,,,,,,"[6,2,8,7,5,1,9,4,3]",2,0,2,0,1,,,,,,,,,,,,,,,,,,,,,,,,,,,,,,,,,,,,,,,,,,,,,,,,
,,62feca471af7bb3aeaaaa588,2022-09-08_12h10.24.392,CGTgamblingSpanTasks,2022.2.1,MacIntel,59.99160118,,,,,,,,,,,,,,,,,,,,,,,,,,,,,,,,,,,,,,,,,,,,,,,,,,,,,,,,,,,,,,,,,,,,,,,,,,,,,,,,,,"[6,2,8,7,5,1,9,4,3]",3,0,3,0,1,,,,,,,,,,,,,,,,,,,,,,,,,,,,,,,,,,,,,,,,,,,,,,,,
,,62feca471af7bb3aeaaaa588,2022-09-08_12h10.24.392,CGTgamblingSpanTasks,2022.2.1,MacIntel,59.99160118,,,,,,,,,,,,,,,,,,,,,,,,,,,,,,,,,,,,,,,,,,,,,,,,,,,,,,,,,,,,,,,,,,,,,,,,,,,,,,,,,,"[6,2,8,7,5,1,9,4,3]",4,0,4,0,1,,,,,,,,,,,,,,,,,,,,,,,,,,,,,,,,,,,,,,,,,,,,,,,,
,,62feca471af7bb3aeaaaa588,2022-09-08_12h10.24.392,CGTgamblingSpanTasks,2022.2.1,MacIntel,59.99160118,,,,,,,,,,,,,,,,,,,,,,,,,,,,,,,,,,,,,,,,,,,,,,,,,,,,,,,,,,,,,,,,,,,,,,,,,,,,,,,,,,"[6,2,8,7,5,1,9,4,3]",5,0,5,0,1,,,,,,,,,,,,,,,,,,,,,,,,,,,,,,,,,,,,,,,,,,,,,,,,
,,62feca471af7bb3aeaaaa588,2022-09-08_12h10.24.392,CGTgamblingSpanTasks,2022.2.1,MacIntel,59.99160118,,,,,,,,,,,,,,,,,,,,,,,,,,,,,,,,,,,,,,,,,,,,,,,,,,,,,,,,,,,,,,,,,,,,,,,,,,,,,,,,,,"[6,2,8,7,5,1,9,4,3]",6,0,6,0,1,,,,,,,,,,,,,,,,,,,,,,,,,,,,,,,,,,,,,,,,,,,,,,,,
,,62feca471af7bb3aeaaaa588,2022-09-08_12h10.24.392,CGTgamblingSpanTasks,2022.2.1,MacIntel,59.99160118,,,,,,,,,,,,,,,,,,,,,,,,,,,,,,,,,,,,,,,,,,,,,,,,,,,,,,,,,,,,,,,,,,,,,,,,,,,,,,,,,,"[6,2,8,7,5,1,9,4,3]",7,0,7,0,1,,,,,,,,,,,,,,,,,,,,,,,,,,,,,,,,,,,,,,,,,,,,,,,,
,,62feca471af7bb3aeaaaa588,2022-09-08_12h10.24.392,CGTgamblingSpanTasks,2022.2.1,MacIntel,59.99160118,,,,,,,,,,,,,,,,,,,,,,,,,,,,,,,,,,,,,,,,,,,,,,,,,,,,,,,,,,,,,,,,,,,,,,,,,,,,,,,,,,"[6,2,8,7,5,1,9,4,3]",8,0,8,0,1,,,,,,,,,,,,,,,,,,,,,,,,,,,,,,,,,,,,,,,,,,,,,,,,
,,62feca471af7bb3aeaaaa588,2022-09-08_12h10.24.392,CGTgamblingSpanTasks,2022.2.1,MacIntel,59.99160118,,,,,,,,,,,,,,,,,,,,,,,,,,,,,,,,,,,,,,,,,,,,,,,,,,,,,,,,,,,,,,,0,,,,,,,,,,,,,,,,,,,,,,,,,62875931,-0.007403293,-0.383148939,1,0,0,cont_button,0,7,7,7,1,8,,,,,,,,,,,,,,,,,,,,,,,,,,,,,,,,,,,
,,62feca471af7bb3aeaaaa588,2022-09-08_12h10.24.392,CGTgamblingSpanTasks,2022.2.1,MacIntel,59.99160118,,,,,,,,,,,,,,,,,,,,,,,,,,,,,,,,,,,,,,,,,,,,,,,,,,,,,,,,,,,,,,,,,,,,,,,,,,,,,,,,,,"[4,8,5,9,6,2,1,7,3]",0,0,0,0,1,,,,,,,,,,,,,,,,,,,,,,,,,,,,,,,,,,,,,,,,,,,,,,,,
,,62feca471af7bb3aeaaaa588,2022-09-08_12h10.24.392,CGTgamblingSpanTasks,2022.2.1,MacIntel,59.99160118,,,,,,,,,,,,,,,,,,,,,,,,,,,,,,,,,,,,,,,,,,,,,,,,,,,,,,,,,,,,,,,,,,,,,,,,,,,,,,,,,,"[4,8,5,9,6,2,1,7,3]",1,0,1,0,1,,,,,,,,,,,,,,,,,,,,,,,,,,,,,,,,,,,,,,,,,,,,,,,,
,,62feca471af7bb3aeaaaa588,2022-09-08_12h10.24.392,CGTgamblingSpanTasks,2022.2.1,MacIntel,59.99160118,,,,,,,,,,,,,,,,,,,,,,,,,,,,,,,,,,,,,,,,,,,,,,,,,,,,,,,,,,,,,,,,,,,,,,,,,,,,,,,,,,"[4,8,5,9,6,2,1,7,3]",2,0,2,0,1,,,,,,,,,,,,,,,,,,,,,,,,,,,,,,,,,,,,,,,,,,,,,,,,
,,62feca471af7bb3aeaaaa588,2022-09-08_12h10.24.392,CGTgamblingSpanTasks,2022.2.1,MacIntel,59.99160118,,,,,,,,,,,,,,,,,,,,,,,,,,,,,,,,,,,,,,,,,,,,,,,,,,,,,,,,,,,,,,,,,,,,,,,,,,,,,,,,,,"[4,8,5,9,6,2,1,7,3]",3,0,3,0,1,,,,,,,,,,,,,,,,,,,,,,,,,,,,,,,,,,,,,,,,,,,,,,,,
,,62feca471af7bb3aeaaaa588,2022-09-08_12h10.24.392,CGTgamblingSpanTasks,2022.2.1,MacIntel,59.99160118,,,,,,,,,,,,,,,,,,,,,,,,,,,,,,,,,,,,,,,,,,,,,,,,,,,,,,,,,,,,,,,,,,,,,,,,,,,,,,,,,,"[4,8,5,9,6,2,1,7,3]",4,0,4,0,1,,,,,,,,,,,,,,,,,,,,,,,,,,,,,,,,,,,,,,,,,,,,,,,,
,,62feca471af7bb3aeaaaa588,2022-09-08_12h10.24.392,CGTgamblingSpanTasks,2022.2.1,MacIntel,59.99160118,,,,,,,,,,,,,,,,,,,,,,,,,,,,,,,,,,,,,,,,,,,,,,,,,,,,,,,,,,,,,,,,,,,,,,,,,,,,,,,,,,"[4,8,5,9,6,2,1,7,3]",5,0,5,0,1,,,,,,,,,,,,,,,,,,,,,,,,,,,,,,,,,,,,,,,,,,,,,,,,
,,62feca471af7bb3aeaaaa588,2022-09-08_12h10.24.392,CGTgamblingSpanTasks,2022.2.1,MacIntel,59.99160118,,,,,,,,,,,,,,,,,,,,,,,,,,,,,,,,,,,,,,,,,,,,,,,,,,,,,,,,,,,,,,,,,,,,,,,,,,,,,,,,,,"[4,8,5,9,6,2,1,7,3]",6,0,6,0,1,,,,,,,,,,,,,,,,,,,,,,,,,,,,,,,,,,,,,,,,,,,,,,,,
,,62feca471af7bb3aeaaaa588,2022-09-08_12h10.24.392,CGTgamblingSpanTasks,2022.2.1,MacIntel,59.99160118,,,,,,,,,,,,,,,,,,,,,,,,,,,,,,,,,,,,,,,,,,,,,,,,,,,,,,,,,,,,,,,,,,,,,,,,,,,,,,,,,,"[4,8,5,9,6,2,1,7,3]",7,0,7,0,1,,,,,,,,,,,,,,,,,,,,,,,,,,,,,,,,,,,,,,,,,,,,,,,,
,,62feca471af7bb3aeaaaa588,2022-09-08_12h10.24.392,CGTgamblingSpanTasks,2022.2.1,MacIntel,59.99160118,,,,,,,,,,,,,,,,,,,,,,,,,,,,,,,,,,,,,,,,,,,,,,,,,,,,,,,,,,,,,,,,,,,,,,,,,,,,,,,,,,"[4,8,5,9,6,2,1,7,3]",8,0,8,0,1,,,,,,,,,,,,,,,,,,,,,,,,,,,,,,,,,,,,,,,,,,,,,,,,
,,62feca471af7bb3aeaaaa588,2022-09-08_12h10.24.392,CGTgamblingSpanTasks,2022.2.1,MacIntel,59.99160118,,,,,,,,,,,,,,,,,,,,,,,,,,,,,,,,,,,,,,,,,,,,,,,,,,,,,,,,,,,,,,,1,,,,,,,,,,,,,,,,,,,,,,,,,485962173,-0.01820204,-0.394901394,1,0,0,cont_button,0,8,8,8,1,9,,,,,,,,,,,,,,,,,,,,,,,,,,,,,,,,,,,
,,62feca471af7bb3aeaaaa588,2022-09-08_12h10.24.392,CGTgamblingSpanTasks,2022.2.1,MacIntel,59.99160118,,,,,,,,,,,,,,,,,,,,,,,,,,,,,,,,,,,,,,,,,,,,,,,,,,,,,,,,,,,,,,,,,,,,,,,,,,,,,,,,,,"[1,3,4,2,6,5,8,7,9,9]",0,0,0,0,1,,,,,,,,,,,,,,,,,,,,,,,,,,,,,,,,,,,,,,,,,,,,,,,,
,,62feca471af7bb3aeaaaa588,2022-09-08_12h10.24.392,CGTgamblingSpanTasks,2022.2.1,MacIntel,59.99160118,,,,,,,,,,,,,,,,,,,,,,,,,,,,,,,,,,,,,,,,,,,,,,,,,,,,,,,,,,,,,,,,,,,,,,,,,,,,,,,,,,"[1,3,4,2,6,5,8,7,9,9]",1,0,1,0,1,,,,,,,,,,,,,,,,,,,,,,,,,,,,,,,,,,,,,,,,,,,,,,,,
,,62feca471af7bb3aeaaaa588,2022-09-08_12h10.24.392,CGTgamblingSpanTasks,2022.2.1,MacIntel,59.99160118,,,,,,,,,,,,,,,,,,,,,,,,,,,,,,,,,,,,,,,,,,,,,,,,,,,,,,,,,,,,,,,,,,,,,,,,,,,,,,,,,,"[1,3,4,2,6,5,8,7,9,9]",2,0,2,0,1,,,,,,,,,,,,,,,,,,,,,,,,,,,,,,,,,,,,,,,,,,,,,,,,
,,62feca471af7bb3aeaaaa588,2022-09-08_12h10.24.392,CGTgamblingSpanTasks,2022.2.1,MacIntel,59.99160118,,,,,,,,,,,,,,,,,,,,,,,,,,,,,,,,,,,,,,,,,,,,,,,,,,,,,,,,,,,,,,,,,,,,,,,,,,,,,,,,,,"[1,3,4,2,6,5,8,7,9,9]",3,0,3,0,1,,,,,,,,,,,,,,,,,,,,,,,,,,,,,,,,,,,,,,,,,,,,,,,,
,,62feca471af7bb3aeaaaa588,2022-09-08_12h10.24.392,CGTgamblingSpanTasks,2022.2.1,MacIntel,59.99160118,,,,,,,,,,,,,,,,,,,,,,,,,,,,,,,,,,,,,,,,,,,,,,,,,,,,,,,,,,,,,,,,,,,,,,,,,,,,,,,,,,"[1,3,4,2,6,5,8,7,9,9]",4,0,4,0,1,,,,,,,,,,,,,,,,,,,,,,,,,,,,,,,,,,,,,,,,,,,,,,,,
,,62feca471af7bb3aeaaaa588,2022-09-08_12h10.24.392,CGTgamblingSpanTasks,2022.2.1,MacIntel,59.99160118,,,,,,,,,,,,,,,,,,,,,,,,,,,,,,,,,,,,,,,,,,,,,,,,,,,,,,,,,,,,,,,,,,,,,,,,,,,,,,,,,,"[1,3,4,2,6,5,8,7,9,9]",5,0,5,0,1,,,,,,,,,,,,,,,,,,,,,,,,,,,,,,,,,,,,,,,,,,,,,,,,
,,62feca471af7bb3aeaaaa588,2022-09-08_12h10.24.392,CGTgamblingSpanTasks,2022.2.1,MacIntel,59.99160118,,,,,,,,,,,,,,,,,,,,,,,,,,,,,,,,,,,,,,,,,,,,,,,,,,,,,,,,,,,,,,,,,,,,,,,,,,,,,,,,,,"[1,3,4,2,6,5,8,7,9,9]",6,0,6,0,1,,,,,,,,,,,,,,,,,,,,,,,,,,,,,,,,,,,,,,,,,,,,,,,,
,,62feca471af7bb3aeaaaa588,2022-09-08_12h10.24.392,CGTgamblingSpanTasks,2022.2.1,MacIntel,59.99160118,,,,,,,,,,,,,,,,,,,,,,,,,,,,,,,,,,,,,,,,,,,,,,,,,,,,,,,,,,,,,,,,,,,,,,,,,,,,,,,,,,"[1,3,4,2,6,5,8,7,9,9]",7,0,7,0,1,,,,,,,,,,,,,,,,,,,,,,,,,,,,,,,,,,,,,,,,,,,,,,,,
,,62feca471af7bb3aeaaaa588,2022-09-08_12h10.24.392,CGTgamblingSpanTasks,2022.2.1,MacIntel,59.99160118,,,,,,,,,,,,,,,,,,,,,,,,,,,,,,,,,,,,,,,,,,,,,,,,,,,,,,,,,,,,,,,,,,,,,,,,,,,,,,,,,,"[1,3,4,2,6,5,8,7,9,9]",8,0,8,0,1,,,,,,,,,,,,,,,,,,,,,,,,,,,,,,,,,,,,,,,,,,,,,,,,
,,62feca471af7bb3aeaaaa588,2022-09-08_12h10.24.392,CGTgamblingSpanTasks,2022.2.1,MacIntel,59.99160118,,,,,,,,,,,,,,,,,,,,,,,,,,,,,,,,,,,,,,,,,,,,,,,,,,,,,,,,,,,,,,,,,,,,,,,,,,,,,,,,,,"[1,3,4,2,6,5,8,7,9,9]",9,0,9,0,1,,,,,,,,,,,,,,,,,,,,,,,,,,,,,,,,,,,,,,,,,,,,,,,,
,,62feca471af7bb3aeaaaa588,2022-09-08_12h10.24.392,CGTgamblingSpanTasks,2022.2.1,MacIntel,59.99160118,,,,,,,,,,,,,,,,,,,,,,,,,,,,,,,,,,,,,,,,,,,,,,,,,,,,,,,,,,,,,,,0,,,,,,,,,,,,,,,,,,,,,,,,,1324657899,-0.037337918,-0.411436022,1,0,0,cont_button,0,9,9,9,1,10,,,,,,,,,,,,,,,,,,,,,,,,,,,,,,,,,,,
,,62feca471af7bb3aeaaaa588,2022-09-08_12h10.24.392,CGTgamblingSpanTasks,2022.2.1,MacIntel,59.99160118,,,,,,,,,,,,,,,,,,,,,,,,,,,,,,,,,,,,,,,,,,,,,,,,,,,,,,,,,,,,,,,,,,,,,,,,,,,,,,,,,,"[7,1,9,5,6,4,2,8,3,3]",0,0,0,0,1,,,,,,,,,,,,,,,,,,,,,,,,,,,,,,,,,,,,,,,,,,,,,,,,
,,62feca471af7bb3aeaaaa588,2022-09-08_12h10.24.392,CGTgamblingSpanTasks,2022.2.1,MacIntel,59.99160118,,,,,,,,,,,,,,,,,,,,,,,,,,,,,,,,,,,,,,,,,,,,,,,,,,,,,,,,,,,,,,,,,,,,,,,,,,,,,,,,,,"[7,1,9,5,6,4,2,8,3,3]",1,0,1,0,1,,,,,,,,,,,,,,,,,,,,,,,,,,,,,,,,,,,,,,,,,,,,,,,,
,,62feca471af7bb3aeaaaa588,2022-09-08_12h10.24.392,CGTgamblingSpanTasks,2022.2.1,MacIntel,59.99160118,,,,,,,,,,,,,,,,,,,,,,,,,,,,,,,,,,,,,,,,,,,,,,,,,,,,,,,,,,,,,,,,,,,,,,,,,,,,,,,,,,"[7,1,9,5,6,4,2,8,3,3]",2,0,2,0,1,,,,,,,,,,,,,,,,,,,,,,,,,,,,,,,,,,,,,,,,,,,,,,,,
,,62feca471af7bb3aeaaaa588,2022-09-08_12h10.24.392,CGTgamblingSpanTasks,2022.2.1,MacIntel,59.99160118,,,,,,,,,,,,,,,,,,,,,,,,,,,,,,,,,,,,,,,,,,,,,,,,,,,,,,,,,,,,,,,,,,,,,,,,,,,,,,,,,,"[7,1,9,5,6,4,2,8,3,3]",3,0,3,0,1,,,,,,,,,,,,,,,,,,,,,,,,,,,,,,,,,,,,,,,,,,,,,,,,
,,62feca471af7bb3aeaaaa588,2022-09-08_12h10.24.392,CGTgamblingSpanTasks,2022.2.1,MacIntel,59.99160118,,,,,,,,,,,,,,,,,,,,,,,,,,,,,,,,,,,,,,,,,,,,,,,,,,,,,,,,,,,,,,,,,,,,,,,,,,,,,,,,,,"[7,1,9,5,6,4,2,8,3,3]",4,0,4,0,1,,,,,,,,,,,,,,,,,,,,,,,,,,,,,,,,,,,,,,,,,,,,,,,,
,,62feca471af7bb3aeaaaa588,2022-09-08_12h10.24.392,CGTgamblingSpanTasks,2022.2.1,MacIntel,59.99160118,,,,,,,,,,,,,,,,,,,,,,,,,,,,,,,,,,,,,,,,,,,,,,,,,,,,,,,,,,,,,,,,,,,,,,,,,,,,,,,,,,"[7,1,9,5,6,4,2,8,3,3]",5,0,5,0,1,,,,,,,,,,,,,,,,,,,,,,,,,,,,,,,,,,,,,,,,,,,,,,,,
,,62feca471af7bb3aeaaaa588,2022-09-08_12h10.24.392,CGTgamblingSpanTasks,2022.2.1,MacIntel,59.99160118,,,,,,,,,,,,,,,,,,,,,,,,,,,,,,,,,,,,,,,,,,,,,,,,,,,,,,,,,,,,,,,,,,,,,,,,,,,,,,,,,,"[7,1,9,5,6,4,2,8,3,3]",6,0,6,0,1,,,,,,,,,,,,,,,,,,,,,,,,,,,,,,,,,,,,,,,,,,,,,,,,
,,62feca471af7bb3aeaaaa588,2022-09-08_12h10.24.392,CGTgamblingSpanTasks,2022.2.1,MacIntel,59.99160118,,,,,,,,,,,,,,,,,,,,,,,,,,,,,,,,,,,,,,,,,,,,,,,,,,,,,,,,,,,,,,,,,,,,,,,,,,,,,,,,,,"[7,1,9,5,6,4,2,8,3,3]",7,0,7,0,1,,,,,,,,,,,,,,,,,,,,,,,,,,,,,,,,,,,,,,,,,,,,,,,,
,,62feca471af7bb3aeaaaa588,2022-09-08_12h10.24.392,CGTgamblingSpanTasks,2022.2.1,MacIntel,59.99160118,,,,,,,,,,,,,,,,,,,,,,,,,,,,,,,,,,,,,,,,,,,,,,,,,,,,,,,,,,,,,,,,,,,,,,,,,,,,,,,,,,"[7,1,9,5,6,4,2,8,3,3]",8,0,8,0,1,,,,,,,,,,,,,,,,,,,,,,,,,,,,,,,,,,,,,,,,,,,,,,,,
,,62feca471af7bb3aeaaaa588,2022-09-08_12h10.24.392,CGTgamblingSpanTasks,2022.2.1,MacIntel,59.99160118,,,,,,,,,,,,,,,,,,,,,,,,,,,,,,,,,,,,,,,,,,,,,,,,,,,,,,,,,,,,,,,,,,,,,,,,,,,,,,,,,,"[7,1,9,5,6,4,2,8,3,3]",9,0,9,0,1,,,,,,,,,,,,,,,,,,,,,,,,,,,,,,,,,,,,,,,,,,,,,,,,
,,62feca471af7bb3aeaaaa588,2022-09-08_12h10.24.392,CGTgamblingSpanTasks,2022.2.1,MacIntel,59.99160118,,,,,,,,,,,,,,,,,,,,,,,,,,,,,,,,,,,,,,,,,,,,,,,,,,,,,,,,,,,,,,,0,,,,,,,,,,,,,,,,,,,,,,,,,7196524833,-0.051755507,-0.395421821,1,0,0,cont_button,0,10,10,10,1,11,,,,,,,,,,,,,,,,,,,,,,,,,,,,,,,,,,,
,,62feca471af7bb3aeaaaa588,2022-09-08_12h10.24.392,CGTgamblingSpanTasks,2022.2.1,MacIntel,59.99160118,,,,,,,,,,,,,,,,,,,,,,,,,,,,,,,,,,,,,,,,,,,,,,,,,,,,,,,,,,,,,,,,,,,,,,,,,,,,,,,,,,"[2,5,3,1,6,7,9,8,4]",0,0,0,0,1,,,,,,,,,,,,,,,,,,,,,,,,,,,,,,,,,,,,,,,,,,,,,,,,
,,62feca471af7bb3aeaaaa588,2022-09-08_12h10.24.392,CGTgamblingSpanTasks,2022.2.1,MacIntel,59.99160118,,,,,,,,,,,,,,,,,,,,,,,,,,,,,,,,,,,,,,,,,,,,,,,,,,,,,,,,,,,,,,,,,,,,,,,,,,,,,,,,,,"[2,5,3,1,6,7,9,8,4]",1,0,1,0,1,,,,,,,,,,,,,,,,,,,,,,,,,,,,,,,,,,,,,,,,,,,,,,,,
,,62feca471af7bb3aeaaaa588,2022-09-08_12h10.24.392,CGTgamblingSpanTasks,2022.2.1,MacIntel,59.99160118,,,,,,,,,,,,,,,,,,,,,,,,,,,,,,,,,,,,,,,,,,,,,,,,,,,,,,,,,,,,,,,,,,,,,,,,,,,,,,,,,,"[2,5,3,1,6,7,9,8,4]",2,0,2,0,1,,,,,,,,,,,,,,,,,,,,,,,,,,,,,,,,,,,,,,,,,,,,,,,,
,,62feca471af7bb3aeaaaa588,2022-09-08_12h10.24.392,CGTgamblingSpanTasks,2022.2.1,MacIntel,59.99160118,,,,,,,,,,,,,,,,,,,,,,,,,,,,,,,,,,,,,,,,,,,,,,,,,,,,,,,,,,,,,,,,,,,,,,,,,,,,,,,,,,"[2,5,3,1,6,7,9,8,4]",3,0,3,0,1,,,,,,,,,,,,,,,,,,,,,,,,,,,,,,,,,,,,,,,,,,,,,,,,
,,62feca471af7bb3aeaaaa588,2022-09-08_12h10.24.392,CGTgamblingSpanTasks,2022.2.1,MacIntel,59.99160118,,,,,,,,,,,,,,,,,,,,,,,,,,,,,,,,,,,,,,,,,,,,,,,,,,,,,,,,,,,,,,,,,,,,,,,,,,,,,,,,,,"[2,5,3,1,6,7,9,8,4]",4,0,4,0,1,,,,,,,,,,,,,,,,,,,,,,,,,,,,,,,,,,,,,,,,,,,,,,,,
,,62feca471af7bb3aeaaaa588,2022-09-08_12h10.24.392,CGTgamblingSpanTasks,2022.2.1,MacIntel,59.99160118,,,,,,,,,,,,,,,,,,,,,,,,,,,,,,,,,,,,,,,,,,,,,,,,,,,,,,,,,,,,,,,,,,,,,,,,,,,,,,,,,,"[2,5,3,1,6,7,9,8,4]",5,0,5,0,1,,,,,,,,,,,,,,,,,,,,,,,,,,,,,,,,,,,,,,,,,,,,,,,,
,,62feca471af7bb3aeaaaa588,2022-09-08_12h10.24.392,CGTgamblingSpanTasks,2022.2.1,MacIntel,59.99160118,,,,,,,,,,,,,,,,,,,,,,,,,,,,,,,,,,,,,,,,,,,,,,,,,,,,,,,,,,,,,,,,,,,,,,,,,,,,,,,,,,"[2,5,3,1,6,7,9,8,4]",6,0,6,0,1,,,,,,,,,,,,,,,,,,,,,,,,,,,,,,,,,,,,,,,,,,,,,,,,
,,62feca471af7bb3aeaaaa588,2022-09-08_12h10.24.392,CGTgamblingSpanTasks,2022.2.1,MacIntel,59.99160118,,,,,,,,,,,,,,,,,,,,,,,,,,,,,,,,,,,,,,,,,,,,,,,,,,,,,,,,,,,,,,,,,,,,,,,,,,,,,,,,,,"[2,5,3,1,6,7,9,8,4]",7,0,7,0,1,,,,,,,,,,,,,,,,,,,,,,,,,,,,,,,,,,,,,,,,,,,,,,,,
,,62feca471af7bb3aeaaaa588,2022-09-08_12h10.24.392,CGTgamblingSpanTasks,2022.2.1,MacIntel,59.99160118,,,,,,,,,,,,,,,,,,,,,,,,,,,,,,,,,,,,,,,,,,,,,,,,,,,,,,,,,,,,,,,,,,,,,,,,,,,,,,,,,,"[2,5,3,1,6,7,9,8,4]",8,0,8,0,1,,,,,,,,,,,,,,,,,,,,,,,,,,,,,,,,,,,,,,,,,,,,,,,,
,,62feca471af7bb3aeaaaa588,2022-09-08_12h10.24.392,CGTgamblingSpanTasks,2022.2.1,MacIntel,59.99160118,,,,,,,,,,,,,,,,,,,,,,,,,,,,,,,,,,,,,,,,,,,,,,,,,,,,,,,,,,,,,,,1,,,,,,,,,,,,,,,,,,,,,,,,,253167984,-0.059441528,-0.38368042,1,0,0,cont_button,0,11,11,11,1,12,,,,,,,,,,,,,,,,,,,,,,,,,,,,,,,,,,,
,,62feca471af7bb3aeaaaa588,2022-09-08_12h10.24.392,CGTgamblingSpanTasks,2022.2.1,MacIntel,59.99160118,,,,,,,,,,,,,,,,,,,,,,,,,,,,,,,,,,,,,,,,,,,,,,,,,,,,,,,,,,,,,,,,,,,,,,,,,,,,,,,,,,"[5,1,6,8,3,7,2,4,9,9]",0,0,0,0,1,,,,,,,,,,,,,,,,,,,,,,,,,,,,,,,,,,,,,,,,,,,,,,,,
,,62feca471af7bb3aeaaaa588,2022-09-08_12h10.24.392,CGTgamblingSpanTasks,2022.2.1,MacIntel,59.99160118,,,,,,,,,,,,,,,,,,,,,,,,,,,,,,,,,,,,,,,,,,,,,,,,,,,,,,,,,,,,,,,,,,,,,,,,,,,,,,,,,,"[5,1,6,8,3,7,2,4,9,9]",1,0,1,0,1,,,,,,,,,,,,,,,,,,,,,,,,,,,,,,,,,,,,,,,,,,,,,,,,
,,62feca471af7bb3aeaaaa588,2022-09-08_12h10.24.392,CGTgamblingSpanTasks,2022.2.1,MacIntel,59.99160118,,,,,,,,,,,,,,,,,,,,,,,,,,,,,,,,,,,,,,,,,,,,,,,,,,,,,,,,,,,,,,,,,,,,,,,,,,,,,,,,,,"[5,1,6,8,3,7,2,4,9,9]",2,0,2,0,1,,,,,,,,,,,,,,,,,,,,,,,,,,,,,,,,,,,,,,,,,,,,,,,,
,,62feca471af7bb3aeaaaa588,2022-09-08_12h10.24.392,CGTgamblingSpanTasks,2022.2.1,MacIntel,59.99160118,,,,,,,,,,,,,,,,,,,,,,,,,,,,,,,,,,,,,,,,,,,,,,,,,,,,,,,,,,,,,,,,,,,,,,,,,,,,,,,,,,"[5,1,6,8,3,7,2,4,9,9]",3,0,3,0,1,,,,,,,,,,,,,,,,,,,,,,,,,,,,,,,,,,,,,,,,,,,,,,,,
,,62feca471af7bb3aeaaaa588,2022-09-08_12h10.24.392,CGTgamblingSpanTasks,2022.2.1,MacIntel,59.99160118,,,,,,,,,,,,,,,,,,,,,,,,,,,,,,,,,,,,,,,,,,,,,,,,,,,,,,,,,,,,,,,,,,,,,,,,,,,,,,,,,,"[5,1,6,8,3,7,2,4,9,9]",4,0,4,0,1,,,,,,,,,,,,,,,,,,,,,,,,,,,,,,,,,,,,,,,,,,,,,,,,
,,62feca471af7bb3aeaaaa588,2022-09-08_12h10.24.392,CGTgamblingSpanTasks,2022.2.1,MacIntel,59.99160118,,,,,,,,,,,,,,,,,,,,,,,,,,,,,,,,,,,,,,,,,,,,,,,,,,,,,,,,,,,,,,,,,,,,,,,,,,,,,,,,,,"[5,1,6,8,3,7,2,4,9,9]",5,0,5,0,1,,,,,,,,,,,,,,,,,,,,,,,,,,,,,,,,,,,,,,,,,,,,,,,,
,,62feca471af7bb3aeaaaa588,2022-09-08_12h10.24.392,CGTgamblingSpanTasks,2022.2.1,MacIntel,59.99160118,,,,,,,,,,,,,,,,,,,,,,,,,,,,,,,,,,,,,,,,,,,,,,,,,,,,,,,,,,,,,,,,,,,,,,,,,,,,,,,,,,"[5,1,6,8,3,7,2,4,9,9]",6,0,6,0,1,,,,,,,,,,,,,,,,,,,,,,,,,,,,,,,,,,,,,,,,,,,,,,,,
,,62feca471af7bb3aeaaaa588,2022-09-08_12h10.24.392,CGTgamblingSpanTasks,2022.2.1,MacIntel,59.99160118,,,,,,,,,,,,,,,,,,,,,,,,,,,,,,,,,,,,,,,,,,,,,,,,,,,,,,,,,,,,,,,,,,,,,,,,,,,,,,,,,,"[5,1,6,8,3,7,2,4,9,9]",7,0,7,0,1,,,,,,,,,,,,,,,,,,,,,,,,,,,,,,,,,,,,,,,,,,,,,,,,
,,62feca471af7bb3aeaaaa588,2022-09-08_12h10.24.392,CGTgamblingSpanTasks,2022.2.1,MacIntel,59.99160118,,,,,,,,,,,,,,,,,,,,,,,,,,,,,,,,,,,,,,,,,,,,,,,,,,,,,,,,,,,,,,,,,,,,,,,,,,,,,,,,,,"[5,1,6,8,3,7,2,4,9,9]",8,0,8,0,1,,,,,,,,,,,,,,,,,,,,,,,,,,,,,,,,,,,,,,,,,,,,,,,,
,,62feca471af7bb3aeaaaa588,2022-09-08_12h10.24.392,CGTgamblingSpanTasks,2022.2.1,MacIntel,59.99160118,,,,,,,,,,,,,,,,,,,,,,,,,,,,,,,,,,,,,,,,,,,,,,,,,,,,,,,,,,,,,,,,,,,,,,,,,,,,,,,,,,"[5,1,6,8,3,7,2,4,9,9]",9,0,9,0,1,,,,,,,,,,,,,,,,,,,,,,,,,,,,,,,,,,,,,,,,,,,,,,,,
,,62feca471af7bb3aeaaaa588,2022-09-08_12h10.24.392,CGTgamblingSpanTasks,2022.2.1,MacIntel,59.99160118,,,,,,,,,,,,,,,,,,,,,,,,,,,,,,,,,,,,,,,,,,,,,,,,,,,,,,,,,,,,,,,0,,,,,,,,,,,,,,,,,,,,,,,,,516837299,-0.020078464,-0.418641425,1,0,0,cont_button,0,12,12,12,1,13,,,,,,,,,,,,,,,,,,,,,,,,,,,,,,,,,,,
,,62feca471af7bb3aeaaaa588,2022-09-08_12h10.24.392,CGTgamblingSpanTasks,2022.2.1,MacIntel,59.99160118,,,,,,,,,,,,,,,,,,,,,,,,,,,,,,,,,,,,,,,,,,,,,,,,,,,,,,,,,,,,,,,,,,,,,,,,,,,,,,,,,,"[4,5,3,7,9,1,2,8,6,6]",0,0,0,0,1,,,,,,,,,,,,,,,,,,,,,,,,,,,,,,,,,,,,,,,,,,,,,,,,
,,62feca471af7bb3aeaaaa588,2022-09-08_12h10.24.392,CGTgamblingSpanTasks,2022.2.1,MacIntel,59.99160118,,,,,,,,,,,,,,,,,,,,,,,,,,,,,,,,,,,,,,,,,,,,,,,,,,,,,,,,,,,,,,,,,,,,,,,,,,,,,,,,,,"[4,5,3,7,9,1,2,8,6,6]",1,0,1,0,1,,,,,,,,,,,,,,,,,,,,,,,,,,,,,,,,,,,,,,,,,,,,,,,,
,,62feca471af7bb3aeaaaa588,2022-09-08_12h10.24.392,CGTgamblingSpanTasks,2022.2.1,MacIntel,59.99160118,,,,,,,,,,,,,,,,,,,,,,,,,,,,,,,,,,,,,,,,,,,,,,,,,,,,,,,,,,,,,,,,,,,,,,,,,,,,,,,,,,"[4,5,3,7,9,1,2,8,6,6]",2,0,2,0,1,,,,,,,,,,,,,,,,,,,,,,,,,,,,,,,,,,,,,,,,,,,,,,,,
,,62feca471af7bb3aeaaaa588,2022-09-08_12h10.24.392,CGTgamblingSpanTasks,2022.2.1,MacIntel,59.99160118,,,,,,,,,,,,,,,,,,,,,,,,,,,,,,,,,,,,,,,,,,,,,,,,,,,,,,,,,,,,,,,,,,,,,,,,,,,,,,,,,,"[4,5,3,7,9,1,2,8,6,6]",3,0,3,0,1,,,,,,,,,,,,,,,,,,,,,,,,,,,,,,,,,,,,,,,,,,,,,,,,
,,62feca471af7bb3aeaaaa588,2022-09-08_12h10.24.392,CGTgamblingSpanTasks,2022.2.1,MacIntel,59.99160118,,,,,,,,,,,,,,,,,,,,,,,,,,,,,,,,,,,,,,,,,,,,,,,,,,,,,,,,,,,,,,,,,,,,,,,,,,,,,,,,,,"[4,5,3,7,9,1,2,8,6,6]",4,0,4,0,1,,,,,,,,,,,,,,,,,,,,,,,,,,,,,,,,,,,,,,,,,,,,,,,,
,,62feca471af7bb3aeaaaa588,2022-09-08_12h10.24.392,CGTgamblingSpanTasks,2022.2.1,MacIntel,59.99160118,,,,,,,,,,,,,,,,,,,,,,,,,,,,,,,,,,,,,,,,,,,,,,,,,,,,,,,,,,,,,,,,,,,,,,,,,,,,,,,,,,"[4,5,3,7,9,1,2,8,6,6]",5,0,5,0,1,,,,,,,,,,,,,,,,,,,,,,,,,,,,,,,,,,,,,,,,,,,,,,,,
,,62feca471af7bb3aeaaaa588,2022-09-08_12h10.24.392,CGTgamblingSpanTasks,2022.2.1,MacIntel,59.99160118,,,,,,,,,,,,,,,,,,,,,,,,,,,,,,,,,,,,,,,,,,,,,,,,,,,,,,,,,,,,,,,,,,,,,,,,,,,,,,,,,,"[4,5,3,7,9,1,2,8,6,6]",6,0,6,0,1,,,,,,,,,,,,,,,,,,,,,,,,,,,,,,,,,,,,,,,,,,,,,,,,
,,62feca471af7bb3aeaaaa588,2022-09-08_12h10.24.392,CGTgamblingSpanTasks,2022.2.1,MacIntel,59.99160118,,,,,,,,,,,,,,,,,,,,,,,,,,,,,,,,,,,,,,,,,,,,,,,,,,,,,,,,,,,,,,,,,,,,,,,,,,,,,,,,,,"[4,5,3,7,9,1,2,8,6,6]",7,0,7,0,1,,,,,,,,,,,,,,,,,,,,,,,,,,,,,,,,,,,,,,,,,,,,,,,,
,,62feca471af7bb3aeaaaa588,2022-09-08_12h10.24.392,CGTgamblingSpanTasks,2022.2.1,MacIntel,59.99160118,,,,,,,,,,,,,,,,,,,,,,,,,,,,,,,,,,,,,,,,,,,,,,,,,,,,,,,,,,,,,,,,,,,,,,,,,,,,,,,,,,"[4,5,3,7,9,1,2,8,6,6]",8,0,8,0,1,,,,,,,,,,,,,,,,,,,,,,,,,,,,,,,,,,,,,,,,,,,,,,,,
,,62feca471af7bb3aeaaaa588,2022-09-08_12h10.24.392,CGTgamblingSpanTasks,2022.2.1,MacIntel,59.99160118,,,,,,,,,,,,,,,,,,,,,,,,,,,,,,,,,,,,,,,,,,,,,,,,,,,,,,,,,,,,,,,,,,,,,,,,,,,,,,,,,,"[4,5,3,7,9,1,2,8,6,6]",9,0,9,0,1,,,,,,,,,,,,,,,,,,,,,,,,,,,,,,,,,,,,,,,,,,,,,,,,
,,62feca471af7bb3aeaaaa588,2022-09-08_12h10.24.392,CGTgamblingSpanTasks,2022.2.1,MacIntel,59.99160118,,,,,,,,,,,,,,,,,,,,,,,,,,,,,,,,,,,,,,,,,,,,,,,,,,,,,,,,,,,,,,,1,,,,,,,,,,,,,,,,,,,,,,,,,4537912866,-0.044909668,-0.387711182,1,0,0,cont_button,0,13,13,13,1,14,,,,,,,,,,,,,,,,,,,,,,,,,,,,,,,,,,,
,,62feca471af7bb3aeaaaa588,2022-09-08_12h10.24.392,CGTgamblingSpanTasks,2022.2.1,MacIntel,59.99160118,,,,,,,,,,,,,,,,,,,,,,,,,,,,,,,,,,,,,,,,,,,,,,,,,,,,,,,,,,,,,,,,,,,,,,,,,,,,,,,,,,,,,,,,,,,,,,,,,,,,,return,1.8462,,,,,,,,,,,,,,,,,,,,,,,,,,,,,,,,,
,,62feca471af7bb3aeaaaa588,2022-09-08_12h10.24.392,CGTgamblingSpanTasks,2022.2.1,MacIntel,59.99160118,,,,,,,,,,,,,,,,,,,,,,,,,,,,,,,,,,,,,,,,,,,,,,,,,,,,,,,,,,,,,,,,,,,,,,,,,,,,,,,,,,,,,,,,,,,,,,,,,,,,,,,return,8.6253,,,,,,,,,,,,,,,,,,,,,,,,,,,,,,,
,,62feca471af7bb3aeaaaa588,2022-09-08_12h10.24.392,CGTgamblingSpanTasks,2022.2.1,MacIntel,59.99160118,,,,,,,,,,,,,,,,,,,,,,,,,,,,,,,,,,,,,,,,,,,,,,,,,,,,,,,,,,,,,,,1,,,,,,,,,,,,3,342,24,2,42,,,,,,,,,,,,,,,,,,,,,,,,,,42,-0.053859863,-0.400584378,1,0,0,cont_buttonPractice_2,0,0,0,0,1,,,,,,,,,,,,,,,,,,,
,,62feca471af7bb3aeaaaa588,2022-09-08_12h10.24.392,CGTgamblingSpanTasks,2022.2.1,MacIntel,59.99160118,,,,,,,,,,,,,,,,,,,,,,,,,,,,,,,,,,,,,,,,,,,,,,,,,,,,,,,,,,,,,,,1,,,,,,,,,,,,3,937,73,2,37,,,,,,,,,,,,,,,,,,,,,,,,,,37,-0.043850708,-0.406670125,1,0,0,cont_buttonPractice_2,0,1,1,1,1,,,,,,,,,,,,,,,,,,,
,,62feca471af7bb3aeaaaa588,2022-09-08_12h10.24.392,CGTgamblingSpanTasks,2022.2.1,MacIntel,59.99160118,,,,,,,,,,,,,,,,,,,,,,,,,,,,,,,,,,,,,,,,,,,,,,,,,,,,,,,,,,,,,,,,,,,,,,,,,,,,,,,,,,,,,,,,,,,,,,,,,,,,,,,,,,,,,,,,,,,,,return,7.3089,,,,,,,,,,,,,,,,,
,,62feca471af7bb3aeaaaa588,2022-09-08_12h10.24.392,CGTgamblingSpanTasks,2022.2.1,MacIntel,59.99160118,,,,,,,,,,,,,,,,,,,,,,,,,,,,,,,,,,,,,,,,,,,,,,,,,,,,,,,,,,,,,,,,,,,,,,,,,,,,,,,,,,"[6,5]",,,,,,,,,,,,,,,,,,,,,,,,,,,,,,,,,,,,,0,0,0,0,1,,,,,,,,,,,,
,,62feca471af7bb3aeaaaa588,2022-09-08_12h10.24.392,CGTgamblingSpanTasks,2022.2.1,MacIntel,59.99160118,,,,,,,,,,,,,,,,,,,,,,,,,,,,,,,,,,,,,,,,,,,,,,,,,,,,,,,,,,,,,,,,,,,,,,,,,,,,,,,,,,"[6,5]",,,,,,,,,,,,,,,,,,,,,,,,,,,,,,,,,,,,,1,0,1,0,1,,,,,,,,,,,,
,,62feca471af7bb3aeaaaa588,2022-09-08_12h10.24.392,CGTgamblingSpanTasks,2022.2.1,MacIntel,59.99160118,,,,,,,,,,,,,,,,,,,,,,,,,,,,,,,,,,,,,,,,,,,,,,,,,,,,,,,,,,,,,,,1,,,,,,,,,,,,,,,,,,,,,,,,,,,,,,,,,,,,,1,,,,,,,,,,,,,,,,,,,,,,,,56,-0.050732693,-0.410879178,1,0,0,cont_buttonBS,0,0,0,0,1
,,62feca471af7bb3aeaaaa588,2022-09-08_12h10.24.392,CGTgamblingSpanTasks,2022.2.1,MacIntel,59.99160118,,,,,,,,,,,,,,,,,,,,,,,,,,,,,,,,,,,,,,,,,,,,,,,,,,,,,,,,,,,,,,,,,,,,,,,,,,,,,,,,,,"[1,6,7]",,,,,,,,,,,,,,,,,,,,,,,,,,,,,,,,,,,,,0,0,0,0,1,,,,,,,,,,,,
,,62feca471af7bb3aeaaaa588,2022-09-08_12h10.24.392,CGTgamblingSpanTasks,2022.2.1,MacIntel,59.99160118,,,,,,,,,,,,,,,,,,,,,,,,,,,,,,,,,,,,,,,,,,,,,,,,,,,,,,,,,,,,,,,,,,,,,,,,,,,,,,,,,,"[1,6,7]",,,,,,,,,,,,,,,,,,,,,,,,,,,,,,,,,,,,,1,0,1,0,1,,,,,,,,,,,,
,,62feca471af7bb3aeaaaa588,2022-09-08_12h10.24.392,CGTgamblingSpanTasks,2022.2.1,MacIntel,59.99160118,,,,,,,,,,,,,,,,,,,,,,,,,,,,,,,,,,,,,,,,,,,,,,,,,,,,,,,,,,,,,,,,,,,,,,,,,,,,,,,,,,"[1,6,7]",,,,,,,,,,,,,,,,,,,,,,,,,,,,,,,,,,,,,2,0,2,0,1,,,,,,,,,,,,
,,62feca471af7bb3aeaaaa588,2022-09-08_12h10.24.392,CGTgamblingSpanTasks,2022.2.1,MacIntel,59.99160118,,,,,,,,,,,,,,,,,,,,,,,,,,,,,,,,,,,,,,,,,,,,,,,,,,,,,,,,,,,,,,,1,,,,,,,,,,,,,,,,,,,,,,,,,,,,,,,,,,,,,2,,,,,,,,,,,,,,,,,,,,,,,,761,-0.061149699,-0.410380385,1,0,0,cont_buttonBS,0,1,1,1,1
,,62feca471af7bb3aeaaaa588,2022-09-08_12h10.24.392,CGTgamblingSpanTasks,2022.2.1,MacIntel,59.99160118,,,,,,,,,,,,,,,,,,,,,,,,,,,,,,,,,,,,,,,,,,,,,,,,,,,,,,,,,,,,,,,,,,,,,,,,,,,,,,,,,,"[7,4,6,2]",,,,,,,,,,,,,,,,,,,,,,,,,,,,,,,,,,,,,0,0,0,0,1,,,,,,,,,,,,
,,62feca471af7bb3aeaaaa588,2022-09-08_12h10.24.392,CGTgamblingSpanTasks,2022.2.1,MacIntel,59.99160118,,,,,,,,,,,,,,,,,,,,,,,,,,,,,,,,,,,,,,,,,,,,,,,,,,,,,,,,,,,,,,,,,,,,,,,,,,,,,,,,,,"[7,4,6,2]",,,,,,,,,,,,,,,,,,,,,,,,,,,,,,,,,,,,,1,0,1,0,1,,,,,,,,,,,,
,,62feca471af7bb3aeaaaa588,2022-09-08_12h10.24.392,CGTgamblingSpanTasks,2022.2.1,MacIntel,59.99160118,,,,,,,,,,,,,,,,,,,,,,,,,,,,,,,,,,,,,,,,,,,,,,,,,,,,,,,,,,,,,,,,,,,,,,,,,,,,,,,,,,"[7,4,6,2]",,,,,,,,,,,,,,,,,,,,,,,,,,,,,,,,,,,,,2,0,2,0,1,,,,,,,,,,,,
,,62feca471af7bb3aeaaaa588,2022-09-08_12h10.24.392,CGTgamblingSpanTasks,2022.2.1,MacIntel,59.99160118,,,,,,,,,,,,,,,,,,,,,,,,,,,,,,,,,,,,,,,,,,,,,,,,,,,,,,,,,,,,,,,,,,,,,,,,,,,,,,,,,,"[7,4,6,2]",,,,,,,,,,,,,,,,,,,,,,,,,,,,,,,,,,,,,3,0,3,0,1,,,,,,,,,,,,
,,62feca471af7bb3aeaaaa588,2022-09-08_12h10.24.392,CGTgamblingSpanTasks,2022.2.1,MacIntel,59.99160118,,,,,,,,,,,,,,,,,,,,,,,,,,,,,,,,,,,,,,,,,,,,,,,,,,,,,,,,,,,,,,,0,,,,,,,,,,,,,,,,,,,,,,,,,,,,,,,,,,,,,3,,,,,,,,,,,,,,,,,,,,,,,,264,-0.062568088,-0.396007216,1,0,0,cont_buttonBS,0,2,2,2,1
,,62feca471af7bb3aeaaaa588,2022-09-08_12h10.24.392,CGTgamblingSpanTasks,2022.2.1,MacIntel,59.99160118,,,,,,,,,,,,,,,,,,,,,,,,,,,,,,,,,,,,,,,,,,,,,,,,,,,,,,,,,,,,,,,,,,,,,,,,,,,,,,,,,,"[5,7,8,3]",,,,,,,,,,,,,,,,,,,,,,,,,,,,,,,,,,,,,0,0,0,0,1,,,,,,,,,,,,
,,62feca471af7bb3aeaaaa588,2022-09-08_12h10.24.392,CGTgamblingSpanTasks,2022.2.1,MacIntel,59.99160118,,,,,,,,,,,,,,,,,,,,,,,,,,,,,,,,,,,,,,,,,,,,,,,,,,,,,,,,,,,,,,,,,,,,,,,,,,,,,,,,,,"[5,7,8,3]",,,,,,,,,,,,,,,,,,,,,,,,,,,,,,,,,,,,,1,0,1,0,1,,,,,,,,,,,,
,,62feca471af7bb3aeaaaa588,2022-09-08_12h10.24.392,CGTgamblingSpanTasks,2022.2.1,MacIntel,59.99160118,,,,,,,,,,,,,,,,,,,,,,,,,,,,,,,,,,,,,,,,,,,,,,,,,,,,,,,,,,,,,,,,,,,,,,,,,,,,,,,,,,"[5,7,8,3]",,,,,,,,,,,,,,,,,,,,,,,,,,,,,,,,,,,,,2,0,2,0,1,,,,,,,,,,,,
,,62feca471af7bb3aeaaaa588,2022-09-08_12h10.24.392,CGTgamblingSpanTasks,2022.2.1,MacIntel,59.99160118,,,,,,,,,,,,,,,,,,,,,,,,,,,,,,,,,,,,,,,,,,,,,,,,,,,,,,,,,,,,,,,,,,,,,,,,,,,,,,,,,,"[5,7,8,3]",,,,,,,,,,,,,,,,,,,,,,,,,,,,,,,,,,,,,3,0,3,0,1,,,,,,,,,,,,
,,62feca471af7bb3aeaaaa588,2022-09-08_12h10.24.392,CGTgamblingSpanTasks,2022.2.1,MacIntel,59.99160118,,,,,,,,,,,,,,,,,,,,,,,,,,,,,,,,,,,,,,,,,,,,,,,,,,,,,,,,,,,,,,,1,,,,,,,,,,,,,,,,,,,,,,,,,,,,,,,,,,,,,4,,,,,,,,,,,,,,,,,,,,,,,,3875,-0.064036051,-0.385868462,1,0,0,cont_buttonBS,0,3,3,3,1
,,62feca471af7bb3aeaaaa588,2022-09-08_12h10.24.392,CGTgamblingSpanTasks,2022.2.1,MacIntel,59.99160118,,,,,,,,,,,,,,,,,,,,,,,,,,,,,,,,,,,,,,,,,,,,,,,,,,,,,,,,,,,,,,,,,,,,,,,,,,,,,,,,,,"[3,9,4,8,5]",,,,,,,,,,,,,,,,,,,,,,,,,,,,,,,,,,,,,0,0,0,0,1,,,,,,,,,,,,
,,62feca471af7bb3aeaaaa588,2022-09-08_12h10.24.392,CGTgamblingSpanTasks,2022.2.1,MacIntel,59.99160118,,,,,,,,,,,,,,,,,,,,,,,,,,,,,,,,,,,,,,,,,,,,,,,,,,,,,,,,,,,,,,,,,,,,,,,,,,,,,,,,,,"[3,9,4,8,5]",,,,,,,,,,,,,,,,,,,,,,,,,,,,,,,,,,,,,1,0,1,0,1,,,,,,,,,,,,
,,62feca471af7bb3aeaaaa588,2022-09-08_12h10.24.392,CGTgamblingSpanTasks,2022.2.1,MacIntel,59.99160118,,,,,,,,,,,,,,,,,,,,,,,,,,,,,,,,,,,,,,,,,,,,,,,,,,,,,,,,,,,,,,,,,,,,,,,,,,,,,,,,,,"[3,9,4,8,5]",,,,,,,,,,,,,,,,,,,,,,,,,,,,,,,,,,,,,2,0,2,0,1,,,,,,,,,,,,
,,62feca471af7bb3aeaaaa588,2022-09-08_12h10.24.392,CGTgamblingSpanTasks,2022.2.1,MacIntel,59.99160118,,,,,,,,,,,,,,,,,,,,,,,,,,,,,,,,,,,,,,,,,,,,,,,,,,,,,,,,,,,,,,,,,,,,,,,,,,,,,,,,,,"[3,9,4,8,5]",,,,,,,,,,,,,,,,,,,,,,,,,,,,,,,,,,,,,3,0,3,0,1,,,,,,,,,,,,
,,62feca471af7bb3aeaaaa588,2022-09-08_12h10.24.392,CGTgamblingSpanTasks,2022.2.1,MacIntel,59.99160118,,,,,,,,,,,,,,,,,,,,,,,,,,,,,,,,,,,,,,,,,,,,,,,,,,,,,,,,,,,,,,,,,,,,,,,,,,,,,,,,,,"[3,9,4,8,5]",,,,,,,,,,,,,,,,,,,,,,,,,,,,,,,,,,,,,4,0,4,0,1,,,,,,,,,,,,
,,62feca471af7bb3aeaaaa588,2022-09-08_12h10.24.392,CGTgamblingSpanTasks,2022.2.1,MacIntel,59.99160118,,,,,,,,,,,,,,,,,,,,,,,,,,,,,,,,,,,,,,,,,,,,,,,,,,,,,,,,,,,,,,,1,,,,,,,,,,,,,,,,,,,,,,,,,,,,,,,,,,,,,5,,,,,,,,,,,,,,,,,,,,,,,,58493,-0.116322293,-0.402464939,1,0,0,cont_buttonBS,0,4,4,4,1
,,62feca471af7bb3aeaaaa588,2022-09-08_12h10.24.392,CGTgamblingSpanTasks,2022.2.1,MacIntel,59.99160118,,,,,,,,,,,,,,,,,,,,,,,,,,,,,,,,,,,,,,,,,,,,,,,,,,,,,,,,,,,,,,,,,,,,,,,,,,,,,,,,,,"[2,5,4,6,8,1]",,,,,,,,,,,,,,,,,,,,,,,,,,,,,,,,,,,,,0,0,0,0,1,,,,,,,,,,,,
,,62feca471af7bb3aeaaaa588,2022-09-08_12h10.24.392,CGTgamblingSpanTasks,2022.2.1,MacIntel,59.99160118,,,,,,,,,,,,,,,,,,,,,,,,,,,,,,,,,,,,,,,,,,,,,,,,,,,,,,,,,,,,,,,,,,,,,,,,,,,,,,,,,,"[2,5,4,6,8,1]",,,,,,,,,,,,,,,,,,,,,,,,,,,,,,,,,,,,,1,0,1,0,1,,,,,,,,,,,,
,,62feca471af7bb3aeaaaa588,2022-09-08_12h10.24.392,CGTgamblingSpanTasks,2022.2.1,MacIntel,59.99160118,,,,,,,,,,,,,,,,,,,,,,,,,,,,,,,,,,,,,,,,,,,,,,,,,,,,,,,,,,,,,,,,,,,,,,,,,,,,,,,,,,"[2,5,4,6,8,1]",,,,,,,,,,,,,,,,,,,,,,,,,,,,,,,,,,,,,2,0,2,0,1,,,,,,,,,,,,
,,62feca471af7bb3aeaaaa588,2022-09-08_12h10.24.392,CGTgamblingSpanTasks,2022.2.1,MacIntel,59.99160118,,,,,,,,,,,,,,,,,,,,,,,,,,,,,,,,,,,,,,,,,,,,,,,,,,,,,,,,,,,,,,,,,,,,,,,,,,,,,,,,,,"[2,5,4,6,8,1]",,,,,,,,,,,,,,,,,,,,,,,,,,,,,,,,,,,,,3,0,3,0,1,,,,,,,,,,,,
