initITIstatic,initITIdynamic,participant,date,expName,psychopyVersion,OS,frameRate,inst1.keys,inst1.rt,startPracResp.keys,startPracResp.rt,choice1.keys,choice1.rt,outcome,extraITI,trials.thisRepN,trials.thisTrialN,trials.thisN,trials.thisIndex,trials.ran,riskyGain,riskyLoss,alternative,isi,iti,loc,postPractResp.keys,postPractResp.rt,realloc,realChoice.keys,realChoice.rt,outcomes,choices,actualITI,init ITI,staticRDM.thisRepN,staticRDM.thisTrialN,staticRDM.thisN,staticRDM.thisIndex,staticRDM.ran,riskyoption1,riskyoption2,safeoption,ischecktrial,dynamicChoiceSetName,dynamicChoiceSetPath,bestRho,bestMu,trials_2.thisRepN,trials_2.thisTrialN,trials_2.thisN,trials_2.thisIndex,trials_2.ran,key_resp.keys,key_resp.rt,dynamicRDM.thisRepN,dynamicRDM.thisTrialN,dynamicRDM.thisN,dynamicRDM.thisIndex,dynamicRDM.ran,choiceP,easy0difficult1,stopBreak.keys,stopBreak.rt,movealong.keys,movealong.rt,startPractice.keys,startPractice.rt,textboxPractice.text,correct,mousePractice.x,mousePractice.y,mousePractice.leftButton,mousePractice.midButton,mousePractice.rightButton,mousePractice.clicked_name,trialFSPractice.thisRepN,trialFSPractice.thisTrialN,trialFSPractice.thisN,trialFSPractice.thisIndex,trialFSPractice.ran,digitSpanForward,digits,digitsReverse,digitSpanReverse,digitsReverseCorrAnswer,startFSreal.keys,startFSreal.rt,digitsForTrial,digitLoop.thisRepN,digitLoop.thisTrialN,digitLoop.thisN,digitLoop.thisIndex,digitLoop.ran,textbox.text,mouse_3.x,mouse_3.y,mouse_3.leftButton,mouse_3.midButton,mouse_3.rightButton,mouse_3.clicked_name,trialsFS.thisRepN,trialsFS.thisTrialN,trialsFS.thisN,trialsFS.thisIndex,trialsFS.ran,trialNumber,moveToBS.keys,moveToBS.rt,startBSprac.keys,startBSprac.rt,textboxPractice_2.text,mousePractice_2.x,mousePractice_2.y,mousePractice_2.leftButton,mousePractice_2.midButton,mousePractice_2.rightButton,mousePractice_2.clicked_name,trialsPracticeBS.thisRepN,trialsPracticeBS.thisTrialN,trialsPracticeBS.thisN,trialsPracticeBS.thisIndex,trialsPracticeBS.ran,startBSreal.keys,startBSreal.rt,digitLoopBS.thisRepN,digitLoopBS.thisTrialN,digitLoopBS.thisN,digitLoopBS.thisIndex,digitLoopBS.ran,textboxBS.text,mouseBS.x,mouseBS.y,mouseBS.leftButton,mouseBS.midButton,mouseBS.rightButton,mouseBS.clicked_name,trialsBS.thisRepN,trialsBS.thisTrialN,trialsBS.thisN,trialsBS.thisIndex,trialsBS.ran
"[1.5,1.5,1.5,1,1.5,1,1,1,1.5,1,1,1,1.5,1.5,1,1,1.5,1,1.5,1.5,1.5,1.5,1.5,1,1.5,1.5,1,1,1,1,1.5,1.5,1.5,1,1,1.5,1.5,1.5,1,1,1,1.5,1.5,1,1,1,1,1.5,1,1.5]","[1,1.5,1.5,1.5,1.5,1,1.5,1.5,1,1,1,1.5,1.5,1.5,1,1,1.5,1,1,1,1.5,1,1,1.5,1,1,1.5,1,1.5,1,1,1,1.5,1,1.5,1.5,1,1,1,1,1,1.5,1,1,1,1.5,1,1,1.5,1,1.5,1,1,1.5,1.5,1,1.5,1.5,1,1.5,1,1.5,1,1.5,1,1.5,1,1,1,1.5,1,1.5,1.5,1.5,1.5,1,1.5,1.5,1.5,1,1.5,1.5,1.5,1.5,1,1.5,1.5,1,1.5,1.5,1,1.5,1.5,1.5,1,1.5,1,1,1,1.5,1,1.5,1,1,1,1.5,1.5,1.5,1.5,1.5,1,1,1,1,1.5,1.5,1,1,1.5,1.5]",6102261419c471b68458a7b4,2022-09-08_11h50.27.103,CGTgamblingSpanTasks,2022.2.1,Win32,59.94485074,,,,,,,,,,,,,,,,,,,,,,,,,,,,,,,,,,,,,,,,,,,,,,,,,,,,,,,,,,,,,,,,,,,,,,,,,,,,,,,,,,,,,,,,,,,,,,,,,,,,,,,,,,,,,,,,,,,,,,,,,,,,,,,,,,,,,,,
,,6102261419c471b68458a7b4,2022-09-08_11h50.27.103,CGTgamblingSpanTasks,2022.2.1,Win32,59.94485074,return,4.6031,,,,,,,,,,,,,,,,,,,,,,,,,,,,,,,,,,,,,,,,,,,,,,,,,,,,,,,,,,,,,,,,,,,,,,,,,,,,,,,,,,,,,,,,,,,,,,,,,,,,,,,,,,,,,,,,,,,,,,,,,,,,,,,,,,,,,
,,6102261419c471b68458a7b4,2022-09-08_11h50.27.103,CGTgamblingSpanTasks,2022.2.1,Win32,59.94485074,,,v,1.3079,,,,,,,,,,,,,,,,,,,,,,,,,,,,,,,,,,,,,,,,,,,,,,,,,,,,,,,,,,,,,,,,,,,,,,,,,,,,,,,,,,,,,,,,,,,,,,,,,,,,,,,,,,,,,,,,,,,,,,,,,,,,,,,,,,,
,,6102261419c471b68458a7b4,2022-09-08_11h50.27.103,CGTgamblingSpanTasks,2022.2.1,Win32,59.94485074,,,,,n,2.5588,9.45,1.4412,0,0,0,0,1,18.23,0,9.45,2,1,1,,,,,,,,,,,,,,,,,,,,,,,,,,,,,,,,,,,,,,,,,,,,,,,,,,,,,,,,,,,,,,,,,,,,,,,,,,,,,,,,,,,,,,,,,,,,,,,,,,,,,,,,,,,,,,,,,,,,
,,6102261419c471b68458a7b4,2022-09-08_11h50.27.103,CGTgamblingSpanTasks,2022.2.1,Win32,59.94485074,,,,,n,1.4668,35.16,2.5332,0,1,1,1,1,53.27,0,35.16,1,1.5,1,,,,,,,,,,,,,,,,,,,,,,,,,,,,,,,,,,,,,,,,,,,,,,,,,,,,,,,,,,,,,,,,,,,,,,,,,,,,,,,,,,,,,,,,,,,,,,,,,,,,,,,,,,,,,,,,,,,,
,,6102261419c471b68458a7b4,2022-09-08_11h50.27.103,CGTgamblingSpanTasks,2022.2.1,Win32,59.94485074,,,,,n,1.5367,8.27,2.4633,0,2,2,2,1,8.27,0,1.15,1,1.5,2,,,,,,,,,,,,,,,,,,,,,,,,,,,,,,,,,,,,,,,,,,,,,,,,,,,,,,,,,,,,,,,,,,,,,,,,,,,,,,,,,,,,,,,,,,,,,,,,,,,,,,,,,,,,,,,,,,,,
,,6102261419c471b68458a7b4,2022-09-08_11h50.27.103,CGTgamblingSpanTasks,2022.2.1,Win32,59.94485074,,,,,n,1.8433,40.41,2.1567,0,3,3,3,1,45.88,0,40.41,3,1,1,,,,,,,,,,,,,,,,,,,,,,,,,,,,,,,,,,,,,,,,,,,,,,,,,,,,,,,,,,,,,,,,,,,,,,,,,,,,,,,,,,,,,,,,,,,,,,,,,,,,,,,,,,,,,,,,,,,,
,,6102261419c471b68458a7b4,2022-09-08_11h50.27.103,CGTgamblingSpanTasks,2022.2.1,Win32,59.94485074,,,,,n,1.951,21.56,2.049,0,4,4,4,1,21.56,0,11.96,1,1.5,2,,,,,,,,,,,,,,,,,,,,,,,,,,,,,,,,,,,,,,,,,,,,,,,,,,,,,,,,,,,,,,,,,,,,,,,,,,,,,,,,,,,,,,,,,,,,,,,,,,,,,,,,,,,,,,,,,,,,
,,6102261419c471b68458a7b4,2022-09-08_11h50.27.103,CGTgamblingSpanTasks,2022.2.1,Win32,59.94485074,,,,,,,,,,,,,,,,,,,,v,13.2215,,,,,,,,,,,,,,,,,,,,,,,,,,,,,,,,,,,,,,,,,,,,,,,,,,,,,,,,,,,,,,,,,,,,,,,,,,,,,,,,,,,,,,,,,,,,,,,,,,,,,,,,,,,,,,,,,,
,,6102261419c471b68458a7b4,2022-09-08_11h50.27.103,CGTgamblingSpanTasks,2022.2.1,Win32,59.94485074,,,,,,,,2.5732,,,,,,,,,,,,,,1,v,1.4268,0,1,4.0732,1.5,0,0,0,19,1,17.94,0,9.03,0,,,,,,,,,,,,,,,,,,,,,,,,,,,,,,,,,,,,,,,,,,,,,,,,,,,,,,,,,,,,,,,,,,,,,,,,,,,,,,,,,,,,,,,,,,,,,,,,,,
,,6102261419c471b68458a7b4,2022-09-08_11h50.27.103,CGTgamblingSpanTasks,2022.2.1,Win32,59.94485074,,,,,,,,2.5158,,,,,,,,,,,,,,2,v,1.4842,5.03,0,4.0158,1.5,0,1,1,8,1,13.94,0,5.03,0,,,,,,,,,,,,,,,,,,,,,,,,,,,,,,,,,,,,,,,,,,,,,,,,,,,,,,,,,,,,,,,,,,,,,,,,,,,,,,,,,,,,,,,,,,,,,,,,,,
,,6102261419c471b68458a7b4,2022-09-08_11h50.27.103,CGTgamblingSpanTasks,2022.2.1,Win32,59.94485074,,,,,,,,3.3493,,,,,,,,,,,,,,2,v,0.6507,9.87,0,4.8493,1.5,0,2,2,29,1,16.26,0,9.87,0,,,,,,,,,,,,,,,,,,,,,,,,,,,,,,,,,,,,,,,,,,,,,,,,,,,,,,,,,,,,,,,,,,,,,,,,,,,,,,,,,,,,,,,,,,,,,,,,,,
,,6102261419c471b68458a7b4,2022-09-08_11h50.27.103,CGTgamblingSpanTasks,2022.2.1,Win32,59.94485074,,,,,,,,2.9593,,,,,,,,,,,,,,2,n,1.0407,11.2,1,3.9593,1,0,3,3,26,1,11.2,0,6.4,0,,,,,,,,,,,,,,,,,,,,,,,,,,,,,,,,,,,,,,,,,,,,,,,,,,,,,,,,,,,,,,,,,,,,,,,,,,,,,,,,,,,,,,,,,,,,,,,,,,
,,6102261419c471b68458a7b4,2022-09-08_11h50.27.103,CGTgamblingSpanTasks,2022.2.1,Win32,59.94485074,,,,,,,,2.7559,,,,,,,,,,,,,,1,n,1.2441,6.81,0,4.2559,1.5,0,4,4,34,1,10.39,0,6.81,0,,,,,,,,,,,,,,,,,,,,,,,,,,,,,,,,,,,,,,,,,,,,,,,,,,,,,,,,,,,,,,,,,,,,,,,,,,,,,,,,,,,,,,,,,,,,,,,,,,
,,6102261419c471b68458a7b4,2022-09-08_11h50.27.103,CGTgamblingSpanTasks,2022.2.1,Win32,59.94485074,,,,,,,,3.2828,,,,,,,,,,,,,,1,v,0.7172,0,1,4.2828,1,0,5,5,23,1,17.28,0,9.36,0,,,,,,,,,,,,,,,,,,,,,,,,,,,,,,,,,,,,,,,,,,,,,,,,,,,,,,,,,,,,,,,,,,,,,,,,,,,,,,,,,,,,,,,,,,,,,,,,,,
,,6102261419c471b68458a7b4,2022-09-08_11h50.27.103,CGTgamblingSpanTasks,2022.2.1,Win32,59.94485074,,,,,,,,2.7997,,,,,,,,,,,,,,2,n,1.2003,13.1,1,3.7997,1,0,6,6,44,1,13.1,7.73,4.68,1,,,,,,,,,,,,,,,,,,,,,,,,,,,,,,,,,,,,,,,,,,,,,,,,,,,,,,,,,,,,,,,,,,,,,,,,,,,,,,,,,,,,,,,,,,,,,,,,,,
,,6102261419c471b68458a7b4,2022-09-08_11h50.27.103,CGTgamblingSpanTasks,2022.2.1,Win32,59.94485074,,,,,,,,2.9115,,,,,,,,,,,,,,2,n,1.0885,0,1,3.9115,1,0,7,7,1,1,28.21,0,3.89,0,,,,,,,,,,,,,,,,,,,,,,,,,,,,,,,,,,,,,,,,,,,,,,,,,,,,,,,,,,,,,,,,,,,,,,,,,,,,,,,,,,,,,,,,,,,,,,,,,,
,,6102261419c471b68458a7b4,2022-09-08_11h50.27.103,CGTgamblingSpanTasks,2022.2.1,Win32,59.94485074,,,,,,,,2.8663,,,,,,,,,,,,,,2,n,1.1337,19.86,1,4.3663,1.5,0,8,8,11,1,19.86,0,8.07,0,,,,,,,,,,,,,,,,,,,,,,,,,,,,,,,,,,,,,,,,,,,,,,,,,,,,,,,,,,,,,,,,,,,,,,,,,,,,,,,,,,,,,,,,,,,,,,,,,,
,,6102261419c471b68458a7b4,2022-09-08_11h50.27.103,CGTgamblingSpanTasks,2022.2.1,Win32,59.94485074,,,,,,,,2.9573,,,,,,,,,,,,,,2,n,1.0427,21.32,1,3.9573,1,0,9,9,7,1,21.32,0,7.34,0,,,,,,,,,,,,,,,,,,,,,,,,,,,,,,,,,,,,,,,,,,,,,,,,,,,,,,,,,,,,,,,,,,,,,,,,,,,,,,,,,,,,,,,,,,,,,,,,,,
,,6102261419c471b68458a7b4,2022-09-08_11h50.27.103,CGTgamblingSpanTasks,2022.2.1,Win32,59.94485074,,,,,,,,2.7995,,,,,,,,,,,,,,1,v,1.2005,0,1,3.7995,1,0,10,10,10,1,13.45,0,5.27,0,,,,,,,,,,,,,,,,,,,,,,,,,,,,,,,,,,,,,,,,,,,,,,,,,,,,,,,,,,,,,,,,,,,,,,,,,,,,,,,,,,,,,,,,,,,,,,,,,,
,,6102261419c471b68458a7b4,2022-09-08_11h50.27.103,CGTgamblingSpanTasks,2022.2.1,Win32,59.94485074,,,,,,,,3.2074,,,,,,,,,,,,,,1,n,0.7926,7.55,0,4.2074,1,0,11,11,45,1,0,0,7.55,1,,,,,,,,,,,,,,,,,,,,,,,,,,,,,,,,,,,,,,,,,,,,,,,,,,,,,,,,,,,,,,,,,,,,,,,,,,,,,,,,,,,,,,,,,,,,,,,,,,
,,6102261419c471b68458a7b4,2022-09-08_11h50.27.103,CGTgamblingSpanTasks,2022.2.1,Win32,59.94485074,,,,,,,,3.1992,,,,,,,,,,,,,,2,v,0.8008,10.15,0,4.6992,1.5,0,12,12,33,1,15.7,0,10.15,0,,,,,,,,,,,,,,,,,,,,,,,,,,,,,,,,,,,,,,,,,,,,,,,,,,,,,,,,,,,,,,,,,,,,,,,,,,,,,,,,,,,,,,,,,,,,,,,,,,
,,6102261419c471b68458a7b4,2022-09-08_11h50.27.103,CGTgamblingSpanTasks,2022.2.1,Win32,59.94485074,,,,,,,,2.8054,,,,,,,,,,,,,,2,n,1.1946,16,1,4.3054,1.5,0,13,13,4,1,16,0,4,0,,,,,,,,,,,,,,,,,,,,,,,,,,,,,,,,,,,,,,,,,,,,,,,,,,,,,,,,,,,,,,,,,,,,,,,,,,,,,,,,,,,,,,,,,,,,,,,,,,
,,6102261419c471b68458a7b4,2022-09-08_11h50.27.103,CGTgamblingSpanTasks,2022.2.1,Win32,59.94485074,,,,,,,,2.5422,,,,,,,,,,,,,,2,v,1.4578,10.02,0,3.5422,1,0,14,14,31,1,15.96,0,10.02,0,,,,,,,,,,,,,,,,,,,,,,,,,,,,,,,,,,,,,,,,,,,,,,,,,,,,,,,,,,,,,,,,,,,,,,,,,,,,,,,,,,,,,,,,,,,,,,,,,,
,,6102261419c471b68458a7b4,2022-09-08_11h50.27.103,CGTgamblingSpanTasks,2022.2.1,Win32,59.94485074,,,,,,,,2.5825,,,,,,,,,,,,,,2,v,1.4175,5.82,0,3.5825,1,0,15,15,16,1,12.36,0,5.82,0,,,,,,,,,,,,,,,,,,,,,,,,,,,,,,,,,,,,,,,,,,,,,,,,,,,,,,,,,,,,,,,,,,,,,,,,,,,,,,,,,,,,,,,,,,,,,,,,,,
,,6102261419c471b68458a7b4,2022-09-08_11h50.27.103,CGTgamblingSpanTasks,2022.2.1,Win32,59.94485074,,,,,,,,2.6479,,,,,,,,,,,,,,2,n,1.3521,0,1,4.1479,1.5,0,16,16,38,1,10.12,0,6.94,0,,,,,,,,,,,,,,,,,,,,,,,,,,,,,,,,,,,,,,,,,,,,,,,,,,,,,,,,,,,,,,,,,,,,,,,,,,,,,,,,,,,,,,,,,,,,,,,,,,
,,6102261419c471b68458a7b4,2022-09-08_11h50.27.103,CGTgamblingSpanTasks,2022.2.1,Win32,59.94485074,,,,,,,,2.9935,,,,,,,,,,,,,,1,v,1.0065,11.62,1,3.9935,1,0,17,17,22,1,11.62,0,6.19,0,,,,,,,,,,,,,,,,,,,,,,,,,,,,,,,,,,,,,,,,,,,,,,,,,,,,,,,,,,,,,,,,,,,,,,,,,,,,,,,,,,,,,,,,,,,,,,,,,,
,,6102261419c471b68458a7b4,2022-09-08_11h50.27.103,CGTgamblingSpanTasks,2022.2.1,Win32,59.94485074,,,,,,,,3.0661,,,,,,,,,,,,,,1,v,0.9339,20.53,1,4.5661,1.5,0,18,18,9,1,20.53,0,7.73,0,,,,,,,,,,,,,,,,,,,,,,,,,,,,,,,,,,,,,,,,,,,,,,,,,,,,,,,,,,,,,,,,,,,,,,,,,,,,,,,,,,,,,,,,,,,,,,,,,,
,,6102261419c471b68458a7b4,2022-09-08_11h50.27.103,CGTgamblingSpanTasks,2022.2.1,Win32,59.94485074,,,,,,,,2.9159,,,,,,,,,,,,,,1,n,1.0841,6.73,0,4.4159,1.5,0,19,19,32,1,10.55,0,6.73,0,,,,,,,,,,,,,,,,,,,,,,,,,,,,,,,,,,,,,,,,,,,,,,,,,,,,,,,,,,,,,,,,,,,,,,,,,,,,,,,,,,,,,,,,,,,,,,,,,,
,,6102261419c471b68458a7b4,2022-09-08_11h50.27.103,CGTgamblingSpanTasks,2022.2.1,Win32,59.94485074,,,,,,,,2.9829,,,,,,,,,,,,,,1,v,1.0171,0,1,4.4829,1.5,0,20,20,30,1,10.73,0,6.63,0,,,,,,,,,,,,,,,,,,,,,,,,,,,,,,,,,,,,,,,,,,,,,,,,,,,,,,,,,,,,,,,,,,,,,,,,,,,,,,,,,,,,,,,,,,,,,,,,,,
,,6102261419c471b68458a7b4,2022-09-08_11h50.27.103,CGTgamblingSpanTasks,2022.2.1,Win32,59.94485074,,,,,,,,2.966,,,,,,,,,,,,,,2,n,1.034,17.73,1,4.466,1.5,0,21,21,2,1,17.73,0,3.13,0,,,,,,,,,,,,,,,,,,,,,,,,,,,,,,,,,,,,,,,,,,,,,,,,,,,,,,,,,,,,,,,,,,,,,,,,,,,,,,,,,,,,,,,,,,,,,,,,,,
,,6102261419c471b68458a7b4,2022-09-08_11h50.27.103,CGTgamblingSpanTasks,2022.2.1,Win32,59.94485074,,,,,,,,2.7313,,,,,,,,,,,,,,1,v,1.2687,22.97,1,4.2313,1.5,0,22,22,5,1,22.97,0,6.51,0,,,,,,,,,,,,,,,,,,,,,,,,,,,,,,,,,,,,,,,,,,,,,,,,,,,,,,,,,,,,,,,,,,,,,,,,,,,,,,,,,,,,,,,,,,,,,,,,,,
,,6102261419c471b68458a7b4,2022-09-08_11h50.27.103,CGTgamblingSpanTasks,2022.2.1,Win32,59.94485074,,,,,,,,3.2128,,,,,,,,,,,,,,1,n,0.7872,5.66,0,4.2128,1,0,23,23,14,1,12.68,0,5.66,0,,,,,,,,,,,,,,,,,,,,,,,,,,,,,,,,,,,,,,,,,,,,,,,,,,,,,,,,,,,,,,,,,,,,,,,,,,,,,,,,,,,,,,,,,,,,,,,,,,
,,6102261419c471b68458a7b4,2022-09-08_11h50.27.103,CGTgamblingSpanTasks,2022.2.1,Win32,59.94485074,,,,,,,,2.9327,,,,,,,,,,,,,,1,v,1.0673,0,1,4.4327,1.5,0,24,24,3,1,25.2,0,5.4,0,,,,,,,,,,,,,,,,,,,,,,,,,,,,,,,,,,,,,,,,,,,,,,,,,,,,,,,,,,,,,,,,,,,,,,,,,,,,,,,,,,,,,,,,,,,,,,,,,,
,,6102261419c471b68458a7b4,2022-09-08_11h50.27.103,CGTgamblingSpanTasks,2022.2.1,Win32,59.94485074,,,,,,,,2.3555,,,,,,,,,,,,,,2,v,1.6445,6.88,0,3.8555,1.5,0,25,25,36,1,10.24,0,6.88,0,,,,,,,,,,,,,,,,,,,,,,,,,,,,,,,,,,,,,,,,,,,,,,,,,,,,,,,,,,,,,,,,,,,,,,,,,,,,,,,,,,,,,,,,,,,,,,,,,,
,,6102261419c471b68458a7b4,2022-09-08_11h50.27.103,CGTgamblingSpanTasks,2022.2.1,Win32,59.94485074,,,,,,,,3.0827,,,,,,,,,,,,,,2,n,0.9173,0,1,4.0827,1,0,26,26,0,1,20.03,0,1.99,0,,,,,,,,,,,,,,,,,,,,,,,,,,,,,,,,,,,,,,,,,,,,,,,,,,,,,,,,,,,,,,,,,,,,,,,,,,,,,,,,,,,,,,,,,,,,,,,,,,
,,6102261419c471b68458a7b4,2022-09-08_11h50.27.103,CGTgamblingSpanTasks,2022.2.1,Win32,59.94485074,,,,,,,,3.1055,,,,,,,,,,,,,,1,v,0.8945,11.43,1,4.1055,1,0,27,27,24,1,11.43,0,6.29,0,,,,,,,,,,,,,,,,,,,,,,,,,,,,,,,,,,,,,,,,,,,,,,,,,,,,,,,,,,,,,,,,,,,,,,,,,,,,,,,,,,,,,,,,,,,,,,,,,,
,,6102261419c471b68458a7b4,2022-09-08_11h50.27.103,CGTgamblingSpanTasks,2022.2.1,Win32,59.94485074,,,,,,,,3.022,,,,,,,,,,,,,,1,v,0.978,0,1,4.022,1,0,28,28,41,1,14.26,0,0,1,,,,,,,,,,,,,,,,,,,,,,,,,,,,,,,,,,,,,,,,,,,,,,,,,,,,,,,,,,,,,,,,,,,,,,,,,,,,,,,,,,,,,,,,,,,,,,,,,,
,,6102261419c471b68458a7b4,2022-09-08_11h50.27.103,CGTgamblingSpanTasks,2022.2.1,Win32,59.94485074,,,,,,,,2.7468,,,,,,,,,,,,,,1,n,1.2532,9.7,0,3.7468,1,0,29,29,27,1,16.6,0,9.7,0,,,,,,,,,,,,,,,,,,,,,,,,,,,,,,,,,,,,,,,,,,,,,,,,,,,,,,,,,,,,,,,,,,,,,,,,,,,,,,,,,,,,,,,,,,,,,,,,,,
,,6102261419c471b68458a7b4,2022-09-08_11h50.27.103,CGTgamblingSpanTasks,2022.2.1,Win32,59.94485074,,,,,,,,2.9159,,,,,,,,,,,,,,1,n,1.0841,3.13,0,4.4159,1.5,0,30,30,47,1,0,0,3.13,1,,,,,,,,,,,,,,,,,,,,,,,,,,,,,,,,,,,,,,,,,,,,,,,,,,,,,,,,,,,,,,,,,,,,,,,,,,,,,,,,,,,,,,,,,,,,,,,,,,
,,6102261419c471b68458a7b4,2022-09-08_11h50.27.103,CGTgamblingSpanTasks,2022.2.1,Win32,59.94485074,,,,,,,,2.8814,,,,,,,,,,,,,,1,n,1.1186,9.92,0,4.3814,1.5,0,31,31,49,1,6.79,0,9.92,1,,,,,,,,,,,,,,,,,,,,,,,,,,,,,,,,,,,,,,,,,,,,,,,,,,,,,,,,,,,,,,,,,,,,,,,,,,,,,,,,,,,,,,,,,,,,,,,,,,
,,6102261419c471b68458a7b4,2022-09-08_11h50.27.103,CGTgamblingSpanTasks,2022.2.1,Win32,59.94485074,,,,,,,,2.9659,,,,,,,,,,,,,,1,n,1.0341,6.08,0,4.4659,1.5,0,32,32,20,1,11.84,0,6.08,0,,,,,,,,,,,,,,,,,,,,,,,,,,,,,,,,,,,,,,,,,,,,,,,,,,,,,,,,,,,,,,,,,,,,,,,,,,,,,,,,,,,,,,,,,,,,,,,,,,
,,6102261419c471b68458a7b4,2022-09-08_11h50.27.103,CGTgamblingSpanTasks,2022.2.1,Win32,59.94485074,,,,,,,,2.7883,,,,,,,,,,,,,,2,v,1.2117,10.27,0,3.7883,1,0,33,33,35,1,15.47,0,10.27,0,,,,,,,,,,,,,,,,,,,,,,,,,,,,,,,,,,,,,,,,,,,,,,,,,,,,,,,,,,,,,,,,,,,,,,,,,,,,,,,,,,,,,,,,,,,,,,,,,,
,,6102261419c471b68458a7b4,2022-09-08_11h50.27.103,CGTgamblingSpanTasks,2022.2.1,Win32,59.94485074,,,,,,,,2.9325,,,,,,,,,,,,,,1,n,1.0675,5.96,0,3.9325,1,0,34,34,18,1,12.08,0,5.96,0,,,,,,,,,,,,,,,,,,,,,,,,,,,,,,,,,,,,,,,,,,,,,,,,,,,,,,,,,,,,,,,,,,,,,,,,,,,,,,,,,,,,,,,,,,,,,,,,,,
,,6102261419c471b68458a7b4,2022-09-08_11h50.27.103,CGTgamblingSpanTasks,2022.2.1,Win32,59.94485074,,,,,,,,3.0224,,,,,,,,,,,,,,2,v,0.9776,10.46,0,4.5224,1.5,0,35,35,39,1,15.09,0,10.46,0,,,,,,,,,,,,,,,,,,,,,,,,,,,,,,,,,,,,,,,,,,,,,,,,,,,,,,,,,,,,,,,,,,,,,,,,,,,,,,,,,,,,,,,,,,,,,,,,,,
,,6102261419c471b68458a7b4,2022-09-08_11h50.27.103,CGTgamblingSpanTasks,2022.2.1,Win32,59.94485074,,,,,,,,3.2227,,,,,,,,,,,,,,2,v,0.7773,10.25,0,4.7227,1.5,0,36,36,46,1,0,0,10.25,1,,,,,,,,,,,,,,,,,,,,,,,,,,,,,,,,,,,,,,,,,,,,,,,,,,,,,,,,,,,,,,,,,,,,,,,,,,,,,,,,,,,,,,,,,,,,,,,,,,
,,6102261419c471b68458a7b4,2022-09-08_11h50.27.103,CGTgamblingSpanTasks,2022.2.1,Win32,59.94485074,,,,,,,,3.0237,,,,,,,,,,,,,,1,n,0.9763,8.84,0,4.5237,1.5,0,37,37,17,1,18.33,0,8.84,0,,,,,,,,,,,,,,,,,,,,,,,,,,,,,,,,,,,,,,,,,,,,,,,,,,,,,,,,,,,,,,,,,,,,,,,,,,,,,,,,,,,,,,,,,,,,,,,,,,
,,6102261419c471b68458a7b4,2022-09-08_11h50.27.103,CGTgamblingSpanTasks,2022.2.1,Win32,59.94485074,,,,,,,,2.8801,,,,,,,,,,,,,,1,v,1.1199,0,1,3.8801,1,0,38,38,40,1,10.35,0,0,1,,,,,,,,,,,,,,,,,,,,,,,,,,,,,,,,,,,,,,,,,,,,,,,,,,,,,,,,,,,,,,,,,,,,,,,,,,,,,,,,,,,,,,,,,,,,,,,,,,
,,6102261419c471b68458a7b4,2022-09-08_11h50.27.103,CGTgamblingSpanTasks,2022.2.1,Win32,59.94485074,,,,,,,,2.8216,,,,,,,,,,,,,,2,v,1.1784,10.37,0,3.8216,1,0,39,39,37,1,15.27,0,10.37,0,,,,,,,,,,,,,,,,,,,,,,,,,,,,,,,,,,,,,,,,,,,,,,,,,,,,,,,,,,,,,,,,,,,,,,,,,,,,,,,,,,,,,,,,,,,,,,,,,,
,,6102261419c471b68458a7b4,2022-09-08_11h50.27.103,CGTgamblingSpanTasks,2022.2.1,Win32,59.94485074,,,,,,,,3.13,,,,,,,,,,,,,,2,v,0.87,9.2,0,4.13,1,0,40,40,21,1,17.59,0,9.2,0,,,,,,,,,,,,,,,,,,,,,,,,,,,,,,,,,,,,,,,,,,,,,,,,,,,,,,,,,,,,,,,,,,,,,,,,,,,,,,,,,,,,,,,,,,,,,,,,,,
,,6102261419c471b68458a7b4,2022-09-08_11h50.27.103,CGTgamblingSpanTasks,2022.2.1,Win32,59.94485074,,,,,,,,2.3992,,,,,,,,,,,,,,1,n,1.6008,9.5,0,3.8992,1.5,0,41,41,25,1,17,0,9.5,0,,,,,,,,,,,,,,,,,,,,,,,,,,,,,,,,,,,,,,,,,,,,,,,,,,,,,,,,,,,,,,,,,,,,,,,,,,,,,,,,,,,,,,,,,,,,,,,,,,
,,6102261419c471b68458a7b4,2022-09-08_11h50.27.103,CGTgamblingSpanTasks,2022.2.1,Win32,59.94485074,,,,,,,,2.8569,,,,,,,,,,,,,,1,v,1.1431,0,1,4.3569,1.5,0,42,42,42,1,19.86,0,0,1,,,,,,,,,,,,,,,,,,,,,,,,,,,,,,,,,,,,,,,,,,,,,,,,,,,,,,,,,,,,,,,,,,,,,,,,,,,,,,,,,,,,,,,,,,,,,,,,,,
,,6102261419c471b68458a7b4,2022-09-08_11h50.27.103,CGTgamblingSpanTasks,2022.2.1,Win32,59.94485074,,,,,,,,2.2656,,,,,,,,,,,,,,1,v,1.7344,0,1,3.2656,1,0,43,43,15,1,18.77,0,8.61,0,,,,,,,,,,,,,,,,,,,,,,,,,,,,,,,,,,,,,,,,,,,,,,,,,,,,,,,,,,,,,,,,,,,,,,,,,,,,,,,,,,,,,,,,,,,,,,,,,,
,,6102261419c471b68458a7b4,2022-09-08_11h50.27.103,CGTgamblingSpanTasks,2022.2.1,Win32,59.94485074,,,,,,,,2.9326,,,,,,,,,,,,,,1,v,1.0674,13.04,1,3.9326,1,0,44,44,12,1,13.04,0,5.48,0,,,,,,,,,,,,,,,,,,,,,,,,,,,,,,,,,,,,,,,,,,,,,,,,,,,,,,,,,,,,,,,,,,,,,,,,,,,,,,,,,,,,,,,,,,,,,,,,,,
,,6102261419c471b68458a7b4,2022-09-08_11h50.27.103,CGTgamblingSpanTasks,2022.2.1,Win32,59.94485074,,,,,,,,2.1884,,,,,,,,,,,,,,2,n,1.8116,6.99,1,3.1884,1,0,45,45,43,1,16.11,6.99,6.99,1,,,,,,,,,,,,,,,,,,,,,,,,,,,,,,,,,,,,,,,,,,,,,,,,,,,,,,,,,,,,,,,,,,,,,,,,,,,,,,,,,,,,,,,,,,,,,,,,,,
,,6102261419c471b68458a7b4,2022-09-08_11h50.27.103,CGTgamblingSpanTasks,2022.2.1,Win32,59.94485074,,,,,,,,2.6728,,,,,,,,,,,,,,2,n,1.3272,14.72,1,3.6728,1,0,46,46,6,1,14.72,0,4.64,0,,,,,,,,,,,,,,,,,,,,,,,,,,,,,,,,,,,,,,,,,,,,,,,,,,,,,,,,,,,,,,,,,,,,,,,,,,,,,,,,,,,,,,,,,,,,,,,,,,
,,6102261419c471b68458a7b4,2022-09-08_11h50.27.103,CGTgamblingSpanTasks,2022.2.1,Win32,59.94485074,,,,,,,,2.8325,,,,,,,,,,,,,,1,v,1.1675,0,1,4.3325,1.5,0,47,47,13,1,19.28,0,8.36,0,,,,,,,,,,,,,,,,,,,,,,,,,,,,,,,,,,,,,,,,,,,,,,,,,,,,,,,,,,,,,,,,,,,,,,,,,,,,,,,,,,,,,,,,,,,,,,,,,,
,,6102261419c471b68458a7b4,2022-09-08_11h50.27.103,CGTgamblingSpanTasks,2022.2.1,Win32,59.94485074,,,,,,,,2.9823,,,,,,,,,,,,,,1,v,1.0177,10.95,1,3.9823,1,0,48,48,28,1,10.95,0,6.53,0,,,,,,,,,,,,,,,,,,,,,,,,,,,,,,,,,,,,,,,,,,,,,,,,,,,,,,,,,,,,,,,,,,,,,,,,,,,,,,,,,,,,,,,,,,,,,,,,,,
,,6102261419c471b68458a7b4,2022-09-08_11h50.27.103,CGTgamblingSpanTasks,2022.2.1,Win32,59.94485074,,,,,,,,2.4444,,,,,,,,,,,,,,2,v,1.5556,10.68,0,3.9444,1.5,0,49,49,48,1,10.68,0,10.68,1,,,,,,,,,,,,,,,,,,,,,,,,,,,,,,,,,,,,,,,,,,,,,,,,,,,,,,,,,,,,,,,,,,,,,,,,,,,,,,,,,,,,,,,,,,,,,,,,,,
,,6102261419c471b68458a7b4,2022-09-08_11h50.27.103,CGTgamblingSpanTasks,2022.2.1,Win32,59.94485074,,,,,,,,,,,,,,,,,,,,,,,,,,,,,,,,,,,,,,bespoke_choiceset_rhoInd078_muInd045.csv,bespoke_choicesets/bespoke_choiceset_rhoInd078_muInd045.csv,78,45,0,0,0,0,1,,,,,,,,,,,,,,,,,,,,,,,,,,,,,,,,,,,,,,,,,,,,,,,,,,,,,,,,,,,,,,,,,,,,,,,,,,,,,,,,,,,,,,,,,
,,6102261419c471b68458a7b4,2022-09-08_11h50.27.103,CGTgamblingSpanTasks,2022.2.1,Win32,59.94485074,,,,,,,,,,,,,,,,,,,,,,,,,,,,,,,,,,,,,,,,,,,,,,,,,,,,,,,,,,,,,,,,,,,,,,,,,,,,,,,,,,,,,,,,,,,,,,,,,,,,,,,,,,,,,,,,,,,,,,,,,,,,,,,,,,,,,,,
,,6102261419c471b68458a7b4,2022-09-08_11h50.27.103,CGTgamblingSpanTasks,2022.2.1,Win32,59.94485074,,,,,,,,,,,,,,,,,,,,,,,,,,,,,,,,,,,,,,,,,,,,,,,v,62.8207,,,,,,,,,,,,,,,,,,,,,,,,,,,,,,,,,,,,,,,,,,,,,,,,,,,,,,,,,,,,,,,,,,,,,,,,,,,,,,,,,,,,,,,
,,6102261419c471b68458a7b4,2022-09-08_11h50.27.103,CGTgamblingSpanTasks,2022.2.1,Win32,59.94485074,,,,,,,,2.7413,,,,,,,,,,,,,,2,n,1.2587,0,1,3.7413,1,,,,,,21.17800335,0,0.059830985,,,,,,,,,,,,,0,0,0,67,1,0.908594974,0,,,,,,,,,,,,,,,,,,,,,,,,,,,,,,,,,,,,,,,,,,,,,,,,,,,,,,,,,,,,,,,,,,,,,,,,,,,,,,,,
,,6102261419c471b68458a7b4,2022-09-08_11h50.27.103,CGTgamblingSpanTasks,2022.2.1,Win32,59.94485074,,,,,,,,3.0404,,,,,,,,,,,,,,2,n,0.9596,25.65316415,1,4.5404,1.5,,,,,,25.65316415,0,0.079652925,,,,,,,,,,,,,0,1,1,109,1,0.90568168,0,,,,,,,,,,,,,,,,,,,,,,,,,,,,,,,,,,,,,,,,,,,,,,,,,,,,,,,,,,,,,,,,,,,,,,,,,,,,,,,,
,,6102261419c471b68458a7b4,2022-09-08_11h50.27.103,CGTgamblingSpanTasks,2022.2.1,Win32,59.94485074,,,,,,,,3.1612,,,,,,,,,,,,,,2,n,0.8388,0,1,4.6612,1.5,,,,,,24.479109,0,0.089582697,,,,,,,,,,,,,0,2,2,89,1,0.900200232,0,,,,,,,,,,,,,,,,,,,,,,,,,,,,,,,,,,,,,,,,,,,,,,,,,,,,,,,,,,,,,,,,,,,,,,,,,,,,,,,,
,,6102261419c471b68458a7b4,2022-09-08_11h50.27.103,CGTgamblingSpanTasks,2022.2.1,Win32,59.94485074,,,,,,,,2.5668,,,,,,,,,,,,,,1,n,1.4332,8.579385201,0,4.0668,1.5,,,,,,14.11762686,0,8.579385201,,,,,,,,,,,,,0,3,3,60,1,0.073886959,0,,,,,,,,,,,,,,,,,,,,,,,,,,,,,,,,,,,,,,,,,,,,,,,,,,,,,,,,,,,,,,,,,,,,,,,,,,,,,,,,
,,6102261419c471b68458a7b4,2022-09-08_11h50.27.103,CGTgamblingSpanTasks,2022.2.1,Win32,59.94485074,,,,,,,,3.0912,,,,,,,,,,,,,,2,n,0.9088,0,1,4.5912,1.5,,,,,,21.39646914,0,0.072474078,,,,,,,,,,,,,0,4,4,3,1,0.902848133,0,,,,,,,,,,,,,,,,,,,,,,,,,,,,,,,,,,,,,,,,,,,,,,,,,,,,,,,,,,,,,,,,,,,,,,,,,,,,,,,,
,,6102261419c471b68458a7b4,2022-09-08_11h50.27.103,CGTgamblingSpanTasks,2022.2.1,Win32,59.94485074,,,,,,,,3.092,,,,,,,,,,,,,,2,n,0.908,29.76099779,1,4.092,1,,,,,,29.76099779,0,0.095763086,,,,,,,,,,,,,0,5,5,35,1,0.904537896,0,,,,,,,,,,,,,,,,,,,,,,,,,,,,,,,,,,,,,,,,,,,,,,,,,,,,,,,,,,,,,,,,,,,,,,,,,,,,,,,,
,,6102261419c471b68458a7b4,2022-09-08_11h50.27.103,CGTgamblingSpanTasks,2022.2.1,Win32,59.94485074,,,,,,,,2.9926,,,,,,,,,,,,,,2,n,1.0074,0,1,4.4926,1.5,,,,,,25.76582409,0,2.393193076,,,,,,,,,,,,,0,6,6,46,1,0.517129855,1,,,,,,,,,,,,,,,,,,,,,,,,,,,,,,,,,,,,,,,,,,,,,,,,,,,,,,,,,,,,,,,,,,,,,,,,,,,,,,,,
,,6102261419c471b68458a7b4,2022-09-08_11h50.27.103,CGTgamblingSpanTasks,2022.2.1,Win32,59.94485074,,,,,,,,2.8327,,,,,,,,,,,,,,1,n,1.1673,11.39288827,0,4.3327,1.5,,,,,,20.97851654,0,11.39288827,,,,,,,,,,,,,0,7,7,2,1,0.088791079,0,,,,,,,,,,,,,,,,,,,,,,,,,,,,,,,,,,,,,,,,,,,,,,,,,,,,,,,,,,,,,,,,,,,,,,,,,,,,,,,,
,,6102261419c471b68458a7b4,2022-09-08_11h50.27.103,CGTgamblingSpanTasks,2022.2.1,Win32,59.94485074,,,,,,,,3.1385,,,,,,,,,,,,,,2,n,0.8615,15.43649625,1,4.1385,1,,,,,,15.43649625,0,1.65459324,,,,,,,,,,,,,0,8,8,33,1,0.479480163,1,,,,,,,,,,,,,,,,,,,,,,,,,,,,,,,,,,,,,,,,,,,,,,,,,,,,,,,,,,,,,,,,,,,,,,,,,,,,,,,,
,,6102261419c471b68458a7b4,2022-09-08_11h50.27.103,CGTgamblingSpanTasks,2022.2.1,Win32,59.94485074,,,,,,,,2.9826,,,,,,,,,,,,,,1,v,1.0174,0,1,3.9826,1,,,,,,19.36415485,0,1.966229494,,,,,,,,,,,,,0,9,9,96,1,0.493893111,1,,,,,,,,,,,,,,,,,,,,,,,,,,,,,,,,,,,,,,,,,,,,,,,,,,,,,,,,,,,,,,,,,,,,,,,,,,,,,,,,
,,6102261419c471b68458a7b4,2022-09-08_11h50.27.103,CGTgamblingSpanTasks,2022.2.1,Win32,59.94485074,,,,,,,,3.3248,,,,,,,,,,,,,,1,n,0.6752,5.683635938,0,4.3248,1,,,,,,4.941039335,0,5.683635938,,,,,,,,,,,,,0,10,10,9,1,0.025481984,0,,,,,,,,,,,,,,,,,,,,,,,,,,,,,,,,,,,,,,,,,,,,,,,,,,,,,,,,,,,,,,,,,,,,,,,,,,,,,,,,
,,6102261419c471b68458a7b4,2022-09-08_11h50.27.103,CGTgamblingSpanTasks,2022.2.1,Win32,59.94485074,,,,,,,,2.9494,,,,,,,,,,,,,,1,v,1.0506,0,1,4.4494,1.5,,,,,,29.75778644,0,2.810531415,,,,,,,,,,,,,0,11,11,113,1,0.512824233,1,,,,,,,,,,,,,,,,,,,,,,,,,,,,,,,,,,,,,,,,,,,,,,,,,,,,,,,,,,,,,,,,,,,,,,,,,,,,,,,,
,,6102261419c471b68458a7b4,2022-09-08_11h50.27.103,CGTgamblingSpanTasks,2022.2.1,Win32,59.94485074,,,,,,,,3.0105,,,,,,,,,,,,,,1,v,0.9895,0,1,4.5105,1.5,,,,,,17.4320197,0,1.448620949,,,,,,,,,,,,,0,12,12,30,1,0.545178213,1,,,,,,,,,,,,,,,,,,,,,,,,,,,,,,,,,,,,,,,,,,,,,,,,,,,,,,,,,,,,,,,,,,,,,,,,,,,,,,,,
,,6102261419c471b68458a7b4,2022-09-08_11h50.27.103,CGTgamblingSpanTasks,2022.2.1,Win32,59.94485074,,,,,,,,2.691,,,,,,,,,,,,,,2,n,1.309,0,1,4.191,1.5,,,,,,7.066129113,0,0.585581699,,,,,,,,,,,,,0,13,13,19,1,0.545860632,1,,,,,,,,,,,,,,,,,,,,,,,,,,,,,,,,,,,,,,,,,,,,,,,,,,,,,,,,,,,,,,,,,,,,,,,,,,,,,,,,
,,6102261419c471b68458a7b4,2022-09-08_11h50.27.103,CGTgamblingSpanTasks,2022.2.1,Win32,59.94485074,,,,,,,,2.9401,,,,,,,,,,,,,,1,v,1.0599,25.26994993,1,3.9401,1,,,,,,25.26994993,0,2.78925142,,,,,,,,,,,,,0,14,14,108,1,0.471582922,1,,,,,,,,,,,,,,,,,,,,,,,,,,,,,,,,,,,,,,,,,,,,,,,,,,,,,,,,,,,,,,,,,,,,,,,,,,,,,,,,
,,6102261419c471b68458a7b4,2022-09-08_11h50.27.103,CGTgamblingSpanTasks,2022.2.1,Win32,59.94485074,,,,,,,,2.4157,,,,,,,,,,,,,,1,n,1.5843,4.251676631,0,3.4157,1,,,,,,3.395192929,0,4.251676631,,,,,,,,,,,,,0,15,15,7,1,0.023467153,0,,,,,,,,,,,,,,,,,,,,,,,,,,,,,,,,,,,,,,,,,,,,,,,,,,,,,,,,,,,,,,,,,,,,,,,,,,,,,,,,
,,6102261419c471b68458a7b4,2022-09-08_11h50.27.103,CGTgamblingSpanTasks,2022.2.1,Win32,59.94485074,,,,,,,,2.8496,,,,,,,,,,,,,,1,v,1.1504,27.7711693,1,4.3496,1.5,,,,,,27.7711693,0,2.320849632,,,,,,,,,,,,,0,16,16,94,1,0.543786368,1,,,,,,,,,,,,,,,,,,,,,,,,,,,,,,,,,,,,,,,,,,,,,,,,,,,,,,,,,,,,,,,,,,,,,,,,,,,,,,,,
,,6102261419c471b68458a7b4,2022-09-08_11h50.27.103,CGTgamblingSpanTasks,2022.2.1,Win32,59.94485074,,,,,,,,2.9826,,,,,,,,,,,,,,2,n,1.0174,0,1,3.9826,1,,,,,,22.25959835,0,0.065383587,,,,,,,,,,,,,0,17,17,97,1,0.907413875,0,,,,,,,,,,,,,,,,,,,,,,,,,,,,,,,,,,,,,,,,,,,,,,,,,,,,,,,,,,,,,,,,,,,,,,,,,,,,,,,,
,,6102261419c471b68458a7b4,2022-09-08_11h50.27.103,CGTgamblingSpanTasks,2022.2.1,Win32,59.94485074,,,,,,,,2.083,,,,,,,,,,,,,,1,n,1.917,6.091504705,0,3.083,1,,,,,,6.662965216,0,6.091504705,,,,,,,,,,,,,0,18,18,102,1,0.035087099,0,,,,,,,,,,,,,,,,,,,,,,,,,,,,,,,,,,,,,,,,,,,,,,,,,,,,,,,,,,,,,,,,,,,,,,,,,,,,,,,,
,,6102261419c471b68458a7b4,2022-09-08_11h50.27.103,CGTgamblingSpanTasks,2022.2.1,Win32,59.94485074,,,,,,,,2.7617,,,,,,,,,,,,,,2,n,1.2383,0,1,3.7617,1,,,,,,17.5608285,0,1.825111303,,,,,,,,,,,,,0,19,19,104,1,0.487721116,1,,,,,,,,,,,,,,,,,,,,,,,,,,,,,,,,,,,,,,,,,,,,,,,,,,,,,,,,,,,,,,,,,,,,,,,,,,,,,,,,
,,6102261419c471b68458a7b4,2022-09-08_11h50.27.103,CGTgamblingSpanTasks,2022.2.1,Win32,59.94485074,,,,,,,,2.8066,,,,,,,,,,,,,,1,v,1.1934,0,1,4.3066,1.5,,,,,,17.30137174,0,1.716380842,,,,,,,,,,,,,0,20,20,20,1,0.500020285,1,,,,,,,,,,,,,,,,,,,,,,,,,,,,,,,,,,,,,,,,,,,,,,,,,,,,,,,,,,,,,,,,,,,,,,,,,,,,,,,,
,,6102261419c471b68458a7b4,2022-09-08_11h50.27.103,CGTgamblingSpanTasks,2022.2.1,Win32,59.94485074,,,,,,,,2.9923,,,,,,,,,,,,,,2,v,1.0077,11.61882862,0,3.9923,1,,,,,,4.022743614,0,11.61882862,,,,,,,,,,,,,0,21,21,38,1,0.011499376,0,,,,,,,,,,,,,,,,,,,,,,,,,,,,,,,,,,,,,,,,,,,,,,,,,,,,,,,,,,,,,,,,,,,,,,,,,,,,,,,,
,,6102261419c471b68458a7b4,2022-09-08_11h50.27.103,CGTgamblingSpanTasks,2022.2.1,Win32,59.94485074,,,,,,,,2.54,,,,,,,,,,,,,,2,v,1.46,8.653432553,0,3.54,1,,,,,,15.13999312,0,8.653432553,,,,,,,,,,,,,0,22,22,54,1,0.081767484,0,,,,,,,,,,,,,,,,,,,,,,,,,,,,,,,,,,,,,,,,,,,,,,,,,,,,,,,,,,,,,,,,,,,,,,,,,,,,,,,,
,,6102261419c471b68458a7b4,2022-09-08_11h50.27.103,CGTgamblingSpanTasks,2022.2.1,Win32,59.94485074,,,,,,,,3.2724,,,,,,,,,,,,,,1,v,0.7276,22.72923833,1,4.7724,1.5,,,,,,22.72923833,0,0.067170781,,,,,,,,,,,,,0,23,23,86,1,0.907226703,0,,,,,,,,,,,,,,,,,,,,,,,,,,,,,,,,,,,,,,,,,,,,,,,,,,,,,,,,,,,,,,,,,,,,,,,,,,,,,,,,
,,6102261419c471b68458a7b4,2022-09-08_11h50.27.103,CGTgamblingSpanTasks,2022.2.1,Win32,59.94485074,,,,,,,,3.0814,,,,,,,,,,,,,,1,v,0.9186,0,1,4.0814,1,,,,,,11.08143071,0,1.207538756,,,,,,,,,,,,,0,24,24,84,1,0.475047453,1,,,,,,,,,,,,,,,,,,,,,,,,,,,,,,,,,,,,,,,,,,,,,,,,,,,,,,,,,,,,,,,,,,,,,,,,,,,,,,,,
,,6102261419c471b68458a7b4,2022-09-08_11h50.27.103,CGTgamblingSpanTasks,2022.2.1,Win32,59.94485074,,,,,,,,3.1494,,,,,,,,,,,,,,2,n,0.8506,0,1,4.1494,1,,,,,,27.76752685,0,0.083968035,,,,,,,,,,,,,0,25,25,13,1,0.906513967,0,,,,,,,,,,,,,,,,,,,,,,,,,,,,,,,,,,,,,,,,,,,,,,,,,,,,,,,,,,,,,,,,,,,,,,,,,,,,,,,,
,,6102261419c471b68458a7b4,2022-09-08_11h50.27.103,CGTgamblingSpanTasks,2022.2.1,Win32,59.94485074,,,,,,,,2.6599,,,,,,,,,,,,,,1,v,1.3401,0,1,4.1599,1.5,,,,,,14.20587264,0,11.93550497,,,,,,,,,,,,,0,26,26,21,1,0.041340301,0,,,,,,,,,,,,,,,,,,,,,,,,,,,,,,,,,,,,,,,,,,,,,,,,,,,,,,,,,,,,,,,,,,,,,,,,,,,,,,,,
,,6102261419c471b68458a7b4,2022-09-08_11h50.27.103,CGTgamblingSpanTasks,2022.2.1,Win32,59.94485074,,,,,,,,3.0994,,,,,,,,,,,,,,1,v,0.9006,0,1,4.0994,1,,,,,,18.50662664,0,0.052546026,,,,,,,,,,,,,0,27,27,112,1,0.908444837,0,,,,,,,,,,,,,,,,,,,,,,,,,,,,,,,,,,,,,,,,,,,,,,,,,,,,,,,,,,,,,,,,,,,,,,,,,,,,,,,,
,,6102261419c471b68458a7b4,2022-09-08_11h50.27.103,CGTgamblingSpanTasks,2022.2.1,Win32,59.94485074,,,,,,,,2.9301,,,,,,,,,,,,,,1,v,1.0699,18.20422443,1,4.4301,1.5,,,,,,18.20422443,0,1.635040165,,,,,,,,,,,,,0,28,28,82,1,0.525708991,1,,,,,,,,,,,,,,,,,,,,,,,,,,,,,,,,,,,,,,,,,,,,,,,,,,,,,,,,,,,,,,,,,,,,,,,,,,,,,,,,
,,6102261419c471b68458a7b4,2022-09-08_11h50.27.103,CGTgamblingSpanTasks,2022.2.1,Win32,59.94485074,,,,,,,,2.7232,,,,,,,,,,,,,,2,n,1.2768,27.12325385,1,3.7232,1,,,,,,27.12325385,0,0.080932047,,,,,,,,,,,,,0,29,29,14,1,0.906929184,0,,,,,,,,,,,,,,,,,,,,,,,,,,,,,,,,,,,,,,,,,,,,,,,,,,,,,,,,,,,,,,,,,,,,,,,,,,,,,,,,
,,6102261419c471b68458a7b4,2022-09-08_11h50.27.103,CGTgamblingSpanTasks,2022.2.1,Win32,59.94485074,,,,,,,,3.2158,,,,,,,,,,,,,,2,n,0.7842,25.54604005,1,4.2158,1,,,,,,25.54604005,0,0.088845411,,,,,,,,,,,,,0,30,30,79,1,0.901957831,0,,,,,,,,,,,,,,,,,,,,,,,,,,,,,,,,,,,,,,,,,,,,,,,,,,,,,,,,,,,,,,,,,,,,,,,,,,,,,,,,
,,6102261419c471b68458a7b4,2022-09-08_11h50.27.103,CGTgamblingSpanTasks,2022.2.1,Win32,59.94485074,,,,,,,,3.1252,,,,,,,,,,,,,,1,v,0.8748,0,1,4.1252,1,,,,,,27.57491653,0,2.99133314,,,,,,,,,,,,,0,31,31,10,1,0.47625893,1,,,,,,,,,,,,,,,,,,,,,,,,,,,,,,,,,,,,,,,,,,,,,,,,,,,,,,,,,,,,,,,,,,,,,,,,,,,,,,,,
,,6102261419c471b68458a7b4,2022-09-08_11h50.27.103,CGTgamblingSpanTasks,2022.2.1,Win32,59.94485074,,,,,,,,2.6161,,,,,,,,,,,,,,2,v,1.3839,6.833409611,0,4.1161,1.5,,,,,,6.325091157,0,6.833409611,,,,,,,,,,,,,0,32,32,58,1,0.027113638,0,,,,,,,,,,,,,,,,,,,,,,,,,,,,,,,,,,,,,,,,,,,,,,,,,,,,,,,,,,,,,,,,,,,,,,,,,,,,,,,,
,,6102261419c471b68458a7b4,2022-09-08_11h50.27.103,CGTgamblingSpanTasks,2022.2.1,Win32,59.94485074,,,,,,,,3.1232,,,,,,,,,,,,,,1,v,0.8768,18.51345298,1,4.1232,1,,,,,,18.51345298,0,1.932334278,,,,,,,,,,,,,0,33,33,31,1,0.48658696,1,,,,,,,,,,,,,,,,,,,,,,,,,,,,,,,,,,,,,,,,,,,,,,,,,,,,,,,,,,,,,,,,,,,,,,,,,,,,,,,,
,,6102261419c471b68458a7b4,2022-09-08_11h50.27.103,CGTgamblingSpanTasks,2022.2.1,Win32,59.94485074,,,,,,,,3.0721,,,,,,,,,,,,,,2,n,0.9279,22.0050376,1,4.5721,1.5,,,,,,22.0050376,0,2.257683666,,,,,,,,,,,,,0,34,34,4,1,0.491147312,1,,,,,,,,,,,,,,,,,,,,,,,,,,,,,,,,,,,,,,,,,,,,,,,,,,,,,,,,,,,,,,,,,,,,,,,,,,,,,,,,
,,6102261419c471b68458a7b4,2022-09-08_11h50.27.103,CGTgamblingSpanTasks,2022.2.1,Win32,59.94485074,,,,,,,,3.0565,,,,,,,,,,,,,,2,n,0.9435,0,1,4.5565,1.5,,,,,,23.0613391,0,2.387726776,,,,,,,,,,,,,0,35,35,69,1,0.488727763,1,,,,,,,,,,,,,,,,,,,,,,,,,,,,,,,,,,,,,,,,,,,,,,,,,,,,,,,,,,,,,,,,,,,,,,,,,,,,,,,,
,,6102261419c471b68458a7b4,2022-09-08_11h50.27.103,CGTgamblingSpanTasks,2022.2.1,Win32,59.94485074,,,,,,,,2.6734,,,,,,,,,,,,,,2,v,1.3266,5.526483034,0,3.6734,1,,,,,,9.725876653,0,5.526483034,,,,,,,,,,,,,0,36,36,44,1,0.082550696,0,,,,,,,,,,,,,,,,,,,,,,,,,,,,,,,,,,,,,,,,,,,,,,,,,,,,,,,,,,,,,,,,,,,,,,,,,,,,,,,,
,,6102261419c471b68458a7b4,2022-09-08_11h50.27.103,CGTgamblingSpanTasks,2022.2.1,Win32,59.94485074,,,,,,,,3.1259,,,,,,,,,,,,,,2,n,0.8741,0,1,4.1259,1,,,,,,27.93093084,0,0.050207531,,,,,,,,,,,,,0,37,37,83,1,0.920505936,0,,,,,,,,,,,,,,,,,,,,,,,,,,,,,,,,,,,,,,,,,,,,,,,,,,,,,,,,,,,,,,,,,,,,,,,,,,,,,,,,
,,6102261419c471b68458a7b4,2022-09-08_11h50.27.103,CGTgamblingSpanTasks,2022.2.1,Win32,59.94485074,,,,,,,,2.9658,,,,,,,,,,,,,,1,v,1.0342,0,1,3.9658,1,,,,,,19.5450126,0,2.123581464,,,,,,,,,,,,,0,38,38,65,1,0.475836144,1,,,,,,,,,,,,,,,,,,,,,,,,,,,,,,,,,,,,,,,,,,,,,,,,,,,,,,,,,,,,,,,,,,,,,,,,,,,,,,,,
,,6102261419c471b68458a7b4,2022-09-08_11h50.27.103,CGTgamblingSpanTasks,2022.2.1,Win32,59.94485074,,,,,,,,2.9829,,,,,,,,,,,,,,1,v,1.0171,0,1,3.9829,1,,,,,,26.11188619,0,0.081942421,,,,,,,,,,,,,0,39,39,105,1,0.905343856,0,,,,,,,,,,,,,,,,,,,,,,,,,,,,,,,,,,,,,,,,,,,,,,,,,,,,,,,,,,,,,,,,,,,,,,,,,,,,,,,,
,,6102261419c471b68458a7b4,2022-09-08_11h50.27.103,CGTgamblingSpanTasks,2022.2.1,Win32,59.94485074,,,,,,,,3.2492,,,,,,,,,,,,,,1,v,0.7508,0,1,4.2492,1,,,,,,19.3050342,0,2.030232342,,,,,,,,,,,,,0,40,40,73,1,0.484573227,1,,,,,,,,,,,,,,,,,,,,,,,,,,,,,,,,,,,,,,,,,,,,,,,,,,,,,,,,,,,,,,,,,,,,,,,,,,,,,,,,
,,6102261419c471b68458a7b4,2022-09-08_11h50.27.103,CGTgamblingSpanTasks,2022.2.1,Win32,59.94485074,,,,,,,,3.1659,,,,,,,,,,,,,,1,v,0.8341,21.2188881,1,4.6659,1.5,,,,,,21.2188881,0,2.067660742,,,,,,,,,,,,,0,41,41,107,1,0.50470775,1,,,,,,,,,,,,,,,,,,,,,,,,,,,,,,,,,,,,,,,,,,,,,,,,,,,,,,,,,,,,,,,,,,,,,,,,,,,,,,,,
,,6102261419c471b68458a7b4,2022-09-08_11h50.27.103,CGTgamblingSpanTasks,2022.2.1,Win32,59.94485074,,,,,,,,3.1826,,,,,,,,,,,,,,1,v,0.8174,0,1,4.1826,1,,,,,,21.03408097,0,2.208275162,,,,,,,,,,,,,0,42,42,0,1,0.485031246,1,,,,,,,,,,,,,,,,,,,,,,,,,,,,,,,,,,,,,,,,,,,,,,,,,,,,,,,,,,,,,,,,,,,,,,,,,,,,,,,,
,,6102261419c471b68458a7b4,2022-09-08_11h50.27.103,CGTgamblingSpanTasks,2022.2.1,Win32,59.94485074,,,,,,,,3.0405,,,,,,,,,,,,,,1,v,0.9595,27.53810185,1,4.0405,1,,,,,,27.53810185,0,0.097022401,,,,,,,,,,,,,0,43,43,50,1,0.901515865,0,,,,,,,,,,,,,,,,,,,,,,,,,,,,,,,,,,,,,,,,,,,,,,,,,,,,,,,,,,,,,,,,,,,,,,,,,,,,,,,,
,,6102261419c471b68458a7b4,2022-09-08_11h50.27.103,CGTgamblingSpanTasks,2022.2.1,Win32,59.94485074,,,,,,,,3.1491,,,,,,,,,,,,,,2,n,0.8509,26.36733703,1,4.1491,1,,,,,,26.36733703,0,2.201057101,,,,,,,,,,,,,0,44,44,90,1,0.544064207,1,,,,,,,,,,,,,,,,,,,,,,,,,,,,,,,,,,,,,,,,,,,,,,,,,,,,,,,,,,,,,,,,,,,,,,,,,,,,,,,,
,,6102261419c471b68458a7b4,2022-09-08_11h50.27.103,CGTgamblingSpanTasks,2022.2.1,Win32,59.94485074,,,,,,,,3.2426,,,,,,,,,,,,,,1,v,0.7574,25.21882231,1,4.7426,1.5,,,,,,25.21882231,0,0.085746782,,,,,,,,,,,,,0,45,45,64,1,0.90272076,0,,,,,,,,,,,,,,,,,,,,,,,,,,,,,,,,,,,,,,,,,,,,,,,,,,,,,,,,,,,,,,,,,,,,,,,,,,,,,,,,
,,6102261419c471b68458a7b4,2022-09-08_11h50.27.103,CGTgamblingSpanTasks,2022.2.1,Win32,59.94485074,,,,,,,,3.2827,,,,,,,,,,,,,,1,v,0.7173,27.60724521,1,4.2827,1,,,,,,27.60724521,0,0.088432325,,,,,,,,,,,,,0,46,46,17,1,0.904684186,0,,,,,,,,,,,,,,,,,,,,,,,,,,,,,,,,,,,,,,,,,,,,,,,,,,,,,,,,,,,,,,,,,,,,,,,,,,,,,,,,
,,6102261419c471b68458a7b4,2022-09-08_11h50.27.103,CGTgamblingSpanTasks,2022.2.1,Win32,59.94485074,,,,,,,,2.9126,,,,,,,,,,,,,,1,v,1.0874,0,1,3.9126,1,,,,,,28.33977875,0,2.768313633,,,,,,,,,,,,,0,47,47,116,1,0.50406901,1,,,,,,,,,,,,,,,,,,,,,,,,,,,,,,,,,,,,,,,,,,,,,,,,,,,,,,,,,,,,,,,,,,,,,,,,,,,,,,,,
,,6102261419c471b68458a7b4,2022-09-08_11h50.27.103,CGTgamblingSpanTasks,2022.2.1,Win32,59.94485074,,,,,,,,3.0659,,,,,,,,,,,,,,2,n,0.9341,0,1,4.5659,1.5,,,,,,23.4214135,0,2.485985001,,,,,,,,,,,,,0,48,48,81,1,0.482105905,1,,,,,,,,,,,,,,,,,,,,,,,,,,,,,,,,,,,,,,,,,,,,,,,,,,,,,,,,,,,,,,,,,,,,,,,,,,,,,,,,
,,6102261419c471b68458a7b4,2022-09-08_11h50.27.103,CGTgamblingSpanTasks,2022.2.1,Win32,59.94485074,,,,,,,,3.2233,,,,,,,,,,,,,,1,v,0.7767,20.5726842,1,4.2233,1,,,,,,20.5726842,0,0.073558523,,,,,,,,,,,,,0,49,49,26,1,0.901008565,0,,,,,,,,,,,,,,,,,,,,,,,,,,,,,,,,,,,,,,,,,,,,,,,,,,,,,,,,,,,,,,,,,,,,,,,,,,,,,,,,
,,6102261419c471b68458a7b4,2022-09-08_11h50.27.103,CGTgamblingSpanTasks,2022.2.1,Win32,59.94485074,,,,,,,,2.9992,,,,,,,,,,,,,,2,v,1.0008,7.646213173,0,4.4992,1.5,,,,,,2.042350179,0,7.646213173,,,,,,,,,,,,,0,50,50,53,1,0.009522273,0,,,,,,,,,,,,,,,,,,,,,,,,,,,,,,,,,,,,,,,,,,,,,,,,,,,,,,,,,,,,,,,,,,,,,,,,,,,,,,,,
,,6102261419c471b68458a7b4,2022-09-08_11h50.27.103,CGTgamblingSpanTasks,2022.2.1,Win32,59.94485074,,,,,,,,2.6774,,,,,,,,,,,,,,2,n,1.3226,0,1,3.6774,1,,,,,,17.85020524,0,2.058701084,,,,,,,,,,,,,0,51,51,25,1,0.459662216,1,,,,,,,,,,,,,,,,,,,,,,,,,,,,,,,,,,,,,,,,,,,,,,,,,,,,,,,,,,,,,,,,,,,,,,,,,,,,,,,,
,,6102261419c471b68458a7b4,2022-09-08_11h50.27.103,CGTgamblingSpanTasks,2022.2.1,Win32,59.94485074,,,,,,,,2.5993,,,,,,,,,,,,,,2,n,1.4007,0,1,3.5993,1,,,,,,17.92584289,0,1.878232496,,,,,,,,,,,,,0,52,52,5,1,0.485559263,1,,,,,,,,,,,,,,,,,,,,,,,,,,,,,,,,,,,,,,,,,,,,,,,,,,,,,,,,,,,,,,,,,,,,,,,,,,,,,,,,
,,6102261419c471b68458a7b4,2022-09-08_11h50.27.103,CGTgamblingSpanTasks,2022.2.1,Win32,59.94485074,,,,,,,,1.6824,,,,,,,,,,,,,,2,v,2.3176,6.781500919,0,3.1824,1.5,,,,,,8.363821911,0,6.781500919,,,,,,,,,,,,,0,53,53,61,1,0.044227959,0,,,,,,,,,,,,,,,,,,,,,,,,,,,,,,,,,,,,,,,,,,,,,,,,,,,,,,,,,,,,,,,,,,,,,,,,,,,,,,,,
,,6102261419c471b68458a7b4,2022-09-08_11h50.27.103,CGTgamblingSpanTasks,2022.2.1,Win32,59.94485074,,,,,,,,3.0968,,,,,,,,,,,,,,2,v,0.9032,10.31611309,0,4.5968,1.5,,,,,,19.30622782,0,10.31611309,,,,,,,,,,,,,0,54,54,1,1,0.091105656,0,,,,,,,,,,,,,,,,,,,,,,,,,,,,,,,,,,,,,,,,,,,,,,,,,,,,,,,,,,,,,,,,,,,,,,,,,,,,,,,,
,,6102261419c471b68458a7b4,2022-09-08_11h50.27.103,CGTgamblingSpanTasks,2022.2.1,Win32,59.94485074,,,,,,,,3.162,,,,,,,,,,,,,,1,v,0.838,0,1,4.162,1,,,,,,13.96521039,0,1.591282699,,,,,,,,,,,,,0,55,55,49,1,0.462956344,1,,,,,,,,,,,,,,,,,,,,,,,,,,,,,,,,,,,,,,,,,,,,,,,,,,,,,,,,,,,,,,,,,,,,,,,,,,,,,,,,
,,6102261419c471b68458a7b4,2022-09-08_11h50.27.103,CGTgamblingSpanTasks,2022.2.1,Win32,59.94485074,,,,,,,,2.6469,,,,,,,,,,,,,,1,n,1.3531,8.42547829,0,4.1469,1.5,,,,,,15.87668502,0,8.42547829,,,,,,,,,,,,,0,56,56,56,1,0.092099462,0,,,,,,,,,,,,,,,,,,,,,,,,,,,,,,,,,,,,,,,,,,,,,,,,,,,,,,,,,,,,,,,,,,,,,,,,,,,,,,,,
,,6102261419c471b68458a7b4,2022-09-08_11h50.27.103,CGTgamblingSpanTasks,2022.2.1,Win32,59.94485074,,,,,,,,2.9284,,,,,,,,,,,,,,2,n,1.0716,0,1,4.4284,1.5,,,,,,27.39221343,0,2.743407746,,,,,,,,,,,,,0,57,57,47,1,0.49752044,1,,,,,,,,,,,,,,,,,,,,,,,,,,,,,,,,,,,,,,,,,,,,,,,,,,,,,,,,,,,,,,,,,,,,,,,,,,,,,,,,
,,6102261419c471b68458a7b4,2022-09-08_11h50.27.103,CGTgamblingSpanTasks,2022.2.1,Win32,59.94485074,,,,,,,,2.8165,,,,,,,,,,,,,,2,n,1.1835,20.31034258,1,3.8165,1,,,,,,20.31034258,0,1.870404296,,,,,,,,,,,,,0,58,58,85,1,0.519325853,1,,,,,,,,,,,,,,,,,,,,,,,,,,,,,,,,,,,,,,,,,,,,,,,,,,,,,,,,,,,,,,,,,,,,,,,,,,,,,,,,
,,6102261419c471b68458a7b4,2022-09-08_11h50.27.103,CGTgamblingSpanTasks,2022.2.1,Win32,59.94485074,,,,,,,,2.8302,,,,,,,,,,,,,,1,v,1.1698,0,1,4.3302,1.5,,,,,,27.77179191,0,0.074524436,,,,,,,,,,,,,0,59,59,99,1,0.910114387,0,,,,,,,,,,,,,,,,,,,,,,,,,,,,,,,,,,,,,,,,,,,,,,,,,,,,,,,,,,,,,,,,,,,,,,,,,,,,,,,,
,,6102261419c471b68458a7b4,2022-09-08_11h50.27.103,CGTgamblingSpanTasks,2022.2.1,Win32,59.94485074,,,,,,,,3.1494,,,,,,,,,,,,,,1,v,0.8506,13.84410806,1,4.1494,1,,,,,,13.84410806,0,1.535873964,,,,,,,,,,,,,0,60,60,88,1,0.470209002,1,,,,,,,,,,,,,,,,,,,,,,,,,,,,,,,,,,,,,,,,,,,,,,,,,,,,,,,,,,,,,,,,,,,,,,,,,,,,,,,,
,,6102261419c471b68458a7b4,2022-09-08_11h50.27.103,CGTgamblingSpanTasks,2022.2.1,Win32,59.94485074,,,,,,,,3.0665,,,,,,,,,,,,,,2,n,0.9335,24.8002852,1,4.5665,1.5,,,,,,24.8002852,0,0.071848086,,,,,,,,,,,,,0,61,61,16,1,0.90783559,0,,,,,,,,,,,,,,,,,,,,,,,,,,,,,,,,,,,,,,,,,,,,,,,,,,,,,,,,,,,,,,,,,,,,,,,,,,,,,,,,
,,6102261419c471b68458a7b4,2022-09-08_11h50.27.103,CGTgamblingSpanTasks,2022.2.1,Win32,59.94485074,,,,,,,,3.2992,,,,,,,,,,,,,,2,n,0.7008,0,1,4.2992,1,,,,,,28.68598705,0,0.050674956,,,,,,,,,,,,,0,62,62,62,1,0.920905497,0,,,,,,,,,,,,,,,,,,,,,,,,,,,,,,,,,,,,,,,,,,,,,,,,,,,,,,,,,,,,,,,,,,,,,,,,,,,,,,,,
,,6102261419c471b68458a7b4,2022-09-08_11h50.27.103,CGTgamblingSpanTasks,2022.2.1,Win32,59.94485074,,,,,,,,2.4827,,,,,,,,,,,,,,2,n,1.5173,28.13634754,1,3.9827,1.5,,,,,,28.13634754,0,2.532806323,,,,,,,,,,,,,0,63,63,28,1,0.525136524,1,,,,,,,,,,,,,,,,,,,,,,,,,,,,,,,,,,,,,,,,,,,,,,,,,,,,,,,,,,,,,,,,,,,,,,,,,,,,,,,,
,,6102261419c471b68458a7b4,2022-09-08_11h50.27.103,CGTgamblingSpanTasks,2022.2.1,Win32,59.94485074,,,,,,,,2.9649,,,,,,,,,,,,,,1,v,1.0351,0,1,3.9649,1,,,,,,7.534278541,0,0.747140182,,,,,,,,,,,,,0,64,64,37,1,0.50012466,1,,,,,,,,,,,,,,,,,,,,,,,,,,,,,,,,,,,,,,,,,,,,,,,,,,,,,,,,,,,,,,,,,,,,,,,,,,,,,,,,
,,6102261419c471b68458a7b4,2022-09-08_11h50.27.103,CGTgamblingSpanTasks,2022.2.1,Win32,59.94485074,,,,,,,,3.082,,,,,,,,,,,,,,2,n,0.918,0,1,4.582,1.5,,,,,,24.66627941,0,2.765426402,,,,,,,,,,,,,0,65,65,24,1,0.467360588,1,,,,,,,,,,,,,,,,,,,,,,,,,,,,,,,,,,,,,,,,,,,,,,,,,,,,,,,,,,,,,,,,,,,,,,,,,,,,,,,,
,,6102261419c471b68458a7b4,2022-09-08_11h50.27.103,CGTgamblingSpanTasks,2022.2.1,Win32,59.94485074,,,,,,,,2.6116,,,,,,,,,,,,,,1,n,1.3884,4.904872644,0,3.6116,1,,,,,,4.698775357,0,4.904872644,,,,,,,,,,,,,0,66,66,75,1,0.028064484,0,,,,,,,,,,,,,,,,,,,,,,,,,,,,,,,,,,,,,,,,,,,,,,,,,,,,,,,,,,,,,,,,,,,,,,,,,,,,,,,,
,,6102261419c471b68458a7b4,2022-09-08_11h50.27.103,CGTgamblingSpanTasks,2022.2.1,Win32,59.94485074,,,,,,,,2.4156,,,,,,,,,,,,,,1,n,1.5844,11.35147481,0,3.4156,1,,,,,,17.67865084,0,11.35147481,,,,,,,,,,,,,0,67,67,91,1,0.067304606,0,,,,,,,,,,,,,,,,,,,,,,,,,,,,,,,,,,,,,,,,,,,,,,,,,,,,,,,,,,,,,,,,,,,,,,,,,,,,,,,,
,,6102261419c471b68458a7b4,2022-09-08_11h50.27.103,CGTgamblingSpanTasks,2022.2.1,Win32,59.94485074,,,,,,,,2.9328,,,,,,,,,,,,,,1,v,1.0672,0,1,3.9328,1,,,,,,28.9381277,0,2.663622024,,,,,,,,,,,,,0,68,68,103,1,0.519453367,1,,,,,,,,,,,,,,,,,,,,,,,,,,,,,,,,,,,,,,,,,,,,,,,,,,,,,,,,,,,,,,,,,,,,,,,,,,,,,,,,
,,6102261419c471b68458a7b4,2022-09-08_11h50.27.103,CGTgamblingSpanTasks,2022.2.1,Win32,59.94485074,,,,,,,,2.5494,,,,,,,,,,,,,,1,n,1.4506,11.6744431,0,4.0494,1.5,,,,,,10.43004651,0,11.6744431,,,,,,,,,,,,,0,69,69,15,1,0.026176489,0,,,,,,,,,,,,,,,,,,,,,,,,,,,,,,,,,,,,,,,,,,,,,,,,,,,,,,,,,,,,,,,,,,,,,,,,,,,,,,,,
,,6102261419c471b68458a7b4,2022-09-08_11h50.27.103,CGTgamblingSpanTasks,2022.2.1,Win32,59.94485074,,,,,,,,2.3993,,,,,,,,,,,,,,2,v,1.6007,11.42134125,0,3.3993,1,,,,,,12.9904115,0,11.42134125,,,,,,,,,,,,,0,70,70,118,1,0.037876033,0,,,,,,,,,,,,,,,,,,,,,,,,,,,,,,,,,,,,,,,,,,,,,,,,,,,,,,,,,,,,,,,,,,,,,,,,,,,,,,,,
,,6102261419c471b68458a7b4,2022-09-08_11h50.27.103,CGTgamblingSpanTasks,2022.2.1,Win32,59.94485074,,,,,,,,3.0095,,,,,,,,,,,,,,1,v,0.9905,25.56803059,1,4.5095,1.5,,,,,,25.56803059,0,2.543951743,,,,,,,,,,,,,0,71,71,41,1,0.499247217,1,,,,,,,,,,,,,,,,,,,,,,,,,,,,,,,,,,,,,,,,,,,,,,,,,,,,,,,,,,,,,,,,,,,,,,,,,,,,,,,,
,,6102261419c471b68458a7b4,2022-09-08_11h50.27.103,CGTgamblingSpanTasks,2022.2.1,Win32,59.94485074,,,,,,,,2.3783,,,,,,,,,,,,,,1,v,1.6217,26.4985979,1,3.8783,1.5,,,,,,26.4985979,0,0.051324376,,,,,,,,,,,,,0,72,72,106,1,0.918747215,0,,,,,,,,,,,,,,,,,,,,,,,,,,,,,,,,,,,,,,,,,,,,,,,,,,,,,,,,,,,,,,,,,,,,,,,,,,,,,,,,
,,6102261419c471b68458a7b4,2022-09-08_11h50.27.103,CGTgamblingSpanTasks,2022.2.1,Win32,59.94485074,,,,,,,,2.1789,,,,,,,,,,,,,,2,n,1.8211,0,1,3.6789,1.5,,,,,,13.4287264,0,1.317368801,,,,,,,,,,,,,0,73,73,100,1,0.502953125,1,,,,,,,,,,,,,,,,,,,,,,,,,,,,,,,,,,,,,,,,,,,,,,,,,,,,,,,,,,,,,,,,,,,,,,,,,,,,,,,,
,,6102261419c471b68458a7b4,2022-09-08_11h50.27.103,CGTgamblingSpanTasks,2022.2.1,Win32,59.94485074,,,,,,,,3.1824,,,,,,,,,,,,,,1,n,0.8176,7.50753835,0,4.6824,1.5,,,,,,2.231316635,0,7.50753835,,,,,,,,,,,,,0,74,74,29,1,0.010273427,0,,,,,,,,,,,,,,,,,,,,,,,,,,,,,,,,,,,,,,,,,,,,,,,,,,,,,,,,,,,,,,,,,,,,,,,,,,,,,,,,
,,6102261419c471b68458a7b4,2022-09-08_11h50.27.103,CGTgamblingSpanTasks,2022.2.1,Win32,59.94485074,,,,,,,,2.7488,,,,,,,,,,,,,,1,v,1.2512,0,1,3.7488,1,,,,,,27.88092897,0,2.771762788,,,,,,,,,,,,,0,75,75,117,1,0.499466648,1,,,,,,,,,,,,,,,,,,,,,,,,,,,,,,,,,,,,,,,,,,,,,,,,,,,,,,,,,,,,,,,,,,,,,,,,,,,,,,,,
,,6102261419c471b68458a7b4,2022-09-08_11h50.27.103,CGTgamblingSpanTasks,2022.2.1,Win32,59.94485074,,,,,,,,2.3658,,,,,,,,,,,,,,1,v,1.6342,28.94627214,1,3.8658,1.5,,,,,,28.94627214,0,2.701896413,,,,,,,,,,,,,0,76,76,111,1,0.515860759,1,,,,,,,,,,,,,,,,,,,,,,,,,,,,,,,,,,,,,,,,,,,,,,,,,,,,,,,,,,,,,,,,,,,,,,,,,,,,,,,,
,,6102261419c471b68458a7b4,2022-09-08_11h50.27.103,CGTgamblingSpanTasks,2022.2.1,Win32,59.94485074,,,,,,,,2.9479,,,,,,,,,,,,,,1,v,1.0521,0,1,4.4479,1.5,,,,,,23.24777057,0,2.003482335,,,,,,,,,,,,,0,77,77,59,1,0.536135174,1,,,,,,,,,,,,,,,,,,,,,,,,,,,,,,,,,,,,,,,,,,,,,,,,,,,,,,,,,,,,,,,,,,,,,,,,,,,,,,,,
,,6102261419c471b68458a7b4,2022-09-08_11h50.27.103,CGTgamblingSpanTasks,2022.2.1,Win32,59.94485074,,,,,,,,1.7652,,,,,,,,,,,,,,2,v,2.2348,4.462262453,0,3.2652,1.5,,,,,,0.192759042,0,4.462262453,,,,,,,,,,,,,0,78,78,52,1,0.003553223,0,,,,,,,,,,,,,,,,,,,,,,,,,,,,,,,,,,,,,,,,,,,,,,,,,,,,,,,,,,,,,,,,,,,,,,,,,,,,,,,,
,,6102261419c471b68458a7b4,2022-09-08_11h50.27.103,CGTgamblingSpanTasks,2022.2.1,Win32,59.94485074,,,,,,,,3.1262,,,,,,,,,,,,,,2,n,0.8738,0,1,4.1262,1,,,,,,8.670591867,0,1.025847652,,,,,,,,,,,,,0,79,79,18,1,0.452680459,1,,,,,,,,,,,,,,,,,,,,,,,,,,,,,,,,,,,,,,,,,,,,,,,,,,,,,,,,,,,,,,,,,,,,,,,,,,,,,,,,
,,6102261419c471b68458a7b4,2022-09-08_11h50.27.103,CGTgamblingSpanTasks,2022.2.1,Win32,59.94485074,,,,,,,,3.3392,,,,,,,,,,,,,,2,n,0.6608,0,1,4.8392,1.5,,,,,,25.0707644,0,0.067651625,,,,,,,,,,,,,0,80,80,70,1,0.909952349,0,,,,,,,,,,,,,,,,,,,,,,,,,,,,,,,,,,,,,,,,,,,,,,,,,,,,,,,,,,,,,,,,,,,,,,,,,,,,,,,,
,,6102261419c471b68458a7b4,2022-09-08_11h50.27.103,CGTgamblingSpanTasks,2022.2.1,Win32,59.94485074,,,,,,,,3.1992,,,,,,,,,,,,,,1,v,0.8008,0,1,4.6992,1.5,,,,,,27.37527992,0,2.860319095,,,,,,,,,,,,,0,81,81,39,1,0.486304156,1,,,,,,,,,,,,,,,,,,,,,,,,,,,,,,,,,,,,,,,,,,,,,,,,,,,,,,,,,,,,,,,,,,,,,,,,,,,,,,,,
,,6102261419c471b68458a7b4,2022-09-08_11h50.27.103,CGTgamblingSpanTasks,2022.2.1,Win32,59.94485074,,,,,,,,3.1412,,,,,,,,,,,,,,2,n,0.8588,0,1,4.6412,1.5,,,,,,27.94544945,0,2.32030209,,,,,,,,,,,,,0,82,82,115,1,0.545390564,1,,,,,,,,,,,,,,,,,,,,,,,,,,,,,,,,,,,,,,,,,,,,,,,,,,,,,,,,,,,,,,,,,,,,,,,,,,,,,,,,
,,6102261419c471b68458a7b4,2022-09-08_11h50.27.103,CGTgamblingSpanTasks,2022.2.1,Win32,59.94485074,,,,,,,,3.0456,,,,,,,,,,,,,,1,v,0.9544,28.9323758,1,4.5456,1.5,,,,,,28.9323758,0,2.893007023,,,,,,,,,,,,,0,83,83,11,1,0.497943321,1,,,,,,,,,,,,,,,,,,,,,,,,,,,,,,,,,,,,,,,,,,,,,,,,,,,,,,,,,,,,,,,,,,,,,,,,,,,,,,,,
,,6102261419c471b68458a7b4,2022-09-08_11h50.27.103,CGTgamblingSpanTasks,2022.2.1,Win32,59.94485074,,,,,,,,2.9745,,,,,,,,,,,,,,1,v,1.0255,0,1,3.9745,1,,,,,,10.05300841,0,8.512335864,,,,,,,,,,,,,0,84,84,74,1,0.040729225,0,,,,,,,,,,,,,,,,,,,,,,,,,,,,,,,,,,,,,,,,,,,,,,,,,,,,,,,,,,,,,,,,,,,,,,,,,,,,,,,,
,,6102261419c471b68458a7b4,2022-09-08_11h50.27.103,CGTgamblingSpanTasks,2022.2.1,Win32,59.94485074,,,,,,,,3.2496,,,,,,,,,,,,,,2,n,0.7504,22.87092517,1,4.7496,1.5,,,,,,22.87092517,0,0.059276504,,,,,,,,,,,,,0,85,85,27,1,0.911114935,0,,,,,,,,,,,,,,,,,,,,,,,,,,,,,,,,,,,,,,,,,,,,,,,,,,,,,,,,,,,,,,,,,,,,,,,,,,,,,,,,
,,6102261419c471b68458a7b4,2022-09-08_11h50.27.103,CGTgamblingSpanTasks,2022.2.1,Win32,59.94485074,,,,,,,,2.8996,,,,,,,,,,,,,,2,n,1.1004,0,1,4.3996,1.5,,,,,,23.59556381,0,2.464662219,,,,,,,,,,,,,0,86,86,22,1,0.486383205,1,,,,,,,,,,,,,,,,,,,,,,,,,,,,,,,,,,,,,,,,,,,,,,,,,,,,,,,,,,,,,,,,,,,,,,,,,,,,,,,,
,,6102261419c471b68458a7b4,2022-09-08_11h50.27.103,CGTgamblingSpanTasks,2022.2.1,Win32,59.94485074,,,,,,,,2.6776,,,,,,,,,,,,,,2,n,1.3224,19.58698544,1,3.6776,1,,,,,,19.58698544,0,9.936178001,,,,,,,,,,,,,0,87,87,77,1,0.098812204,0,,,,,,,,,,,,,,,,,,,,,,,,,,,,,,,,,,,,,,,,,,,,,,,,,,,,,,,,,,,,,,,,,,,,,,,,,,,,,,,,
,,6102261419c471b68458a7b4,2022-09-08_11h50.27.103,CGTgamblingSpanTasks,2022.2.1,Win32,59.94485074,,,,,,,,2.7785,,,,,,,,,,,,,,1,v,1.2215,0,1,4.2785,1.5,,,,,,15.73000491,0,8.830252162,,,,,,,,,,,,,0,88,88,95,1,0.084193143,0,,,,,,,,,,,,,,,,,,,,,,,,,,,,,,,,,,,,,,,,,,,,,,,,,,,,,,,,,,,,,,,,,,,,,,,,,,,,,,,,
,,6102261419c471b68458a7b4,2022-09-08_11h50.27.103,CGTgamblingSpanTasks,2022.2.1,Win32,59.94485074,,,,,,,,3.1309,,,,,,,,,,,,,,2,n,0.8691,0,1,4.6309,1.5,,,,,,22.86604061,0,2.293289792,,,,,,,,,,,,,0,89,89,51,1,0.49715382,1,,,,,,,,,,,,,,,,,,,,,,,,,,,,,,,,,,,,,,,,,,,,,,,,,,,,,,,,,,,,,,,,,,,,,,,,,,,,,,,,
,,6102261419c471b68458a7b4,2022-09-08_11h50.27.103,CGTgamblingSpanTasks,2022.2.1,Win32,59.94485074,,,,,,,,3.2158,,,,,,,,,,,,,,1,v,0.7842,21.48443242,1,4.2158,1,,,,,,21.48443242,0,2.229247341,,,,,,,,,,,,,0,90,90,63,1,0.488155912,1,,,,,,,,,,,,,,,,,,,,,,,,,,,,,,,,,,,,,,,,,,,,,,,,,,,,,,,,,,,,,,,,,,,,,,,,,,,,,,,,
,,6102261419c471b68458a7b4,2022-09-08_11h50.27.103,CGTgamblingSpanTasks,2022.2.1,Win32,59.94485074,,,,,,,,2.9776,,,,,,,,,,,,,,2,n,1.0224,0,1,4.4776,1.5,,,,,,29.77342428,0,2.838865588,,,,,,,,,,,,,0,91,91,57,1,0.510363415,1,,,,,,,,,,,,,,,,,,,,,,,,,,,,,,,,,,,,,,,,,,,,,,,,,,,,,,,,,,,,,,,,,,,,,,,,,,,,,,,,
,,6102261419c471b68458a7b4,2022-09-08_11h50.27.103,CGTgamblingSpanTasks,2022.2.1,Win32,59.94485074,,,,,,,,3.066,,,,,,,,,,,,,,2,n,0.934,0,1,4.566,1.5,,,,,,21.7711579,0,2.502728921,,,,,,,,,,,,,0,92,92,101,1,0.460552621,1,,,,,,,,,,,,,,,,,,,,,,,,,,,,,,,,,,,,,,,,,,,,,,,,,,,,,,,,,,,,,,,,,,,,,,,,,,,,,,,,
,,6102261419c471b68458a7b4,2022-09-08_11h50.27.103,CGTgamblingSpanTasks,2022.2.1,Win32,59.94485074,,,,,,,,2.9075,,,,,,,,,,,,,,1,v,1.0925,21.00799273,1,4.4075,1.5,,,,,,21.00799273,0,0.067969053,,,,,,,,,,,,,0,93,93,92,1,0.904360262,0,,,,,,,,,,,,,,,,,,,,,,,,,,,,,,,,,,,,,,,,,,,,,,,,,,,,,,,,,,,,,,,,,,,,,,,,,,,,,,,,
,,6102261419c471b68458a7b4,2022-09-08_11h50.27.103,CGTgamblingSpanTasks,2022.2.1,Win32,59.94485074,,,,,,,,2.8159,,,,,,,,,,,,,,2,v,1.1841,11.41737518,0,3.8159,1,,,,,,18.11029021,0,11.41737518,,,,,,,,,,,,,0,94,94,48,1,0.069445859,0,,,,,,,,,,,,,,,,,,,,,,,,,,,,,,,,,,,,,,,,,,,,,,,,,,,,,,,,,,,,,,,,,,,,,,,,,,,,,,,,
,,6102261419c471b68458a7b4,2022-09-08_11h50.27.103,CGTgamblingSpanTasks,2022.2.1,Win32,59.94485074,,,,,,,,3.2258,,,,,,,,,,,,,,2,n,0.7742,0,1,4.7258,1.5,,,,,,18.16238569,0,1.540604093,,,,,,,,,,,,,0,95,95,34,1,0.540092491,1,,,,,,,,,,,,,,,,,,,,,,,,,,,,,,,,,,,,,,,,,,,,,,,,,,,,,,,,,,,,,,,,,,,,,,,,,,,,,,,,
,,6102261419c471b68458a7b4,2022-09-08_11h50.27.103,CGTgamblingSpanTasks,2022.2.1,Win32,59.94485074,,,,,,,,3.2494,,,,,,,,,,,,,,2,n,0.7506,0,1,4.2494,1,,,,,,21.16780451,0,2.469465385,,,,,,,,,,,,,0,96,96,32,1,0.456531699,1,,,,,,,,,,,,,,,,,,,,,,,,,,,,,,,,,,,,,,,,,,,,,,,,,,,,,,,,,,,,,,,,,,,,,,,,,,,,,,,,
,,6102261419c471b68458a7b4,2022-09-08_11h50.27.103,CGTgamblingSpanTasks,2022.2.1,Win32,59.94485074,,,,,,,,3.2155,,,,,,,,,,,,,,2,n,0.7845,28.14876717,1,4.2155,1,,,,,,28.14876717,0,3.117906378,,,,,,,,,,,,,0,97,97,76,1,0.470636736,1,,,,,,,,,,,,,,,,,,,,,,,,,,,,,,,,,,,,,,,,,,,,,,,,,,,,,,,,,,,,,,,,,,,,,,,,,,,,,,,,
,,6102261419c471b68458a7b4,2022-09-08_11h50.27.103,CGTgamblingSpanTasks,2022.2.1,Win32,59.94485074,,,,,,,,3.3493,,,,,,,,,,,,,,2,n,0.6507,0,1,4.3493,1,,,,,,28.18900855,0,0.05384276,,,,,,,,,,,,,0,98,98,55,1,0.919081308,0,,,,,,,,,,,,,,,,,,,,,,,,,,,,,,,,,,,,,,,,,,,,,,,,,,,,,,,,,,,,,,,,,,,,,,,,,,,,,,,,
,,6102261419c471b68458a7b4,2022-09-08_11h50.27.103,CGTgamblingSpanTasks,2022.2.1,Win32,59.94485074,,,,,,,,3.266,,,,,,,,,,,,,,1,v,0.734,24.35708027,1,4.766,1.5,,,,,,24.35708027,0,2.738695417,,,,,,,,,,,,,0,99,99,114,1,0.466573634,1,,,,,,,,,,,,,,,,,,,,,,,,,,,,,,,,,,,,,,,,,,,,,,,,,,,,,,,,,,,,,,,,,,,,,,,,,,,,,,,,
,,6102261419c471b68458a7b4,2022-09-08_11h50.27.103,CGTgamblingSpanTasks,2022.2.1,Win32,59.94485074,,,,,,,,3.2828,,,,,,,,,,,,,,1,v,0.7172,27.4965044,1,4.2828,1,,,,,,27.4965044,0,2.461467004,,,,,,,,,,,,,0,100,100,36,1,0.526550878,1,,,,,,,,,,,,,,,,,,,,,,,,,,,,,,,,,,,,,,,,,,,,,,,,,,,,,,,,,,,,,,,,,,,,,,,,,,,,,,,,
,,6102261419c471b68458a7b4,2022-09-08_11h50.27.103,CGTgamblingSpanTasks,2022.2.1,Win32,59.94485074,,,,,,,,2.881,,,,,,,,,,,,,,2,v,1.119,10.41201161,0,4.381,1.5,,,,,,6.307062696,0,10.41201161,,,,,,,,,,,,,0,101,101,23,1,0.018187109,0,,,,,,,,,,,,,,,,,,,,,,,,,,,,,,,,,,,,,,,,,,,,,,,,,,,,,,,,,,,,,,,,,,,,,,,,,,,,,,,,
,,6102261419c471b68458a7b4,2022-09-08_11h50.27.103,CGTgamblingSpanTasks,2022.2.1,Win32,59.94485074,,,,,,,,3.0822,,,,,,,,,,,,,,1,v,0.9178,19.68065872,1,4.0822,1,,,,,,19.68065872,0,1.843597162,,,,,,,,,,,,,0,102,102,80,1,0.514941058,1,,,,,,,,,,,,,,,,,,,,,,,,,,,,,,,,,,,,,,,,,,,,,,,,,,,,,,,,,,,,,,,,,,,,,,,,,,,,,,,,
,,6102261419c471b68458a7b4,2022-09-08_11h50.27.103,CGTgamblingSpanTasks,2022.2.1,Win32,59.94485074,,,,,,,,3.3597,,,,,,,,,,,,,,2,n,0.6403,0,1,4.3597,1,,,,,,21.46599803,0,0.059789256,,,,,,,,,,,,,0,103,103,8,1,0.909019081,0,,,,,,,,,,,,,,,,,,,,,,,,,,,,,,,,,,,,,,,,,,,,,,,,,,,,,,,,,,,,,,,,,,,,,,,,,,,,,,,,
,,6102261419c471b68458a7b4,2022-09-08_11h50.27.103,CGTgamblingSpanTasks,2022.2.1,Win32,59.94485074,,,,,,,,2.7086,,,,,,,,,,,,,,1,v,1.2914,14.3363647,1,3.7086,1,,,,,,14.3363647,0,1.396635362,,,,,,,,,,,,,0,104,104,78,1,0.504775474,1,,,,,,,,,,,,,,,,,,,,,,,,,,,,,,,,,,,,,,,,,,,,,,,,,,,,,,,,,,,,,,,,,,,,,,,,,,,,,,,,
,,6102261419c471b68458a7b4,2022-09-08_11h50.27.103,CGTgamblingSpanTasks,2022.2.1,Win32,59.94485074,,,,,,,,2.3291,,,,,,,,,,,,,,1,v,1.6709,0,1,3.8291,1.5,,,,,,27.38828234,0,0.0639233,,,,,,,,,,,,,0,105,105,43,1,0.914010176,0,,,,,,,,,,,,,,,,,,,,,,,,,,,,,,,,,,,,,,,,,,,,,,,,,,,,,,,,,,,,,,,,,,,,,,,,,,,,,,,,
,,6102261419c471b68458a7b4,2022-09-08_11h50.27.103,CGTgamblingSpanTasks,2022.2.1,Win32,59.94485074,,,,,,,,1.9627,,,,,,,,,,,,,,1,n,2.0373,10.68505773,0,3.4627,1.5,,,,,,17.64114152,0,10.68505773,,,,,,,,,,,,,0,106,106,98,1,0.074299362,0,,,,,,,,,,,,,,,,,,,,,,,,,,,,,,,,,,,,,,,,,,,,,,,,,,,,,,,,,,,,,,,,,,,,,,,,,,,,,,,,
,,6102261419c471b68458a7b4,2022-09-08_11h50.27.103,CGTgamblingSpanTasks,2022.2.1,Win32,59.94485074,,,,,,,,1.9637,,,,,,,,,,,,,,2,v,2.0363,11.19311486,0,3.4637,1.5,,,,,,8.17598802,0,11.19311486,,,,,,,,,,,,,0,107,107,110,1,0.021568003,0,,,,,,,,,,,,,,,,,,,,,,,,,,,,,,,,,,,,,,,,,,,,,,,,,,,,,,,,,,,,,,,,,,,,,,,,,,,,,,,,
,,6102261419c471b68458a7b4,2022-09-08_11h50.27.103,CGTgamblingSpanTasks,2022.2.1,Win32,59.94485074,,,,,,,,1.266,,,,,,,,,,,,,,2,v,2.734,10.3417501,0,2.766,1.5,,,,,,15.21435748,0,10.3417501,,,,,,,,,,,,,0,108,108,72,1,0.060969226,0,,,,,,,,,,,,,,,,,,,,,,,,,,,,,,,,,,,,,,,,,,,,,,,,,,,,,,,,,,,,,,,,,,,,,,,,,,,,,,,,
,,6102261419c471b68458a7b4,2022-09-08_11h50.27.103,CGTgamblingSpanTasks,2022.2.1,Win32,59.94485074,,,,,,,,2.3584,,,,,,,,,,,,,,1,v,1.6416,17.23907308,1,3.8584,1.5,,,,,,17.23907308,0,2.055848574,,,,,,,,,,,,,0,109,109,66,1,0.450504458,1,,,,,,,,,,,,,,,,,,,,,,,,,,,,,,,,,,,,,,,,,,,,,,,,,,,,,,,,,,,,,,,,,,,,,,,,,,,,,,,,
,,6102261419c471b68458a7b4,2022-09-08_11h50.27.103,CGTgamblingSpanTasks,2022.2.1,Win32,59.94485074,,,,,,,,2.1594,,,,,,,,,,,,,,2,n,1.8406,22.62475578,1,3.1594,1,,,,,,22.62475578,0,2.397643354,,,,,,,,,,,,,0,110,110,93,1,0.482527609,1,,,,,,,,,,,,,,,,,,,,,,,,,,,,,,,,,,,,,,,,,,,,,,,,,,,,,,,,,,,,,,,,,,,,,,,,,,,,,,,,
,,6102261419c471b68458a7b4,2022-09-08_11h50.27.103,CGTgamblingSpanTasks,2022.2.1,Win32,59.94485074,,,,,,,,3.3078,,,,,,,,,,,,,,1,v,0.6922,11.16819157,1,4.3078,1,,,,,,11.16819157,0,0.941456753,,,,,,,,,,,,,0,111,111,45,1,0.54163803,1,,,,,,,,,,,,,,,,,,,,,,,,,,,,,,,,,,,,,,,,,,,,,,,,,,,,,,,,,,,,,,,,,,,,,,,,,,,,,,,,
,,6102261419c471b68458a7b4,2022-09-08_11h50.27.103,CGTgamblingSpanTasks,2022.2.1,Win32,59.94485074,,,,,,,,2.5126,,,,,,,,,,,,,,1,v,1.4874,26.16821818,1,3.5126,1,,,,,,26.16821818,0,0.093528069,,,,,,,,,,,,,0,112,112,42,1,0.901022427,0,,,,,,,,,,,,,,,,,,,,,,,,,,,,,,,,,,,,,,,,,,,,,,,,,,,,,,,,,,,,,,,,,,,,,,,,,,,,,,,,
,,6102261419c471b68458a7b4,2022-09-08_11h50.27.103,CGTgamblingSpanTasks,2022.2.1,Win32,59.94485074,,,,,,,,2.9739,,,,,,,,,,,,,,2,n,1.0261,29.30724159,1,3.9739,1,,,,,,29.30724159,0,3.247012935,,,,,,,,,,,,,0,113,113,71,1,0.470571125,1,,,,,,,,,,,,,,,,,,,,,,,,,,,,,,,,,,,,,,,,,,,,,,,,,,,,,,,,,,,,,,,,,,,,,,,,,,,,,,,,
,,6102261419c471b68458a7b4,2022-09-08_11h50.27.103,CGTgamblingSpanTasks,2022.2.1,Win32,59.94485074,,,,,,,,2.5627,,,,,,,,,,,,,,1,n,1.4373,7.850775577,0,4.0627,1.5,,,,,,4.622707531,0,7.850775577,,,,,,,,,,,,,0,114,114,6,1,0.017737407,0,,,,,,,,,,,,,,,,,,,,,,,,,,,,,,,,,,,,,,,,,,,,,,,,,,,,,,,,,,,,,,,,,,,,,,,,,,,,,,,,
,,6102261419c471b68458a7b4,2022-09-08_11h50.27.103,CGTgamblingSpanTasks,2022.2.1,Win32,59.94485074,,,,,,,,2.9481,,,,,,,,,,,,,,1,v,1.0519,9.012590634,1,4.4481,1.5,,,,,,9.012590634,0,1.002188111,,,,,,,,,,,,,0,115,115,12,1,0.46958041,1,,,,,,,,,,,,,,,,,,,,,,,,,,,,,,,,,,,,,,,,,,,,,,,,,,,,,,,,,,,,,,,,,,,,,,,,,,,,,,,,
,,6102261419c471b68458a7b4,2022-09-08_11h50.27.103,CGTgamblingSpanTasks,2022.2.1,Win32,59.94485074,,,,,,,,3.266,,,,,,,,,,,,,,1,v,0.734,3.471484939,1,4.266,1,,,,,,3.471484939,0,3.877530383,,,,,,,,,,,,,0,116,116,40,1,0.02623078,0,,,,,,,,,,,,,,,,,,,,,,,,,,,,,,,,,,,,,,,,,,,,,,,,,,,,,,,,,,,,,,,,,,,,,,,,,,,,,,,,
,,6102261419c471b68458a7b4,2022-09-08_11h50.27.103,CGTgamblingSpanTasks,2022.2.1,Win32,59.94485074,,,,,,,,3.1465,,,,,,,,,,,,,,1,v,0.8535,0,1,4.1465,1,,,,,,8.217594828,0,0.951019374,,,,,,,,,,,,,0,117,117,87,1,0.458722936,1,,,,,,,,,,,,,,,,,,,,,,,,,,,,,,,,,,,,,,,,,,,,,,,,,,,,,,,,,,,,,,,,,,,,,,,,,,,,,,,,
,,6102261419c471b68458a7b4,2022-09-08_11h50.27.103,CGTgamblingSpanTasks,2022.2.1,Win32,59.94485074,,,,,,,,3.2722,,,,,,,,,,,,,,2,n,0.7278,0,1,4.7722,1.5,,,,,,24.57684014,0,0.061756244,,,,,,,,,,,,,0,118,118,68,1,0.911988903,0,,,,,,,,,,,,,,,,,,,,,,,,,,,,,,,,,,,,,,,,,,,,,,,,,,,,,,,,,,,,,,,,,,,,,,,,,,,,,,,,
,,6102261419c471b68458a7b4,2022-09-08_11h50.27.103,CGTgamblingSpanTasks,2022.2.1,Win32,59.94485074,,,,,,,,3.0486,,,,,,,,,,,,,,2,n,0.9514,27.2532142,1,4.5486,1.5,,,,,,27.2532142,0,0.08089327,,,,,,,,,,,,,0,119,119,119,1,0.907091845,0,,,,,,,,,,,,,,,,,,,,,,,,,,,,,,,,,,,,,,,,,,,,,,,,,,,,,,,,,,,,,,,,,,,,,,,,,,,,,,,,
,,6102261419c471b68458a7b4,2022-09-08_11h50.27.103,CGTgamblingSpanTasks,2022.2.1,Win32,59.94485074,,,,,,,,,,,,,,,,,,,,,,,,,,,,,,,,,,,,,,,,,,,,,,,,,,,,,,,,return,18.7996,,,,,,,,,,,,,,,,,,,,,,,,,,,,,,,,,,,,,,,,,,,,,,,,,,,,,,,,,,,,,,,,,,,,,,,,,,,,,,
,,6102261419c471b68458a7b4,2022-09-08_11h50.27.103,CGTgamblingSpanTasks,2022.2.1,Win32,59.94485074,,,,,,,,,,,,,,,,,,,,,,,,,,,,,,,,,,,,,,,,,,,,,,,,,,,,,,,,,,return,32.7876,,,,,,,,,,,,,,,,,,,,,,,,,,,,,,,,,,,,,,,,,,,,,,,,,,,,,,,,,,,,,,,,,,,,,,,,,,,,
,,6102261419c471b68458a7b4,2022-09-08_11h50.27.103,CGTgamblingSpanTasks,2022.2.1,Win32,59.94485074,,,,,,,,,,,,,,,,,,,,,,,,,,,,,,,,,,,,,,,,,,,,,,,,,,,,,,,,,,,,return,32.0155,,,,,,,,,,,,,,,,,,,,,,,,,,,,,,,,,,,,,,,,,,,,,,,,,,,,,,,,,,,,,,,,,,,,,,,,,,
,,6102261419c471b68458a7b4,2022-09-08_11h50.27.103,CGTgamblingSpanTasks,2022.2.1,Win32,59.94485074,,,,,,,,,,,,,,,,,,,,,,,,,,,,,,,,,,,,,,,,,,,,,,,,,,,,,,,,,,,,,,342,1,0.043597114,-0.390516924,1,0,0,cont_buttonPractice,0,0,0,0,1,3,342,24,2,42,,,,,,,,,,,,,,,,,,,,,,,,,,,,,,,,,,,,,,,,,,,,,,,,,,,,,,,,
,,6102261419c471b68458a7b4,2022-09-08_11h50.27.103,CGTgamblingSpanTasks,2022.2.1,Win32,59.94485074,,,,,,,,,,,,,,,,,,,,,,,,,,,,,,,,,,,,,,,,,,,,,,,,,,,,,,,,,,,,,,937,1,-0.001805837,-0.394644453,1,0,0,cont_buttonPractice,0,1,1,1,1,3,937,73,2,37,,,,,,,,,,,,,,,,,,,,,,,,,,,,,,,,,,,,,,,,,,,,,,,,,,,,,,,,
,,6102261419c471b68458a7b4,2022-09-08_11h50.27.103,CGTgamblingSpanTasks,2022.2.1,Win32,59.94485074,,,,,,,,,,,,,,,,,,,,,,,,,,,,,,,,,,,,,,,,,,,,,,,,,,,,,,,,,,,,,,,,,,,,,,,,,,,,,,,,return,11.9386,,,,,,,,,,,,,,,,,,,,,,,,,,,,,,,,,,,,,,,,,,,,,,,,,,,,,,
,,6102261419c471b68458a7b4,2022-09-08_11h50.27.103,CGTgamblingSpanTasks,2022.2.1,Win32,59.94485074,,,,,,,,,,,,,,,,,,,,,,,,,,,,,,,,,,,,,,,,,,,,,,,,,,,,,,,,,,,,,,,,,,,,,,,,,,,,,,,,,,"[5,8,3]",0,0,0,0,1,,,,,,,,,,,,,,,,,,,,,,,,,,,,,,,,,,,,,,,,,,,,,,,,
,,6102261419c471b68458a7b4,2022-09-08_11h50.27.103,CGTgamblingSpanTasks,2022.2.1,Win32,59.94485074,,,,,,,,,,,,,,,,,,,,,,,,,,,,,,,,,,,,,,,,,,,,,,,,,,,,,,,,,,,,,,,,,,,,,,,,,,,,,,,,,,"[5,8,3]",1,0,1,0,1,,,,,,,,,,,,,,,,,,,,,,,,,,,,,,,,,,,,,,,,,,,,,,,,
,,6102261419c471b68458a7b4,2022-09-08_11h50.27.103,CGTgamblingSpanTasks,2022.2.1,Win32,59.94485074,,,,,,,,,,,,,,,,,,,,,,,,,,,,,,,,,,,,,,,,,,,,,,,,,,,,,,,,,,,,,,,,,,,,,,,,,,,,,,,,,,"[5,8,3]",2,0,2,0,1,,,,,,,,,,,,,,,,,,,,,,,,,,,,,,,,,,,,,,,,,,,,,,,,
,,6102261419c471b68458a7b4,2022-09-08_11h50.27.103,CGTgamblingSpanTasks,2022.2.1,Win32,59.94485074,,,,,,,,,,,,,,,,,,,,,,,,,,,,,,,,,,,,,,,,,,,,,,,,,,,,,,,,,,,,,,,1,,,,,,,,,,,,,,,,,,,,,,,,,583,-0.001805837,-0.394644453,1,0,0,cont_button,0,0,0,0,1,1,,,,,,,,,,,,,,,,,,,,,,,,,,,,,,,,,,,
,,6102261419c471b68458a7b4,2022-09-08_11h50.27.103,CGTgamblingSpanTasks,2022.2.1,Win32,59.94485074,,,,,,,,,,,,,,,,,,,,,,,,,,,,,,,,,,,,,,,,,,,,,,,,,,,,,,,,,,,,,,,,,,,,,,,,,,,,,,,,,,"[1,9,4,3]",0,0,0,0,1,,,,,,,,,,,,,,,,,,,,,,,,,,,,,,,,,,,,,,,,,,,,,,,,
,,6102261419c471b68458a7b4,2022-09-08_11h50.27.103,CGTgamblingSpanTasks,2022.2.1,Win32,59.94485074,,,,,,,,,,,,,,,,,,,,,,,,,,,,,,,,,,,,,,,,,,,,,,,,,,,,,,,,,,,,,,,,,,,,,,,,,,,,,,,,,,"[1,9,4,3]",1,0,1,0,1,,,,,,,,,,,,,,,,,,,,,,,,,,,,,,,,,,,,,,,,,,,,,,,,
,,6102261419c471b68458a7b4,2022-09-08_11h50.27.103,CGTgamblingSpanTasks,2022.2.1,Win32,59.94485074,,,,,,,,,,,,,,,,,,,,,,,,,,,,,,,,,,,,,,,,,,,,,,,,,,,,,,,,,,,,,,,,,,,,,,,,,,,,,,,,,,"[1,9,4,3]",2,0,2,0,1,,,,,,,,,,,,,,,,,,,,,,,,,,,,,,,,,,,,,,,,,,,,,,,,
,,6102261419c471b68458a7b4,2022-09-08_11h50.27.103,CGTgamblingSpanTasks,2022.2.1,Win32,59.94485074,,,,,,,,,,,,,,,,,,,,,,,,,,,,,,,,,,,,,,,,,,,,,,,,,,,,,,,,,,,,,,,,,,,,,,,,,,,,,,,,,,"[1,9,4,3]",3,0,3,0,1,,,,,,,,,,,,,,,,,,,,,,,,,,,,,,,,,,,,,,,,,,,,,,,,
,,6102261419c471b68458a7b4,2022-09-08_11h50.27.103,CGTgamblingSpanTasks,2022.2.1,Win32,59.94485074,,,,,,,,,,,,,,,,,,,,,,,,,,,,,,,,,,,,,,,,,,,,,,,,,,,,,,,,,,,,,,,1,,,,,,,,,,,,,,,,,,,,,,,,,1943,0.073521799,-0.397740134,1,0,0,cont_button,0,1,1,1,1,2,,,,,,,,,,,,,,,,,,,,,,,,,,,,,,,,,,,
,,6102261419c471b68458a7b4,2022-09-08_11h50.27.103,CGTgamblingSpanTasks,2022.2.1,Win32,59.94485074,,,,,,,,,,,,,,,,,,,,,,,,,,,,,,,,,,,,,,,,,,,,,,,,,,,,,,,,,,,,,,,,,,,,,,,,,,,,,,,,,,"[7,6,3,1,8]",0,0,0,0,1,,,,,,,,,,,,,,,,,,,,,,,,,,,,,,,,,,,,,,,,,,,,,,,,
,,6102261419c471b68458a7b4,2022-09-08_11h50.27.103,CGTgamblingSpanTasks,2022.2.1,Win32,59.94485074,,,,,,,,,,,,,,,,,,,,,,,,,,,,,,,,,,,,,,,,,,,,,,,,,,,,,,,,,,,,,,,,,,,,,,,,,,,,,,,,,,"[7,6,3,1,8]",1,0,1,0,1,,,,,,,,,,,,,,,,,,,,,,,,,,,,,,,,,,,,,,,,,,,,,,,,
,,6102261419c471b68458a7b4,2022-09-08_11h50.27.103,CGTgamblingSpanTasks,2022.2.1,Win32,59.94485074,,,,,,,,,,,,,,,,,,,,,,,,,,,,,,,,,,,,,,,,,,,,,,,,,,,,,,,,,,,,,,,,,,,,,,,,,,,,,,,,,,"[7,6,3,1,8]",2,0,2,0,1,,,,,,,,,,,,,,,,,,,,,,,,,,,,,,,,,,,,,,,,,,,,,,,,
,,6102261419c471b68458a7b4,2022-09-08_11h50.27.103,CGTgamblingSpanTasks,2022.2.1,Win32,59.94485074,,,,,,,,,,,,,,,,,,,,,,,,,,,,,,,,,,,,,,,,,,,,,,,,,,,,,,,,,,,,,,,,,,,,,,,,,,,,,,,,,,"[7,6,3,1,8]",3,0,3,0,1,,,,,,,,,,,,,,,,,,,,,,,,,,,,,,,,,,,,,,,,,,,,,,,,
,,6102261419c471b68458a7b4,2022-09-08_11h50.27.103,CGTgamblingSpanTasks,2022.2.1,Win32,59.94485074,,,,,,,,,,,,,,,,,,,,,,,,,,,,,,,,,,,,,,,,,,,,,,,,,,,,,,,,,,,,,,,,,,,,,,,,,,,,,,,,,,"[7,6,3,1,8]",4,0,4,0,1,,,,,,,,,,,,,,,,,,,,,,,,,,,,,,,,,,,,,,,,,,,,,,,,
,,6102261419c471b68458a7b4,2022-09-08_11h50.27.103,CGTgamblingSpanTasks,2022.2.1,Win32,59.94485074,,,,,,,,,,,,,,,,,,,,,,,,,,,,,,,,,,,,,,,,,,,,,,,,,,,,,,,,,,,,,,,0,,,,,,,,,,,,,,,,,,,,,,,,,76381,0.030182612,-0.39877205,1,0,0,cont_button,0,2,2,2,1,3,,,,,,,,,,,,,,,,,,,,,,,,,,,,,,,,,,,
,,6102261419c471b68458a7b4,2022-09-08_11h50.27.103,CGTgamblingSpanTasks,2022.2.1,Win32,59.94485074,,,,,,,,,,,,,,,,,,,,,,,,,,,,,,,,,,,,,,,,,,,,,,,,,,,,,,,,,,,,,,,,,,,,,,,,,,,,,,,,,,"[2,4,8,5,3]",0,0,0,0,1,,,,,,,,,,,,,,,,,,,,,,,,,,,,,,,,,,,,,,,,,,,,,,,,
,,6102261419c471b68458a7b4,2022-09-08_11h50.27.103,CGTgamblingSpanTasks,2022.2.1,Win32,59.94485074,,,,,,,,,,,,,,,,,,,,,,,,,,,,,,,,,,,,,,,,,,,,,,,,,,,,,,,,,,,,,,,,,,,,,,,,,,,,,,,,,,"[2,4,8,5,3]",1,0,1,0,1,,,,,,,,,,,,,,,,,,,,,,,,,,,,,,,,,,,,,,,,,,,,,,,,
,,6102261419c471b68458a7b4,2022-09-08_11h50.27.103,CGTgamblingSpanTasks,2022.2.1,Win32,59.94485074,,,,,,,,,,,,,,,,,,,,,,,,,,,,,,,,,,,,,,,,,,,,,,,,,,,,,,,,,,,,,,,,,,,,,,,,,,,,,,,,,,"[2,4,8,5,3]",2,0,2,0,1,,,,,,,,,,,,,,,,,,,,,,,,,,,,,,,,,,,,,,,,,,,,,,,,
,,6102261419c471b68458a7b4,2022-09-08_11h50.27.103,CGTgamblingSpanTasks,2022.2.1,Win32,59.94485074,,,,,,,,,,,,,,,,,,,,,,,,,,,,,,,,,,,,,,,,,,,,,,,,,,,,,,,,,,,,,,,,,,,,,,,,,,,,,,,,,,"[2,4,8,5,3]",3,0,3,0,1,,,,,,,,,,,,,,,,,,,,,,,,,,,,,,,,,,,,,,,,,,,,,,,,
,,6102261419c471b68458a7b4,2022-09-08_11h50.27.103,CGTgamblingSpanTasks,2022.2.1,Win32,59.94485074,,,,,,,,,,,,,,,,,,,,,,,,,,,,,,,,,,,,,,,,,,,,,,,,,,,,,,,,,,,,,,,,,,,,,,,,,,,,,,,,,,"[2,4,8,5,3]",4,0,4,0,1,,,,,,,,,,,,,,,,,,,,,,,,,,,,,,,,,,,,,,,,,,,,,,,,
,,6102261419c471b68458a7b4,2022-09-08_11h50.27.103,CGTgamblingSpanTasks,2022.2.1,Win32,59.94485074,,,,,,,,,,,,,,,,,,,,,,,,,,,,,,,,,,,,,,,,,,,,,,,,,,,,,,,,,,,,,,,1,,,,,,,,,,,,,,,,,,,,,,,,,24853,0.030182612,-0.39877205,1,0,0,cont_button,0,3,3,3,1,4,,,,,,,,,,,,,,,,,,,,,,,,,,,,,,,,,,,
,,6102261419c471b68458a7b4,2022-09-08_11h50.27.103,CGTgamblingSpanTasks,2022.2.1,Win32,59.94485074,,,,,,,,,,,,,,,,,,,,,,,,,,,,,,,,,,,,,,,,,,,,,,,,,,,,,,,,,,,,,,,,,,,,,,,,,,,,,,,,,,"[2,3,7,6,8,5]",0,0,0,0,1,,,,,,,,,,,,,,,,,,,,,,,,,,,,,,,,,,,,,,,,,,,,,,,,
,,6102261419c471b68458a7b4,2022-09-08_11h50.27.103,CGTgamblingSpanTasks,2022.2.1,Win32,59.94485074,,,,,,,,,,,,,,,,,,,,,,,,,,,,,,,,,,,,,,,,,,,,,,,,,,,,,,,,,,,,,,,,,,,,,,,,,,,,,,,,,,"[2,3,7,6,8,5]",1,0,1,0,1,,,,,,,,,,,,,,,,,,,,,,,,,,,,,,,,,,,,,,,,,,,,,,,,
,,6102261419c471b68458a7b4,2022-09-08_11h50.27.103,CGTgamblingSpanTasks,2022.2.1,Win32,59.94485074,,,,,,,,,,,,,,,,,,,,,,,,,,,,,,,,,,,,,,,,,,,,,,,,,,,,,,,,,,,,,,,,,,,,,,,,,,,,,,,,,,"[2,3,7,6,8,5]",2,0,2,0,1,,,,,,,,,,,,,,,,,,,,,,,,,,,,,,,,,,,,,,,,,,,,,,,,
,,6102261419c471b68458a7b4,2022-09-08_11h50.27.103,CGTgamblingSpanTasks,2022.2.1,Win32,59.94485074,,,,,,,,,,,,,,,,,,,,,,,,,,,,,,,,,,,,,,,,,,,,,,,,,,,,,,,,,,,,,,,,,,,,,,,,,,,,,,,,,,"[2,3,7,6,8,5]",3,0,3,0,1,,,,,,,,,,,,,,,,,,,,,,,,,,,,,,,,,,,,,,,,,,,,,,,,
,,6102261419c471b68458a7b4,2022-09-08_11h50.27.103,CGTgamblingSpanTasks,2022.2.1,Win32,59.94485074,,,,,,,,,,,,,,,,,,,,,,,,,,,,,,,,,,,,,,,,,,,,,,,,,,,,,,,,,,,,,,,,,,,,,,,,,,,,,,,,,,"[2,3,7,6,8,5]",4,0,4,0,1,,,,,,,,,,,,,,,,,,,,,,,,,,,,,,,,,,,,,,,,,,,,,,,,
,,6102261419c471b68458a7b4,2022-09-08_11h50.27.103,CGTgamblingSpanTasks,2022.2.1,Win32,59.94485074,,,,,,,,,,,,,,,,,,,,,,,,,,,,,,,,,,,,,,,,,,,,,,,,,,,,,,,,,,,,,,,,,,,,,,,,,,,,,,,,,,"[2,3,7,6,8,5]",5,0,5,0,1,,,,,,,,,,,,,,,,,,,,,,,,,,,,,,,,,,,,,,,,,,,,,,,,
,,6102261419c471b68458a7b4,2022-09-08_11h50.27.103,CGTgamblingSpanTasks,2022.2.1,Win32,59.94485074,,,,,,,,,,,,,,,,,,,,,,,,,,,,,,,,,,,,,,,,,,,,,,,,,,,,,,,,,,,,,,,1,,,,,,,,,,,,,,,,,,,,,,,,,237685,0.030182612,-0.39877205,1,0,0,cont_button,0,4,4,4,1,5,,,,,,,,,,,,,,,,,,,,,,,,,,,,,,,,,,,
,,6102261419c471b68458a7b4,2022-09-08_11h50.27.103,CGTgamblingSpanTasks,2022.2.1,Win32,59.94485074,,,,,,,,,,,,,,,,,,,,,,,,,,,,,,,,,,,,,,,,,,,,,,,,,,,,,,,,,,,,,,,,,,,,,,,,,,,,,,,,,,"[5,4,1,6,7,9,3]",0,0,0,0,1,,,,,,,,,,,,,,,,,,,,,,,,,,,,,,,,,,,,,,,,,,,,,,,,
,,6102261419c471b68458a7b4,2022-09-08_11h50.27.103,CGTgamblingSpanTasks,2022.2.1,Win32,59.94485074,,,,,,,,,,,,,,,,,,,,,,,,,,,,,,,,,,,,,,,,,,,,,,,,,,,,,,,,,,,,,,,,,,,,,,,,,,,,,,,,,,"[5,4,1,6,7,9,3]",1,0,1,0,1,,,,,,,,,,,,,,,,,,,,,,,,,,,,,,,,,,,,,,,,,,,,,,,,
,,6102261419c471b68458a7b4,2022-09-08_11h50.27.103,CGTgamblingSpanTasks,2022.2.1,Win32,59.94485074,,,,,,,,,,,,,,,,,,,,,,,,,,,,,,,,,,,,,,,,,,,,,,,,,,,,,,,,,,,,,,,,,,,,,,,,,,,,,,,,,,"[5,4,1,6,7,9,3]",2,0,2,0,1,,,,,,,,,,,,,,,,,,,,,,,,,,,,,,,,,,,,,,,,,,,,,,,,
,,6102261419c471b68458a7b4,2022-09-08_11h50.27.103,CGTgamblingSpanTasks,2022.2.1,Win32,59.94485074,,,,,,,,,,,,,,,,,,,,,,,,,,,,,,,,,,,,,,,,,,,,,,,,,,,,,,,,,,,,,,,,,,,,,,,,,,,,,,,,,,"[5,4,1,6,7,9,3]",3,0,3,0,1,,,,,,,,,,,,,,,,,,,,,,,,,,,,,,,,,,,,,,,,,,,,,,,,
,,6102261419c471b68458a7b4,2022-09-08_11h50.27.103,CGTgamblingSpanTasks,2022.2.1,Win32,59.94485074,,,,,,,,,,,,,,,,,,,,,,,,,,,,,,,,,,,,,,,,,,,,,,,,,,,,,,,,,,,,,,,,,,,,,,,,,,,,,,,,,,"[5,4,1,6,7,9,3]",4,0,4,0,1,,,,,,,,,,,,,,,,,,,,,,,,,,,,,,,,,,,,,,,,,,,,,,,,
,,6102261419c471b68458a7b4,2022-09-08_11h50.27.103,CGTgamblingSpanTasks,2022.2.1,Win32,59.94485074,,,,,,,,,,,,,,,,,,,,,,,,,,,,,,,,,,,,,,,,,,,,,,,,,,,,,,,,,,,,,,,,,,,,,,,,,,,,,,,,,,"[5,4,1,6,7,9,3]",5,0,5,0,1,,,,,,,,,,,,,,,,,,,,,,,,,,,,,,,,,,,,,,,,,,,,,,,,
,,6102261419c471b68458a7b4,2022-09-08_11h50.27.103,CGTgamblingSpanTasks,2022.2.1,Win32,59.94485074,,,,,,,,,,,,,,,,,,,,,,,,,,,,,,,,,,,,,,,,,,,,,,,,,,,,,,,,,,,,,,,,,,,,,,,,,,,,,,,,,,"[5,4,1,6,7,9,3]",6,0,6,0,1,,,,,,,,,,,,,,,,,,,,,,,,,,,,,,,,,,,,,,,,,,,,,,,,
,,6102261419c471b68458a7b4,2022-09-08_11h50.27.103,CGTgamblingSpanTasks,2022.2.1,Win32,59.94485074,,,,,,,,,,,,,,,,,,,,,,,,,,,,,,,,,,,,,,,,,,,,,,,,,,,,,,,,,,,,,,,0,,,,,,,,,,,,,,,,,,,,,,,,,546731,0.030182612,-0.39877205,1,0,0,cont_button,0,5,5,5,1,6,,,,,,,,,,,,,,,,,,,,,,,,,,,,,,,,,,,
,,6102261419c471b68458a7b4,2022-09-08_11h50.27.103,CGTgamblingSpanTasks,2022.2.1,Win32,59.94485074,,,,,,,,,,,,,,,,,,,,,,,,,,,,,,,,,,,,,,,,,,,,,,,,,,,,,,,,,,,,,,,,,,,,,,,,,,,,,,,,,,"[8,5,6,9,3,4,1]",0,0,0,0,1,,,,,,,,,,,,,,,,,,,,,,,,,,,,,,,,,,,,,,,,,,,,,,,,
,,6102261419c471b68458a7b4,2022-09-08_11h50.27.103,CGTgamblingSpanTasks,2022.2.1,Win32,59.94485074,,,,,,,,,,,,,,,,,,,,,,,,,,,,,,,,,,,,,,,,,,,,,,,,,,,,,,,,,,,,,,,,,,,,,,,,,,,,,,,,,,"[8,5,6,9,3,4,1]",1,0,1,0,1,,,,,,,,,,,,,,,,,,,,,,,,,,,,,,,,,,,,,,,,,,,,,,,,
,,6102261419c471b68458a7b4,2022-09-08_11h50.27.103,CGTgamblingSpanTasks,2022.2.1,Win32,59.94485074,,,,,,,,,,,,,,,,,,,,,,,,,,,,,,,,,,,,,,,,,,,,,,,,,,,,,,,,,,,,,,,,,,,,,,,,,,,,,,,,,,"[8,5,6,9,3,4,1]",2,0,2,0,1,,,,,,,,,,,,,,,,,,,,,,,,,,,,,,,,,,,,,,,,,,,,,,,,
,,6102261419c471b68458a7b4,2022-09-08_11h50.27.103,CGTgamblingSpanTasks,2022.2.1,Win32,59.94485074,,,,,,,,,,,,,,,,,,,,,,,,,,,,,,,,,,,,,,,,,,,,,,,,,,,,,,,,,,,,,,,,,,,,,,,,,,,,,,,,,,"[8,5,6,9,3,4,1]",3,0,3,0,1,,,,,,,,,,,,,,,,,,,,,,,,,,,,,,,,,,,,,,,,,,,,,,,,
,,6102261419c471b68458a7b4,2022-09-08_11h50.27.103,CGTgamblingSpanTasks,2022.2.1,Win32,59.94485074,,,,,,,,,,,,,,,,,,,,,,,,,,,,,,,,,,,,,,,,,,,,,,,,,,,,,,,,,,,,,,,,,,,,,,,,,,,,,,,,,,"[8,5,6,9,3,4,1]",4,0,4,0,1,,,,,,,,,,,,,,,,,,,,,,,,,,,,,,,,,,,,,,,,,,,,,,,,
,,6102261419c471b68458a7b4,2022-09-08_11h50.27.103,CGTgamblingSpanTasks,2022.2.1,Win32,59.94485074,,,,,,,,,,,,,,,,,,,,,,,,,,,,,,,,,,,,,,,,,,,,,,,,,,,,,,,,,,,,,,,,,,,,,,,,,,,,,,,,,,"[8,5,6,9,3,4,1]",5,0,5,0,1,,,,,,,,,,,,,,,,,,,,,,,,,,,,,,,,,,,,,,,,,,,,,,,,
,,6102261419c471b68458a7b4,2022-09-08_11h50.27.103,CGTgamblingSpanTasks,2022.2.1,Win32,59.94485074,,,,,,,,,,,,,,,,,,,,,,,,,,,,,,,,,,,,,,,,,,,,,,,,,,,,,,,,,,,,,,,,,,,,,,,,,,,,,,,,,,"[8,5,6,9,3,4,1]",6,0,6,0,1,,,,,,,,,,,,,,,,,,,,,,,,,,,,,,,,,,,,,,,,,,,,,,,,
,,6102261419c471b68458a7b4,2022-09-08_11h50.27.103,CGTgamblingSpanTasks,2022.2.1,Win32,59.94485074,,,,,,,,,,,,,,,,,,,,,,,,,,,,,,,,,,,,,,,,,,,,,,,,,,,,,,,,,,,,,,,0,,,,,,,,,,,,,,,,,,,,,,,,,856931,0.030182612,-0.39877205,1,0,0,cont_button,0,6,6,6,1,7,,,,,,,,,,,,,,,,,,,,,,,,,,,,,,,,,,,
,,6102261419c471b68458a7b4,2022-09-08_11h50.27.103,CGTgamblingSpanTasks,2022.2.1,Win32,59.94485074,,,,,,,,,,,,,,,,,,,,,,,,,,,,,,,,,,,,,,,,,,,,,,,,,,,,,,,,,,,,,,,,,,,,,,,,,,,,,,,,,,"[1,3,8,6,9,5]",0,0,0,0,1,,,,,,,,,,,,,,,,,,,,,,,,,,,,,,,,,,,,,,,,,,,,,,,,
,,6102261419c471b68458a7b4,2022-09-08_11h50.27.103,CGTgamblingSpanTasks,2022.2.1,Win32,59.94485074,,,,,,,,,,,,,,,,,,,,,,,,,,,,,,,,,,,,,,,,,,,,,,,,,,,,,,,,,,,,,,,,,,,,,,,,,,,,,,,,,,"[1,3,8,6,9,5]",1,0,1,0,1,,,,,,,,,,,,,,,,,,,,,,,,,,,,,,,,,,,,,,,,,,,,,,,,
,,6102261419c471b68458a7b4,2022-09-08_11h50.27.103,CGTgamblingSpanTasks,2022.2.1,Win32,59.94485074,,,,,,,,,,,,,,,,,,,,,,,,,,,,,,,,,,,,,,,,,,,,,,,,,,,,,,,,,,,,,,,,,,,,,,,,,,,,,,,,,,"[1,3,8,6,9,5]",2,0,2,0,1,,,,,,,,,,,,,,,,,,,,,,,,,,,,,,,,,,,,,,,,,,,,,,,,
,,6102261419c471b68458a7b4,2022-09-08_11h50.27.103,CGTgamblingSpanTasks,2022.2.1,Win32,59.94485074,,,,,,,,,,,,,,,,,,,,,,,,,,,,,,,,,,,,,,,,,,,,,,,,,,,,,,,,,,,,,,,,,,,,,,,,,,,,,,,,,,"[1,3,8,6,9,5]",3,0,3,0,1,,,,,,,,,,,,,,,,,,,,,,,,,,,,,,,,,,,,,,,,,,,,,,,,
,,6102261419c471b68458a7b4,2022-09-08_11h50.27.103,CGTgamblingSpanTasks,2022.2.1,Win32,59.94485074,,,,,,,,,,,,,,,,,,,,,,,,,,,,,,,,,,,,,,,,,,,,,,,,,,,,,,,,,,,,,,,,,,,,,,,,,,,,,,,,,,"[1,3,8,6,9,5]",4,0,4,0,1,,,,,,,,,,,,,,,,,,,,,,,,,,,,,,,,,,,,,,,,,,,,,,,,
,,6102261419c471b68458a7b4,2022-09-08_11h50.27.103,CGTgamblingSpanTasks,2022.2.1,Win32,59.94485074,,,,,,,,,,,,,,,,,,,,,,,,,,,,,,,,,,,,,,,,,,,,,,,,,,,,,,,,,,,,,,,,,,,,,,,,,,,,,,,,,,"[1,3,8,6,9,5]",5,0,5,0,1,,,,,,,,,,,,,,,,,,,,,,,,,,,,,,,,,,,,,,,,,,,,,,,,
,,6102261419c471b68458a7b4,2022-09-08_11h50.27.103,CGTgamblingSpanTasks,2022.2.1,Win32,59.94485074,,,,,,,,,,,,,,,,,,,,,,,,,,,,,,,,,,,,,,,,,,,,,,,,,,,,,,,,,,,,,,,0,,,,,,,,,,,,,,,,,,,,,,,,,136589,0.030182612,-0.39877205,1,0,0,cont_button,0,7,7,7,1,8,,,,,,,,,,,,,,,,,,,,,,,,,,,,,,,,,,,
,,6102261419c471b68458a7b4,2022-09-08_11h50.27.103,CGTgamblingSpanTasks,2022.2.1,Win32,59.94485074,,,,,,,,,,,,,,,,,,,,,,,,,,,,,,,,,,,,,,,,,,,,,,,,,,,,,,,,,,,,,,,,,,,,,,,,,,,,,,,,,,"[7,1,2,4,6,5]",0,0,0,0,1,,,,,,,,,,,,,,,,,,,,,,,,,,,,,,,,,,,,,,,,,,,,,,,,
,,6102261419c471b68458a7b4,2022-09-08_11h50.27.103,CGTgamblingSpanTasks,2022.2.1,Win32,59.94485074,,,,,,,,,,,,,,,,,,,,,,,,,,,,,,,,,,,,,,,,,,,,,,,,,,,,,,,,,,,,,,,,,,,,,,,,,,,,,,,,,,"[7,1,2,4,6,5]",1,0,1,0,1,,,,,,,,,,,,,,,,,,,,,,,,,,,,,,,,,,,,,,,,,,,,,,,,
,,6102261419c471b68458a7b4,2022-09-08_11h50.27.103,CGTgamblingSpanTasks,2022.2.1,Win32,59.94485074,,,,,,,,,,,,,,,,,,,,,,,,,,,,,,,,,,,,,,,,,,,,,,,,,,,,,,,,,,,,,,,,,,,,,,,,,,,,,,,,,,"[7,1,2,4,6,5]",2,0,2,0,1,,,,,,,,,,,,,,,,,,,,,,,,,,,,,,,,,,,,,,,,,,,,,,,,
,,6102261419c471b68458a7b4,2022-09-08_11h50.27.103,CGTgamblingSpanTasks,2022.2.1,Win32,59.94485074,,,,,,,,,,,,,,,,,,,,,,,,,,,,,,,,,,,,,,,,,,,,,,,,,,,,,,,,,,,,,,,,,,,,,,,,,,,,,,,,,,"[7,1,2,4,6,5]",3,0,3,0,1,,,,,,,,,,,,,,,,,,,,,,,,,,,,,,,,,,,,,,,,,,,,,,,,
,,6102261419c471b68458a7b4,2022-09-08_11h50.27.103,CGTgamblingSpanTasks,2022.2.1,Win32,59.94485074,,,,,,,,,,,,,,,,,,,,,,,,,,,,,,,,,,,,,,,,,,,,,,,,,,,,,,,,,,,,,,,,,,,,,,,,,,,,,,,,,,"[7,1,2,4,6,5]",4,0,4,0,1,,,,,,,,,,,,,,,,,,,,,,,,,,,,,,,,,,,,,,,,,,,,,,,,
,,6102261419c471b68458a7b4,2022-09-08_11h50.27.103,CGTgamblingSpanTasks,2022.2.1,Win32,59.94485074,,,,,,,,,,,,,,,,,,,,,,,,,,,,,,,,,,,,,,,,,,,,,,,,,,,,,,,,,,,,,,,,,,,,,,,,,,,,,,,,,,"[7,1,2,4,6,5]",5,0,5,0,1,,,,,,,,,,,,,,,,,,,,,,,,,,,,,,,,,,,,,,,,,,,,,,,,
,,6102261419c471b68458a7b4,2022-09-08_11h50.27.103,CGTgamblingSpanTasks,2022.2.1,Win32,59.94485074,,,,,,,,,,,,,,,,,,,,,,,,,,,,,,,,,,,,,,,,,,,,,,,,,,,,,,,,,,,,,,,0,,,,,,,,,,,,,,,,,,,,,,,,,712456,0.030182612,-0.39877205,1,0,0,cont_button,0,8,8,8,1,9,,,,,,,,,,,,,,,,,,,,,,,,,,,,,,,,,,,
,,6102261419c471b68458a7b4,2022-09-08_11h50.27.103,CGTgamblingSpanTasks,2022.2.1,Win32,59.94485074,,,,,,,,,,,,,,,,,,,,,,,,,,,,,,,,,,,,,,,,,,,,,,,,,,,,,,,,,,,,,,,,,,,,,,,,,,,,,,,,,,"[8,4,7,5,6]",0,0,0,0,1,,,,,,,,,,,,,,,,,,,,,,,,,,,,,,,,,,,,,,,,,,,,,,,,
,,6102261419c471b68458a7b4,2022-09-08_11h50.27.103,CGTgamblingSpanTasks,2022.2.1,Win32,59.94485074,,,,,,,,,,,,,,,,,,,,,,,,,,,,,,,,,,,,,,,,,,,,,,,,,,,,,,,,,,,,,,,,,,,,,,,,,,,,,,,,,,"[8,4,7,5,6]",1,0,1,0,1,,,,,,,,,,,,,,,,,,,,,,,,,,,,,,,,,,,,,,,,,,,,,,,,
,,6102261419c471b68458a7b4,2022-09-08_11h50.27.103,CGTgamblingSpanTasks,2022.2.1,Win32,59.94485074,,,,,,,,,,,,,,,,,,,,,,,,,,,,,,,,,,,,,,,,,,,,,,,,,,,,,,,,,,,,,,,,,,,,,,,,,,,,,,,,,,"[8,4,7,5,6]",2,0,2,0,1,,,,,,,,,,,,,,,,,,,,,,,,,,,,,,,,,,,,,,,,,,,,,,,,
,,6102261419c471b68458a7b4,2022-09-08_11h50.27.103,CGTgamblingSpanTasks,2022.2.1,Win32,59.94485074,,,,,,,,,,,,,,,,,,,,,,,,,,,,,,,,,,,,,,,,,,,,,,,,,,,,,,,,,,,,,,,,,,,,,,,,,,,,,,,,,,"[8,4,7,5,6]",3,0,3,0,1,,,,,,,,,,,,,,,,,,,,,,,,,,,,,,,,,,,,,,,,,,,,,,,,
,,6102261419c471b68458a7b4,2022-09-08_11h50.27.103,CGTgamblingSpanTasks,2022.2.1,Win32,59.94485074,,,,,,,,,,,,,,,,,,,,,,,,,,,,,,,,,,,,,,,,,,,,,,,,,,,,,,,,,,,,,,,,,,,,,,,,,,,,,,,,,,"[8,4,7,5,6]",4,0,4,0,1,,,,,,,,,,,,,,,,,,,,,,,,,,,,,,,,,,,,,,,,,,,,,,,,
,,6102261419c471b68458a7b4,2022-09-08_11h50.27.103,CGTgamblingSpanTasks,2022.2.1,Win32,59.94485074,,,,,,,,,,,,,,,,,,,,,,,,,,,,,,,,,,,,,,,,,,,,,,,,,,,,,,,,,,,,,,,1,,,,,,,,,,,,,,,,,,,,,,,,,84756,0.030182612,-0.39877205,1,0,0,cont_button,0,9,9,9,1,10,,,,,,,,,,,,,,,,,,,,,,,,,,,,,,,,,,,
,,6102261419c471b68458a7b4,2022-09-08_11h50.27.103,CGTgamblingSpanTasks,2022.2.1,Win32,59.94485074,,,,,,,,,,,,,,,,,,,,,,,,,,,,,,,,,,,,,,,,,,,,,,,,,,,,,,,,,,,,,,,,,,,,,,,,,,,,,,,,,,"[2,7,3,8,1,5]",0,0,0,0,1,,,,,,,,,,,,,,,,,,,,,,,,,,,,,,,,,,,,,,,,,,,,,,,,
,,6102261419c471b68458a7b4,2022-09-08_11h50.27.103,CGTgamblingSpanTasks,2022.2.1,Win32,59.94485074,,,,,,,,,,,,,,,,,,,,,,,,,,,,,,,,,,,,,,,,,,,,,,,,,,,,,,,,,,,,,,,,,,,,,,,,,,,,,,,,,,"[2,7,3,8,1,5]",1,0,1,0,1,,,,,,,,,,,,,,,,,,,,,,,,,,,,,,,,,,,,,,,,,,,,,,,,
,,6102261419c471b68458a7b4,2022-09-08_11h50.27.103,CGTgamblingSpanTasks,2022.2.1,Win32,59.94485074,,,,,,,,,,,,,,,,,,,,,,,,,,,,,,,,,,,,,,,,,,,,,,,,,,,,,,,,,,,,,,,,,,,,,,,,,,,,,,,,,,"[2,7,3,8,1,5]",2,0,2,0,1,,,,,,,,,,,,,,,,,,,,,,,,,,,,,,,,,,,,,,,,,,,,,,,,
,,6102261419c471b68458a7b4,2022-09-08_11h50.27.103,CGTgamblingSpanTasks,2022.2.1,Win32,59.94485074,,,,,,,,,,,,,,,,,,,,,,,,,,,,,,,,,,,,,,,,,,,,,,,,,,,,,,,,,,,,,,,,,,,,,,,,,,,,,,,,,,"[2,7,3,8,1,5]",3,0,3,0,1,,,,,,,,,,,,,,,,,,,,,,,,,,,,,,,,,,,,,,,,,,,,,,,,
,,6102261419c471b68458a7b4,2022-09-08_11h50.27.103,CGTgamblingSpanTasks,2022.2.1,Win32,59.94485074,,,,,,,,,,,,,,,,,,,,,,,,,,,,,,,,,,,,,,,,,,,,,,,,,,,,,,,,,,,,,,,,,,,,,,,,,,,,,,,,,,"[2,7,3,8,1,5]",4,0,4,0,1,,,,,,,,,,,,,,,,,,,,,,,,,,,,,,,,,,,,,,,,,,,,,,,,
,,6102261419c471b68458a7b4,2022-09-08_11h50.27.103,CGTgamblingSpanTasks,2022.2.1,Win32,59.94485074,,,,,,,,,,,,,,,,,,,,,,,,,,,,,,,,,,,,,,,,,,,,,,,,,,,,,,,,,,,,,,,,,,,,,,,,,,,,,,,,,,"[2,7,3,8,1,5]",5,0,5,0,1,,,,,,,,,,,,,,,,,,,,,,,,,,,,,,,,,,,,,,,,,,,,,,,,
,,6102261419c471b68458a7b4,2022-09-08_11h50.27.103,CGTgamblingSpanTasks,2022.2.1,Win32,59.94485074,,,,,,,,,,,,,,,,,,,,,,,,,,,,,,,,,,,,,,,,,,,,,,,,,,,,,,,,,,,,,,,0,,,,,,,,,,,,,,,,,,,,,,,,,27381,0.030182612,-0.39877205,1,0,0,cont_button,0,10,10,10,1,11,,,,,,,,,,,,,,,,,,,,,,,,,,,,,,,,,,,
,,6102261419c471b68458a7b4,2022-09-08_11h50.27.103,CGTgamblingSpanTasks,2022.2.1,Win32,59.94485074,,,,,,,,,,,,,,,,,,,,,,,,,,,,,,,,,,,,,,,,,,,,,,,,,,,,,,,,,,,,,,,,,,,,,,,,,,,,,,,,,,"[2,7,8,5,3,6]",0,0,0,0,1,,,,,,,,,,,,,,,,,,,,,,,,,,,,,,,,,,,,,,,,,,,,,,,,
,,6102261419c471b68458a7b4,2022-09-08_11h50.27.103,CGTgamblingSpanTasks,2022.2.1,Win32,59.94485074,,,,,,,,,,,,,,,,,,,,,,,,,,,,,,,,,,,,,,,,,,,,,,,,,,,,,,,,,,,,,,,,,,,,,,,,,,,,,,,,,,"[2,7,8,5,3,6]",1,0,1,0,1,,,,,,,,,,,,,,,,,,,,,,,,,,,,,,,,,,,,,,,,,,,,,,,,
,,6102261419c471b68458a7b4,2022-09-08_11h50.27.103,CGTgamblingSpanTasks,2022.2.1,Win32,59.94485074,,,,,,,,,,,,,,,,,,,,,,,,,,,,,,,,,,,,,,,,,,,,,,,,,,,,,,,,,,,,,,,,,,,,,,,,,,,,,,,,,,"[2,7,8,5,3,6]",2,0,2,0,1,,,,,,,,,,,,,,,,,,,,,,,,,,,,,,,,,,,,,,,,,,,,,,,,
,,6102261419c471b68458a7b4,2022-09-08_11h50.27.103,CGTgamblingSpanTasks,2022.2.1,Win32,59.94485074,,,,,,,,,,,,,,,,,,,,,,,,,,,,,,,,,,,,,,,,,,,,,,,,,,,,,,,,,,,,,,,,,,,,,,,,,,,,,,,,,,"[2,7,8,5,3,6]",3,0,3,0,1,,,,,,,,,,,,,,,,,,,,,,,,,,,,,,,,,,,,,,,,,,,,,,,,
,,6102261419c471b68458a7b4,2022-09-08_11h50.27.103,CGTgamblingSpanTasks,2022.2.1,Win32,59.94485074,,,,,,,,,,,,,,,,,,,,,,,,,,,,,,,,,,,,,,,,,,,,,,,,,,,,,,,,,,,,,,,,,,,,,,,,,,,,,,,,,,"[2,7,8,5,3,6]",4,0,4,0,1,,,,,,,,,,,,,,,,,,,,,,,,,,,,,,,,,,,,,,,,,,,,,,,,
,,6102261419c471b68458a7b4,2022-09-08_11h50.27.103,CGTgamblingSpanTasks,2022.2.1,Win32,59.94485074,,,,,,,,,,,,,,,,,,,,,,,,,,,,,,,,,,,,,,,,,,,,,,,,,,,,,,,,,,,,,,,,,,,,,,,,,,,,,,,,,,"[2,7,8,5,3,6]",5,0,5,0,1,,,,,,,,,,,,,,,,,,,,,,,,,,,,,,,,,,,,,,,,,,,,,,,,
,,6102261419c471b68458a7b4,2022-09-08_11h50.27.103,CGTgamblingSpanTasks,2022.2.1,Win32,59.94485074,,,,,,,,,,,,,,,,,,,,,,,,,,,,,,,,,,,,,,,,,,,,,,,,,,,,,,,,,,,,,,,0,,,,,,,,,,,,,,,,,,,,,,,,,278356,0.030182612,-0.39877205,1,0,0,cont_button,0,11,11,11,1,12,,,,,,,,,,,,,,,,,,,,,,,,,,,,,,,,,,,
,,6102261419c471b68458a7b4,2022-09-08_11h50.27.103,CGTgamblingSpanTasks,2022.2.1,Win32,59.94485074,,,,,,,,,,,,,,,,,,,,,,,,,,,,,,,,,,,,,,,,,,,,,,,,,,,,,,,,,,,,,,,,,,,,,,,,,,,,,,,,,,"[9,5,4,2,6]",0,0,0,0,1,,,,,,,,,,,,,,,,,,,,,,,,,,,,,,,,,,,,,,,,,,,,,,,,
,,6102261419c471b68458a7b4,2022-09-08_11h50.27.103,CGTgamblingSpanTasks,2022.2.1,Win32,59.94485074,,,,,,,,,,,,,,,,,,,,,,,,,,,,,,,,,,,,,,,,,,,,,,,,,,,,,,,,,,,,,,,,,,,,,,,,,,,,,,,,,,"[9,5,4,2,6]",1,0,1,0,1,,,,,,,,,,,,,,,,,,,,,,,,,,,,,,,,,,,,,,,,,,,,,,,,
,,6102261419c471b68458a7b4,2022-09-08_11h50.27.103,CGTgamblingSpanTasks,2022.2.1,Win32,59.94485074,,,,,,,,,,,,,,,,,,,,,,,,,,,,,,,,,,,,,,,,,,,,,,,,,,,,,,,,,,,,,,,,,,,,,,,,,,,,,,,,,,"[9,5,4,2,6]",2,0,2,0,1,,,,,,,,,,,,,,,,,,,,,,,,,,,,,,,,,,,,,,,,,,,,,,,,
,,6102261419c471b68458a7b4,2022-09-08_11h50.27.103,CGTgamblingSpanTasks,2022.2.1,Win32,59.94485074,,,,,,,,,,,,,,,,,,,,,,,,,,,,,,,,,,,,,,,,,,,,,,,,,,,,,,,,,,,,,,,,,,,,,,,,,,,,,,,,,,"[9,5,4,2,6]",3,0,3,0,1,,,,,,,,,,,,,,,,,,,,,,,,,,,,,,,,,,,,,,,,,,,,,,,,
,,6102261419c471b68458a7b4,2022-09-08_11h50.27.103,CGTgamblingSpanTasks,2022.2.1,Win32,59.94485074,,,,,,,,,,,,,,,,,,,,,,,,,,,,,,,,,,,,,,,,,,,,,,,,,,,,,,,,,,,,,,,,,,,,,,,,,,,,,,,,,,"[9,5,4,2,6]",4,0,4,0,1,,,,,,,,,,,,,,,,,,,,,,,,,,,,,,,,,,,,,,,,,,,,,,,,
,,6102261419c471b68458a7b4,2022-09-08_11h50.27.103,CGTgamblingSpanTasks,2022.2.1,Win32,59.94485074,,,,,,,,,,,,,,,,,,,,,,,,,,,,,,,,,,,,,,,,,,,,,,,,,,,,,,,,,,,,,,,0,,,,,,,,,,,,,,,,,,,,,,,,,95462,0.030182612,-0.39877205,1,0,0,cont_button,0,12,12,12,1,13,,,,,,,,,,,,,,,,,,,,,,,,,,,,,,,,,,,
,,6102261419c471b68458a7b4,2022-09-08_11h50.27.103,CGTgamblingSpanTasks,2022.2.1,Win32,59.94485074,,,,,,,,,,,,,,,,,,,,,,,,,,,,,,,,,,,,,,,,,,,,,,,,,,,,,,,,,,,,,,,,,,,,,,,,,,,,,,,,,,"[2,5,8,9,3]",0,0,0,0,1,,,,,,,,,,,,,,,,,,,,,,,,,,,,,,,,,,,,,,,,,,,,,,,,
,,6102261419c471b68458a7b4,2022-09-08_11h50.27.103,CGTgamblingSpanTasks,2022.2.1,Win32,59.94485074,,,,,,,,,,,,,,,,,,,,,,,,,,,,,,,,,,,,,,,,,,,,,,,,,,,,,,,,,,,,,,,,,,,,,,,,,,,,,,,,,,"[2,5,8,9,3]",1,0,1,0,1,,,,,,,,,,,,,,,,,,,,,,,,,,,,,,,,,,,,,,,,,,,,,,,,
,,6102261419c471b68458a7b4,2022-09-08_11h50.27.103,CGTgamblingSpanTasks,2022.2.1,Win32,59.94485074,,,,,,,,,,,,,,,,,,,,,,,,,,,,,,,,,,,,,,,,,,,,,,,,,,,,,,,,,,,,,,,,,,,,,,,,,,,,,,,,,,"[2,5,8,9,3]",2,0,2,0,1,,,,,,,,,,,,,,,,,,,,,,,,,,,,,,,,,,,,,,,,,,,,,,,,
,,6102261419c471b68458a7b4,2022-09-08_11h50.27.103,CGTgamblingSpanTasks,2022.2.1,Win32,59.94485074,,,,,,,,,,,,,,,,,,,,,,,,,,,,,,,,,,,,,,,,,,,,,,,,,,,,,,,,,,,,,,,,,,,,,,,,,,,,,,,,,,"[2,5,8,9,3]",3,0,3,0,1,,,,,,,,,,,,,,,,,,,,,,,,,,,,,,,,,,,,,,,,,,,,,,,,
,,6102261419c471b68458a7b4,2022-09-08_11h50.27.103,CGTgamblingSpanTasks,2022.2.1,Win32,59.94485074,,,,,,,,,,,,,,,,,,,,,,,,,,,,,,,,,,,,,,,,,,,,,,,,,,,,,,,,,,,,,,,,,,,,,,,,,,,,,,,,,,"[2,5,8,9,3]",4,0,4,0,1,,,,,,,,,,,,,,,,,,,,,,,,,,,,,,,,,,,,,,,,,,,,,,,,
,,6102261419c471b68458a7b4,2022-09-08_11h50.27.103,CGTgamblingSpanTasks,2022.2.1,Win32,59.94485074,,,,,,,,,,,,,,,,,,,,,,,,,,,,,,,,,,,,,,,,,,,,,,,,,,,,,,,,,,,,,,,1,,,,,,,,,,,,,,,,,,,,,,,,,25893,0.030182612,-0.39877205,1,0,0,cont_button,0,13,13,13,1,14,,,,,,,,,,,,,,,,,,,,,,,,,,,,,,,,,,,
,,6102261419c471b68458a7b4,2022-09-08_11h50.27.103,CGTgamblingSpanTasks,2022.2.1,Win32,59.94485074,,,,,,,,,,,,,,,,,,,,,,,,,,,,,,,,,,,,,,,,,,,,,,,,,,,,,,,,,,,,,,,,,,,,,,,,,,,,,,,,,,,,,,,,,,,,,,,,,,,,,return,10.8087,,,,,,,,,,,,,,,,,,,,,,,,,,,,,,,,,
,,6102261419c471b68458a7b4,2022-09-08_11h50.27.103,CGTgamblingSpanTasks,2022.2.1,Win32,59.94485074,,,,,,,,,,,,,,,,,,,,,,,,,,,,,,,,,,,,,,,,,,,,,,,,,,,,,,,,,,,,,,,,,,,,,,,,,,,,,,,,,,,,,,,,,,,,,,,,,,,,,,,return,54.0659,,,,,,,,,,,,,,,,,,,,,,,,,,,,,,,
,,6102261419c471b68458a7b4,2022-09-08_11h50.27.103,CGTgamblingSpanTasks,2022.2.1,Win32,59.94485074,,,,,,,,,,,,,,,,,,,,,,,,,,,,,,,,,,,,,,,,,,,,,,,,,,,,,,,,,,,,,,,1,,,,,,,,,,,,3,342,24,2,42,,,,,,,,,,,,,,,,,,,,,,,,,,42,0.030182612,-0.39877205,1,0,0,cont_buttonPractice_2,0,0,0,0,1,,,,,,,,,,,,,,,,,,,
,,6102261419c471b68458a7b4,2022-09-08_11h50.27.103,CGTgamblingSpanTasks,2022.2.1,Win32,59.94485074,,,,,,,,,,,,,,,,,,,,,,,,,,,,,,,,,,,,,,,,,,,,,,,,,,,,,,,,,,,,,,,1,,,,,,,,,,,,3,937,73,2,37,,,,,,,,,,,,,,,,,,,,,,,,,,37,0.030182612,-0.39877205,1,0,0,cont_buttonPractice_2,0,1,1,1,1,,,,,,,,,,,,,,,,,,,
,,6102261419c471b68458a7b4,2022-09-08_11h50.27.103,CGTgamblingSpanTasks,2022.2.1,Win32,59.94485074,,,,,,,,,,,,,,,,,,,,,,,,,,,,,,,,,,,,,,,,,,,,,,,,,,,,,,,,,,,,,,,,,,,,,,,,,,,,,,,,,,,,,,,,,,,,,,,,,,,,,,,,,,,,,,,,,,,,,return,7.7593,,,,,,,,,,,,,,,,,
,,6102261419c471b68458a7b4,2022-09-08_11h50.27.103,CGTgamblingSpanTasks,2022.2.1,Win32,59.94485074,,,,,,,,,,,,,,,,,,,,,,,,,,,,,,,,,,,,,,,,,,,,,,,,,,,,,,,,,,,,,,,,,,,,,,,,,,,,,,,,,,"[5,3]",,,,,,,,,,,,,,,,,,,,,,,,,,,,,,,,,,,,,0,0,0,0,1,,,,,,,,,,,,
,,6102261419c471b68458a7b4,2022-09-08_11h50.27.103,CGTgamblingSpanTasks,2022.2.1,Win32,59.94485074,,,,,,,,,,,,,,,,,,,,,,,,,,,,,,,,,,,,,,,,,,,,,,,,,,,,,,,,,,,,,,,,,,,,,,,,,,,,,,,,,,"[5,3]",,,,,,,,,,,,,,,,,,,,,,,,,,,,,,,,,,,,,1,0,1,0,1,,,,,,,,,,,,
,,6102261419c471b68458a7b4,2022-09-08_11h50.27.103,CGTgamblingSpanTasks,2022.2.1,Win32,59.94485074,,,,,,,,,,,,,,,,,,,,,,,,,,,,,,,,,,,,,,,,,,,,,,,,,,,,,,,,,,,,,,,1,,,,,,,,,,,,,,,,,,,,,,,,,,,,,,,,,,,,,1,,,,,,,,,,,,,,,,,,,,,,,,35,0.030182612,-0.39877205,1,0,0,cont_buttonBS,0,0,0,0,1
,,6102261419c471b68458a7b4,2022-09-08_11h50.27.103,CGTgamblingSpanTasks,2022.2.1,Win32,59.94485074,,,,,,,,,,,,,,,,,,,,,,,,,,,,,,,,,,,,,,,,,,,,,,,,,,,,,,,,,,,,,,,,,,,,,,,,,,,,,,,,,,"[8,2,5]",,,,,,,,,,,,,,,,,,,,,,,,,,,,,,,,,,,,,0,0,0,0,1,,,,,,,,,,,,
,,6102261419c471b68458a7b4,2022-09-08_11h50.27.103,CGTgamblingSpanTasks,2022.2.1,Win32,59.94485074,,,,,,,,,,,,,,,,,,,,,,,,,,,,,,,,,,,,,,,,,,,,,,,,,,,,,,,,,,,,,,,,,,,,,,,,,,,,,,,,,,"[8,2,5]",,,,,,,,,,,,,,,,,,,,,,,,,,,,,,,,,,,,,1,0,1,0,1,,,,,,,,,,,,
,,6102261419c471b68458a7b4,2022-09-08_11h50.27.103,CGTgamblingSpanTasks,2022.2.1,Win32,59.94485074,,,,,,,,,,,,,,,,,,,,,,,,,,,,,,,,,,,,,,,,,,,,,,,,,,,,,,,,,,,,,,,,,,,,,,,,,,,,,,,,,,"[8,2,5]",,,,,,,,,,,,,,,,,,,,,,,,,,,,,,,,,,,,,2,0,2,0,1,,,,,,,,,,,,
,,6102261419c471b68458a7b4,2022-09-08_11h50.27.103,CGTgamblingSpanTasks,2022.2.1,Win32,59.94485074,,,,,,,,,,,,,,,,,,,,,,,,,,,,,,,,,,,,,,,,,,,,,,,,,,,,,,,,,,,,,,,0,,,,,,,,,,,,,,,,,,,,,,,,,,,,,,,,,,,,,2,,,,,,,,,,,,,,,,,,,,,,,,582,0.030182612,-0.39877205,1,0,0,cont_buttonBS,0,1,1,1,1
,,6102261419c471b68458a7b4,2022-09-08_11h50.27.103,CGTgamblingSpanTasks,2022.2.1,Win32,59.94485074,,,,,,,,,,,,,,,,,,,,,,,,,,,,,,,,,,,,,,,,,,,,,,,,,,,,,,,,,,,,,,,,,,,,,,,,,,,,,,,,,,"[1,8,5]",,,,,,,,,,,,,,,,,,,,,,,,,,,,,,,,,,,,,0,0,0,0,1,,,,,,,,,,,,
,,6102261419c471b68458a7b4,2022-09-08_11h50.27.103,CGTgamblingSpanTasks,2022.2.1,Win32,59.94485074,,,,,,,,,,,,,,,,,,,,,,,,,,,,,,,,,,,,,,,,,,,,,,,,,,,,,,,,,,,,,,,,,,,,,,,,,,,,,,,,,,"[1,8,5]",,,,,,,,,,,,,,,,,,,,,,,,,,,,,,,,,,,,,1,0,1,0,1,,,,,,,,,,,,
,,6102261419c471b68458a7b4,2022-09-08_11h50.27.103,CGTgamblingSpanTasks,2022.2.1,Win32,59.94485074,,,,,,,,,,,,,,,,,,,,,,,,,,,,,,,,,,,,,,,,,,,,,,,,,,,,,,,,,,,,,,,,,,,,,,,,,,,,,,,,,,"[1,8,5]",,,,,,,,,,,,,,,,,,,,,,,,,,,,,,,,,,,,,2,0,2,0,1,,,,,,,,,,,,
,,6102261419c471b68458a7b4,2022-09-08_11h50.27.103,CGTgamblingSpanTasks,2022.2.1,Win32,59.94485074,,,,,,,,,,,,,,,,,,,,,,,,,,,,,,,,,,,,,,,,,,,,,,,,,,,,,,,,,,,,,,,1,,,,,,,,,,,,,,,,,,,,,,,,,,,,,,,,,,,,,3,,,,,,,,,,,,,,,,,,,,,,,,581,0.030182612,-0.39877205,1,0,0,cont_buttonBS,0,2,2,2,1
,,6102261419c471b68458a7b4,2022-09-08_11h50.27.103,CGTgamblingSpanTasks,2022.2.1,Win32,59.94485074,,,,,,,,,,,,,,,,,,,,,,,,,,,,,,,,,,,,,,,,,,,,,,,,,,,,,,,,,,,,,,,,,,,,,,,,,,,,,,,,,,"[6,5,7,2]",,,,,,,,,,,,,,,,,,,,,,,,,,,,,,,,,,,,,0,0,0,0,1,,,,,,,,,,,,
,,6102261419c471b68458a7b4,2022-09-08_11h50.27.103,CGTgamblingSpanTasks,2022.2.1,Win32,59.94485074,,,,,,,,,,,,,,,,,,,,,,,,,,,,,,,,,,,,,,,,,,,,,,,,,,,,,,,,,,,,,,,,,,,,,,,,,,,,,,,,,,"[6,5,7,2]",,,,,,,,,,,,,,,,,,,,,,,,,,,,,,,,,,,,,1,0,1,0,1,,,,,,,,,,,,
,,6102261419c471b68458a7b4,2022-09-08_11h50.27.103,CGTgamblingSpanTasks,2022.2.1,Win32,59.94485074,,,,,,,,,,,,,,,,,,,,,,,,,,,,,,,,,,,,,,,,,,,,,,,,,,,,,,,,,,,,,,,,,,,,,,,,,,,,,,,,,,"[6,5,7,2]",,,,,,,,,,,,,,,,,,,,,,,,,,,,,,,,,,,,,2,0,2,0,1,,,,,,,,,,,,
,,6102261419c471b68458a7b4,2022-09-08_11h50.27.103,CGTgamblingSpanTasks,2022.2.1,Win32,59.94485074,,,,,,,,,,,,,,,,,,,,,,,,,,,,,,,,,,,,,,,,,,,,,,,,,,,,,,,,,,,,,,,,,,,,,,,,,,,,,,,,,,"[6,5,7,2]",,,,,,,,,,,,,,,,,,,,,,,,,,,,,,,,,,,,,3,0,3,0,1,,,,,,,,,,,,
,,6102261419c471b68458a7b4,2022-09-08_11h50.27.103,CGTgamblingSpanTasks,2022.2.1,Win32,59.94485074,,,,,,,,,,,,,,,,,,,,,,,,,,,,,,,,,,,,,,,,,,,,,,,,,,,,,,,,,,,,,,,0,,,,,,,,,,,,,,,,,,,,,,,,,,,,,,,,,,,,,4,,,,,,,,,,,,,,,,,,,,,,,,2758,0.030182612,-0.39877205,1,0,0,cont_buttonBS,0,3,3,3,1
,,6102261419c471b68458a7b4,2022-09-08_11h50.27.103,CGTgamblingSpanTasks,2022.2.1,Win32,59.94485074,,,,,,,,,,,,,,,,,,,,,,,,,,,,,,,,,,,,,,,,,,,,,,,,,,,,,,,,,,,,,,,,,,,,,,,,,,,,,,,,,,"[8,6,5,2]",,,,,,,,,,,,,,,,,,,,,,,,,,,,,,,,,,,,,0,0,0,0,1,,,,,,,,,,,,
,,6102261419c471b68458a7b4,2022-09-08_11h50.27.103,CGTgamblingSpanTasks,2022.2.1,Win32,59.94485074,,,,,,,,,,,,,,,,,,,,,,,,,,,,,,,,,,,,,,,,,,,,,,,,,,,,,,,,,,,,,,,,,,,,,,,,,,,,,,,,,,"[8,6,5,2]",,,,,,,,,,,,,,,,,,,,,,,,,,,,,,,,,,,,,1,0,1,0,1,,,,,,,,,,,,
,,6102261419c471b68458a7b4,2022-09-08_11h50.27.103,CGTgamblingSpanTasks,2022.2.1,Win32,59.94485074,,,,,,,,,,,,,,,,,,,,,,,,,,,,,,,,,,,,,,,,,,,,,,,,,,,,,,,,,,,,,,,,,,,,,,,,,,,,,,,,,,"[8,6,5,2]",,,,,,,,,,,,,,,,,,,,,,,,,,,,,,,,,,,,,2,0,2,0,1,,,,,,,,,,,,
,,6102261419c471b68458a7b4,2022-09-08_11h50.27.103,CGTgamblingSpanTasks,2022.2.1,Win32,59.94485074,,,,,,,,,,,,,,,,,,,,,,,,,,,,,,,,,,,,,,,,,,,,,,,,,,,,,,,,,,,,,,,,,,,,,,,,,,,,,,,,,,"[8,6,5,2]",,,,,,,,,,,,,,,,,,,,,,,,,,,,,,,,,,,,,3,0,3,0,1,,,,,,,,,,,,
,,6102261419c471b68458a7b4,2022-09-08_11h50.27.103,CGTgamblingSpanTasks,2022.2.1,Win32,59.94485074,,,,,,,,,,,,,,,,,,,,,,,,,,,,,,,,,,,,,,,,,,,,,,,,,,,,,,,,,,,,,,,1,,,,,,,,,,,,,,,,,,,,,,,,,,,,,,,,,,,,,5,,,,,,,,,,,,,,,,,,,,,,,,2568,0.030182612,-0.39877205,1,0,0,cont_buttonBS,0,4,4,4,1
,,6102261419c471b68458a7b4,2022-09-08_11h50.27.103,CGTgamblingSpanTasks,2022.2.1,Win32,59.94485074,,,,,,,,,,,,,,,,,,,,,,,,,,,,,,,,,,,,,,,,,,,,,,,,,,,,,,,,,,,,,,,,,,,,,,,,,,,,,,,,,,"[6,3,8,7,1]",,,,,,,,,,,,,,,,,,,,,,,,,,,,,,,,,,,,,0,0,0,0,1,,,,,,,,,,,,
,,6102261419c471b68458a7b4,2022-09-08_11h50.27.103,CGTgamblingSpanTasks,2022.2.1,Win32,59.94485074,,,,,,,,,,,,,,,,,,,,,,,,,,,,,,,,,,,,,,,,,,,,,,,,,,,,,,,,,,,,,,,,,,,,,,,,,,,,,,,,,,"[6,3,8,7,1]",,,,,,,,,,,,,,,,,,,,,,,,,,,,,,,,,,,,,1,0,1,0,1,,,,,,,,,,,,
,,6102261419c471b68458a7b4,2022-09-08_11h50.27.103,CGTgamblingSpanTasks,2022.2.1,Win32,59.94485074,,,,,,,,,,,,,,,,,,,,,,,,,,,,,,,,,,,,,,,,,,,,,,,,,,,,,,,,,,,,,,,,,,,,,,,,,,,,,,,,,,"[6,3,8,7,1]",,,,,,,,,,,,,,,,,,,,,,,,,,,,,,,,,,,,,2,0,2,0,1,,,,,,,,,,,,
,,6102261419c471b68458a7b4,2022-09-08_11h50.27.103,CGTgamblingSpanTasks,2022.2.1,Win32,59.94485074,,,,,,,,,,,,,,,,,,,,,,,,,,,,,,,,,,,,,,,,,,,,,,,,,,,,,,,,,,,,,,,,,,,,,,,,,,,,,,,,,,"[6,3,8,7,1]",,,,,,,,,,,,,,,,,,,,,,,,,,,,,,,,,,,,,3,0,3,0,1,,,,,,,,,,,,
,,6102261419c471b68458a7b4,2022-09-08_11h50.27.103,CGTgamblingSpanTasks,2022.2.1,Win32,59.94485074,,,,,,,,,,,,,,,,,,,,,,,,,,,,,,,,,,,,,,,,,,,,,,,,,,,,,,,,,,,,,,,,,,,,,,,,,,,,,,,,,,"[6,3,8,7,1]",,,,,,,,,,,,,,,,,,,,,,,,,,,,,,,,,,,,,4,0,4,0,1,,,,,,,,,,,,
,,6102261419c471b68458a7b4,2022-09-08_11h50.27.103,CGTgamblingSpanTasks,2022.2.1,Win32,59.94485074,,,,,,,,,,,,,,,,,,,,,,,,,,,,,,,,,,,,,,,,,,,,,,,,,,,,,,,,,,,,,,,1,,,,,,,,,,,,,,,,,,,,,,,,,,,,,,,,,,,,,6,,,,,,,,,,,,,,,,,,,,,,,,17836,0.064234826,-0.397740134,1,0,0,cont_buttonBS,0,5,5,5,1
,,6102261419c471b68458a7b4,2022-09-08_11h50.27.103,CGTgamblingSpanTasks,2022.2.1,Win32,59.94485074,,,,,,,,,,,,,,,,,,,,,,,,,,,,,,,,,,,,,,,,,,,,,,,,,,,,,,,,,,,,,,,,,,,,,,,,,,,,,,,,,,"[2,8,6,5,9,3]",,,,,,,,,,,,,,,,,,,,,,,,,,,,,,,,,,,,,0,0,0,0,1,,,,,,,,,,,,
,,6102261419c471b68458a7b4,2022-09-08_11h50.27.103,CGTgamblingSpanTasks,2022.2.1,Win32,59.94485074,,,,,,,,,,,,,,,,,,,,,,,,,,,,,,,,,,,,,,,,,,,,,,,,,,,,,,,,,,,,,,,,,,,,,,,,,,,,,,,,,,"[2,8,6,5,9,3]",,,,,,,,,,,,,,,,,,,,,,,,,,,,,,,,,,,,,1,0,1,0,1,,,,,,,,,,,,
,,6102261419c471b68458a7b4,2022-09-08_11h50.27.103,CGTgamblingSpanTasks,2022.2.1,Win32,59.94485074,,,,,,,,,,,,,,,,,,,,,,,,,,,,,,,,,,,,,,,,,,,,,,,,,,,,,,,,,,,,,,,,,,,,,,,,,,,,,,,,,,"[2,8,6,5,9,3]",,,,,,,,,,,,,,,,,,,,,,,,,,,,,,,,,,,,,2,0,2,0,1,,,,,,,,,,,,
,,6102261419c471b68458a7b4,2022-09-08_11h50.27.103,CGTgamblingSpanTasks,2022.2.1,Win32,59.94485074,,,,,,,,,,,,,,,,,,,,,,,,,,,,,,,,,,,,,,,,,,,,,,,,,,,,,,,,,,,,,,,,,,,,,,,,,,,,,,,,,,"[2,8,6,5,9,3]",,,,,,,,,,,,,,,,,,,,,,,,,,,,,,,,,,,,,3,0,3,0,1,,,,,,,,,,,,
,,6102261419c471b68458a7b4,2022-09-08_11h50.27.103,CGTgamblingSpanTasks,2022.2.1,Win32,59.94485074,,,,,,,,,,,,,,,,,,,,,,,,,,,,,,,,,,,,,,,,,,,,,,,,,,,,,,,,,,,,,,,,,,,,,,,,,,,,,,,,,,"[2,8,6,5,9,3]",,,,,,,,,,,,,,,,,,,,,,,,,,,,,,,,,,,,,4,0,4,0,1,,,,,,,,,,,,
,,6102261419c471b68458a7b4,2022-09-08_11h50.27.103,CGTgamblingSpanTasks,2022.2.1,Win32,59.94485074,,,,,,,,,,,,,,,,,,,,,,,,,,,,,,,,,,,,,,,,,,,,,,,,,,,,,,,,,,,,,,,,,,,,,,,,,,,,,,,,,,"[2,8,6,5,9,3]",,,,,,,,,,,,,,,,,,,,,,,,,,,,,,,,,,,,,5,0,5,0,1,,,,,,,,,,,,
,,6102261419c471b68458a7b4,2022-09-08_11h50.27.103,CGTgamblingSpanTasks,2022.2.1,Win32,59.94485074,,,,,,,,,,,,,,,,,,,,,,,,,,,,,,,,,,,,,,,,,,,,,,,,,,,,,,,,,,,,,,,1,,,,,,,,,,,,,,,,,,,,,,,,,,,,,,,,,,,,,7,,,,,,,,,,,,,,,,,,,,,,,,395682,0.064234826,-0.397740134,1,0,0,cont_buttonBS,0,6,6,6,1
,,6102261419c471b68458a7b4,2022-09-08_11h50.27.103,CGTgamblingSpanTasks,2022.2.1,Win32,59.94485074,,,,,,,,,,,,,,,,,,,,,,,,,,,,,,,,,,,,,,,,,,,,,,,,,,,,,,,,,,,,,,,,,,,,,,,,,,,,,,,,,,"[5,8,7,4,3,6,9]",,,,,,,,,,,,,,,,,,,,,,,,,,,,,,,,,,,,,0,0,0,0,1,,,,,,,,,,,,
,,6102261419c471b68458a7b4,2022-09-08_11h50.27.103,CGTgamblingSpanTasks,2022.2.1,Win32,59.94485074,,,,,,,,,,,,,,,,,,,,,,,,,,,,,,,,,,,,,,,,,,,,,,,,,,,,,,,,,,,,,,,,,,,,,,,,,,,,,,,,,,"[5,8,7,4,3,6,9]",,,,,,,,,,,,,,,,,,,,,,,,,,,,,,,,,,,,,1,0,1,0,1,,,,,,,,,,,,
,,6102261419c471b68458a7b4,2022-09-08_11h50.27.103,CGTgamblingSpanTasks,2022.2.1,Win32,59.94485074,,,,,,,,,,,,,,,,,,,,,,,,,,,,,,,,,,,,,,,,,,,,,,,,,,,,,,,,,,,,,,,,,,,,,,,,,,,,,,,,,,"[5,8,7,4,3,6,9]",,,,,,,,,,,,,,,,,,,,,,,,,,,,,,,,,,,,,2,0,2,0,1,,,,,,,,,,,,
,,6102261419c471b68458a7b4,2022-09-08_11h50.27.103,CGTgamblingSpanTasks,2022.2.1,Win32,59.94485074,,,,,,,,,,,,,,,,,,,,,,,,,,,,,,,,,,,,,,,,,,,,,,,,,,,,,,,,,,,,,,,,,,,,,,,,,,,,,,,,,,"[5,8,7,4,3,6,9]",,,,,,,,,,,,,,,,,,,,,,,,,,,,,,,,,,,,,3,0,3,0,1,,,,,,,,,,,,
,,6102261419c471b68458a7b4,2022-09-08_11h50.27.103,CGTgamblingSpanTasks,2022.2.1,Win32,59.94485074,,,,,,,,,,,,,,,,,,,,,,,,,,,,,,,,,,,,,,,,,,,,,,,,,,,,,,,,,,,,,,,,,,,,,,,,,,,,,,,,,,"[5,8,7,4,3,6,9]",,,,,,,,,,,,,,,,,,,,,,,,,,,,,,,,,,,,,4,0,4,0,1,,,,,,,,,,,,
,,6102261419c471b68458a7b4,2022-09-08_11h50.27.103,CGTgamblingSpanTasks,2022.2.1,Win32,59.94485074,,,,,,,,,,,,,,,,,,,,,,,,,,,,,,,,,,,,,,,,,,,,,,,,,,,,,,,,,,,,,,,,,,,,,,,,,,,,,,,,,,"[5,8,7,4,3,6,9]",,,,,,,,,,,,,,,,,,,,,,,,,,,,,,,,,,,,,5,0,5,0,1,,,,,,,,,,,,
,,6102261419c471b68458a7b4,2022-09-08_11h50.27.103,CGTgamblingSpanTasks,2022.2.1,Win32,59.94485074,,,,,,,,,,,,,,,,,,,,,,,,,,,,,,,,,,,,,,,,,,,,,,,,,,,,,,,,,,,,,,,,,,,,,,,,,,,,,,,,,,"[5,8,7,4,3,6,9]",,,,,,,,,,,,,,,,,,,,,,,,,,,,,,,,,,,,,6,0,6,0,1,,,,,,,,,,,,
,,6102261419c471b68458a7b4,2022-09-08_11h50.27.103,CGTgamblingSpanTasks,2022.2.1,Win32,59.94485074,,,,,,,,,,,,,,,,,,,,,,,,,,,,,,,,,,,,,,,,,,,,,,,,,,,,,,,,,,,,,,,0,,,,,,,,,,,,,,,,,,,,,,,,,,,,,,,,,,,,,8,,,,,,,,,,,,,,,,,,,,,,,,96345,0.064234826,-0.397740134,1,0,0,cont_buttonBS,0,7,7,7,1
,,6102261419c471b68458a7b4,2022-09-08_11h50.27.103,CGTgamblingSpanTasks,2022.2.1,Win32,59.94485074,,,,,,,,,,,,,,,,,,,,,,,,,,,,,,,,,,,,,,,,,,,,,,,,,,,,,,,,,,,,,,,,,,,,,,,,,,,,,,,,,,"[7,3,5,6,4,8,1]",,,,,,,,,,,,,,,,,,,,,,,,,,,,,,,,,,,,,0,0,0,0,1,,,,,,,,,,,,
,,6102261419c471b68458a7b4,2022-09-08_11h50.27.103,CGTgamblingSpanTasks,2022.2.1,Win32,59.94485074,,,,,,,,,,,,,,,,,,,,,,,,,,,,,,,,,,,,,,,,,,,,,,,,,,,,,,,,,,,,,,,,,,,,,,,,,,,,,,,,,,"[7,3,5,6,4,8,1]",,,,,,,,,,,,,,,,,,,,,,,,,,,,,,,,,,,,,1,0,1,0,1,,,,,,,,,,,,
,,6102261419c471b68458a7b4,2022-09-08_11h50.27.103,CGTgamblingSpanTasks,2022.2.1,Win32,59.94485074,,,,,,,,,,,,,,,,,,,,,,,,,,,,,,,,,,,,,,,,,,,,,,,,,,,,,,,,,,,,,,,,,,,,,,,,,,,,,,,,,,"[7,3,5,6,4,8,1]",,,,,,,,,,,,,,,,,,,,,,,,,,,,,,,,,,,,,2,0,2,0,1,,,,,,,,,,,,
,,6102261419c471b68458a7b4,2022-09-08_11h50.27.103,CGTgamblingSpanTasks,2022.2.1,Win32,59.94485074,,,,,,,,,,,,,,,,,,,,,,,,,,,,,,,,,,,,,,,,,,,,,,,,,,,,,,,,,,,,,,,,,,,,,,,,,,,,,,,,,,"[7,3,5,6,4,8,1]",,,,,,,,,,,,,,,,,,,,,,,,,,,,,,,,,,,,,3,0,3,0,1,,,,,,,,,,,,
,,6102261419c471b68458a7b4,2022-09-08_11h50.27.103,CGTgamblingSpanTasks,2022.2.1,Win32,59.94485074,,,,,,,,,,,,,,,,,,,,,,,,,,,,,,,,,,,,,,,,,,,,,,,,,,,,,,,,,,,,,,,,,,,,,,,,,,,,,,,,,,"[7,3,5,6,4,8,1]",,,,,,,,,,,,,,,,,,,,,,,,,,,,,,,,,,,,,4,0,4,0,1,,,,,,,,,,,,
,,6102261419c471b68458a7b4,2022-09-08_11h50.27.103,CGTgamblingSpanTasks,2022.2.1,Win32,59.94485074,,,,,,,,,,,,,,,,,,,,,,,,,,,,,,,,,,,,,,,,,,,,,,,,,,,,,,,,,,,,,,,,,,,,,,,,,,,,,,,,,,"[7,3,5,6,4,8,1]",,,,,,,,,,,,,,,,,,,,,,,,,,,,,,,,,,,,,5,0,5,0,1,,,,,,,,,,,,
,,6102261419c471b68458a7b4,2022-09-08_11h50.27.103,CGTgamblingSpanTasks,2022.2.1,Win32,59.94485074,,,,,,,,,,,,,,,,,,,,,,,,,,,,,,,,,,,,,,,,,,,,,,,,,,,,,,,,,,,,,,,,,,,,,,,,,,,,,,,,,,"[7,3,5,6,4,8,1]",,,,,,,,,,,,,,,,,,,,,,,,,,,,,,,,,,,,,6,0,6,0,1,,,,,,,,,,,,
,,6102261419c471b68458a7b4,2022-09-08_11h50.27.103,CGTgamblingSpanTasks,2022.2.1,Win32,59.94485074,,,,,,,,,,,,,,,,,,,,,,,,,,,,,,,,,,,,,,,,,,,,,,,,,,,,,,,,,,,,,,,0,,,,,,,,,,,,,,,,,,,,,,,,,,,,,,,,,,,,,9,,,,,,,,,,,,,,,,,,,,,,,,184673,0.045660878,-0.397740134,1,0,0,cont_buttonBS,0,8,8,8,1
,,6102261419c471b68458a7b4,2022-09-08_11h50.27.103,CGTgamblingSpanTasks,2022.2.1,Win32,59.94485074,,,,,,,,,,,,,,,,,,,,,,,,,,,,,,,,,,,,,,,,,,,,,,,,,,,,,,,,,,,,,,,,,,,,,,,,,,,,,,,,,,"[2,3,5,7,9,6]",,,,,,,,,,,,,,,,,,,,,,,,,,,,,,,,,,,,,0,0,0,0,1,,,,,,,,,,,,
,,6102261419c471b68458a7b4,2022-09-08_11h50.27.103,CGTgamblingSpanTasks,2022.2.1,Win32,59.94485074,,,,,,,,,,,,,,,,,,,,,,,,,,,,,,,,,,,,,,,,,,,,,,,,,,,,,,,,,,,,,,,,,,,,,,,,,,,,,,,,,,"[2,3,5,7,9,6]",,,,,,,,,,,,,,,,,,,,,,,,,,,,,,,,,,,,,1,0,1,0,1,,,,,,,,,,,,
,,6102261419c471b68458a7b4,2022-09-08_11h50.27.103,CGTgamblingSpanTasks,2022.2.1,Win32,59.94485074,,,,,,,,,,,,,,,,,,,,,,,,,,,,,,,,,,,,,,,,,,,,,,,,,,,,,,,,,,,,,,,,,,,,,,,,,,,,,,,,,,"[2,3,5,7,9,6]",,,,,,,,,,,,,,,,,,,,,,,,,,,,,,,,,,,,,2,0,2,0,1,,,,,,,,,,,,
,,6102261419c471b68458a7b4,2022-09-08_11h50.27.103,CGTgamblingSpanTasks,2022.2.1,Win32,59.94485074,,,,,,,,,,,,,,,,,,,,,,,,,,,,,,,,,,,,,,,,,,,,,,,,,,,,,,,,,,,,,,,,,,,,,,,,,,,,,,,,,,"[2,3,5,7,9,6]",,,,,,,,,,,,,,,,,,,,,,,,,,,,,,,,,,,,,3,0,3,0,1,,,,,,,,,,,,
,,6102261419c471b68458a7b4,2022-09-08_11h50.27.103,CGTgamblingSpanTasks,2022.2.1,Win32,59.94485074,,,,,,,,,,,,,,,,,,,,,,,,,,,,,,,,,,,,,,,,,,,,,,,,,,,,,,,,,,,,,,,,,,,,,,,,,,,,,,,,,,"[2,3,5,7,9,6]",,,,,,,,,,,,,,,,,,,,,,,,,,,,,,,,,,,,,4,0,4,0,1,,,,,,,,,,,,
,,6102261419c471b68458a7b4,2022-09-08_11h50.27.103,CGTgamblingSpanTasks,2022.2.1,Win32,59.94485074,,,,,,,,,,,,,,,,,,,,,,,,,,,,,,,,,,,,,,,,,,,,,,,,,,,,,,,,,,,,,,,,,,,,,,,,,,,,,,,,,,"[2,3,5,7,9,6]",,,,,,,,,,,,,,,,,,,,,,,,,,,,,,,,,,,,,5,0,5,0,1,,,,,,,,,,,,
,,6102261419c471b68458a7b4,2022-09-08_11h50.27.103,CGTgamblingSpanTasks,2022.2.1,Win32,59.94485074,,,,,,,,,,,,,,,,,,,,,,,,,,,,,,,,,,,,,,,,,,,,,,,,,,,,,,,,,,,,,,,0,,,,,,,,,,,,,,,,,,,,,,,,,,,,,,,,,,,,,10,,,,,,,,,,,,,,,,,,,,,,,,697352,0.032246376,-0.410122788,1,0,0,cont_buttonBS,0,9,9,9,1
,,6102261419c471b68458a7b4,2022-09-08_11h50.27.103,CGTgamblingSpanTasks,2022.2.1,Win32,59.94485074,,,,,,,,,,,,,,,,,,,,,,,,,,,,,,,,,,,,,,,,,,,,,,,,,,,,,,,,,,,,,,,,,,,,,,,,,,,,,,,,,,"[8,2,7,4,3,5]",,,,,,,,,,,,,,,,,,,,,,,,,,,,,,,,,,,,,0,0,0,0,1,,,,,,,,,,,,
,,6102261419c471b68458a7b4,2022-09-08_11h50.27.103,CGTgamblingSpanTasks,2022.2.1,Win32,59.94485074,,,,,,,,,,,,,,,,,,,,,,,,,,,,,,,,,,,,,,,,,,,,,,,,,,,,,,,,,,,,,,,,,,,,,,,,,,,,,,,,,,"[8,2,7,4,3,5]",,,,,,,,,,,,,,,,,,,,,,,,,,,,,,,,,,,,,1,0,1,0,1,,,,,,,,,,,,
,,6102261419c471b68458a7b4,2022-09-08_11h50.27.103,CGTgamblingSpanTasks,2022.2.1,Win32,59.94485074,,,,,,,,,,,,,,,,,,,,,,,,,,,,,,,,,,,,,,,,,,,,,,,,,,,,,,,,,,,,,,,,,,,,,,,,,,,,,,,,,,"[8,2,7,4,3,5]",,,,,,,,,,,,,,,,,,,,,,,,,,,,,,,,,,,,,2,0,2,0,1,,,,,,,,,,,,
,,6102261419c471b68458a7b4,2022-09-08_11h50.27.103,CGTgamblingSpanTasks,2022.2.1,Win32,59.94485074,,,,,,,,,,,,,,,,,,,,,,,,,,,,,,,,,,,,,,,,,,,,,,,,,,,,,,,,,,,,,,,,,,,,,,,,,,,,,,,,,,"[8,2,7,4,3,5]",,,,,,,,,,,,,,,,,,,,,,,,,,,,,,,,,,,,,3,0,3,0,1,,,,,,,,,,,,
,,6102261419c471b68458a7b4,2022-09-08_11h50.27.103,CGTgamblingSpanTasks,2022.2.1,Win32,59.94485074,,,,,,,,,,,,,,,,,,,,,,,,,,,,,,,,,,,,,,,,,,,,,,,,,,,,,,,,,,,,,,,,,,,,,,,,,,,,,,,,,,"[8,2,7,4,3,5]",,,,,,,,,,,,,,,,,,,,,,,,,,,,,,,,,,,,,4,0,4,0,1,,,,,,,,,,,,
,,6102261419c471b68458a7b4,2022-09-08_11h50.27.103,CGTgamblingSpanTasks,2022.2.1,Win32,59.94485074,,,,,,,,,,,,,,,,,,,,,,,,,,,,,,,,,,,,,,,,,,,,,,,,,,,,,,,,,,,,,,,,,,,,,,,,,,,,,,,,,,"[8,2,7,4,3,5]",,,,,,,,,,,,,,,,,,,,,,,,,,,,,,,,,,,,,5,0,5,0,1,,,,,,,,,,,,
,,6102261419c471b68458a7b4,2022-09-08_11h50.27.103,CGTgamblingSpanTasks,2022.2.1,Win32,59.94485074,,,,,,,,,,,,,,,,,,,,,,,,,,,,,,,,,,,,,,,,,,,,,,,,,,,,,,,,,,,,,,,1,,,,,,,,,,,,,,,,,,,,,,,,,,,,,,,,,,,,,11,,,,,,,,,,,,,,,,,,,,,,,,534728,0.115829069,-0.392580619,1,0,0,cont_buttonBS,0,10,10,10,1
,,6102261419c471b68458a7b4,2022-09-08_11h50.27.103,CGTgamblingSpanTasks,2022.2.1,Win32,59.94485074,,,,,,,,,,,,,,,,,,,,,,,,,,,,,,,,,,,,,,,,,,,,,,,,,,,,,,,,,,,,,,,,,,,,,,,,,,,,,,,,,,"[2,3,8,9,6,1,4]",,,,,,,,,,,,,,,,,,,,,,,,,,,,,,,,,,,,,0,0,0,0,1,,,,,,,,,,,,
