initITIstatic,initITIdynamic,participant,date,expName,psychopyVersion,OS,frameRate,inst1.keys,inst1.rt,startPracResp.keys,startPracResp.rt,choice1.keys,choice1.rt,outcome,extraITI,trials.thisRepN,trials.thisTrialN,trials.thisN,trials.thisIndex,trials.ran,riskyGain,riskyLoss,alternative,isi,iti,loc,postPractResp.keys,postPractResp.rt,realloc,realChoice.keys,realChoice.rt,outcomes,choices,actualITI,init ITI,staticRDM.thisRepN,staticRDM.thisTrialN,staticRDM.thisN,staticRDM.thisIndex,staticRDM.ran,riskyoption1,riskyoption2,safeoption,ischecktrial,dynamicChoiceSetName,dynamicChoiceSetPath,bestRho,bestMu,trials_2.thisRepN,trials_2.thisTrialN,trials_2.thisN,trials_2.thisIndex,trials_2.ran,key_resp.keys,key_resp.rt,dynamicRDM.thisRepN,dynamicRDM.thisTrialN,dynamicRDM.thisN,dynamicRDM.thisIndex,dynamicRDM.ran,choiceP,easy0difficult1,stopBreak.keys,stopBreak.rt,movealong.keys,movealong.rt,startPractice.keys,startPractice.rt,textboxPractice.text,correct,mousePractice.x,mousePractice.y,mousePractice.leftButton,mousePractice.midButton,mousePractice.rightButton,mousePractice.clicked_name,trialFSPractice.thisRepN,trialFSPractice.thisTrialN,trialFSPractice.thisN,trialFSPractice.thisIndex,trialFSPractice.ran,digitSpanForward,digits,digitsReverse,digitSpanReverse,digitsReverseCorrAnswer,startFSreal.keys,startFSreal.rt,digitsForTrial,digitLoop.thisRepN,digitLoop.thisTrialN,digitLoop.thisN,digitLoop.thisIndex,digitLoop.ran,textbox.text,mouse_3.x,mouse_3.y,mouse_3.leftButton,mouse_3.midButton,mouse_3.rightButton,mouse_3.clicked_name,trialsFS.thisRepN,trialsFS.thisTrialN,trialsFS.thisN,trialsFS.thisIndex,trialsFS.ran,trialNumber,moveToBS.keys,moveToBS.rt,startBSprac.keys,startBSprac.rt,textboxPractice_2.text,mousePractice_2.x,mousePractice_2.y,mousePractice_2.leftButton,mousePractice_2.midButton,mousePractice_2.rightButton,mousePractice_2.clicked_name,trialsPracticeBS.thisRepN,trialsPracticeBS.thisTrialN,trialsPracticeBS.thisN,trialsPracticeBS.thisIndex,trialsPracticeBS.ran,startBSreal.keys,startBSreal.rt,digitLoopBS.thisRepN,digitLoopBS.thisTrialN,digitLoopBS.thisN,digitLoopBS.thisIndex,digitLoopBS.ran,textboxBS.text,mouseBS.x,mouseBS.y,mouseBS.leftButton,mouseBS.midButton,mouseBS.rightButton,mouseBS.clicked_name,trialsBS.thisRepN,trialsBS.thisTrialN,trialsBS.thisN,trialsBS.thisIndex,trialsBS.ran
"[1.5,1,1,1,1.5,1,1.5,1.5,1,1.5,1.5,1,1,1.5,1,1.5,1,1.5,1,1.5,1.5,1.5,1,1,1.5,1.5,1.5,1,1.5,1,1,1.5,1.5,1,1.5,1.5,1.5,1,1.5,1,1,1,1,1,1.5,1,1,1.5,1,1.5]","[1.5,1.5,1.5,1.5,1,1,1,1.5,1,1,1.5,1,1,1,1,1.5,1.5,1,1,1,1.5,1.5,1,1,1,1,1.5,1.5,1,1.5,1,1.5,1,1,1,1,1,1,1,1.5,1,1,1,1,1,1.5,1.5,1,1.5,1.5,1,1.5,1.5,1.5,1.5,1.5,1.5,1,1,1.5,1.5,1,1,1.5,1.5,1,1.5,1,1,1.5,1,1,1.5,1.5,1,1.5,1.5,1.5,1.5,1,1.5,1,1.5,1.5,1.5,1.5,1,1.5,1,1.5,1,1,1.5,1.5,1.5,1.5,1,1.5,1,1,1,1.5,1.5,1.5,1,1.5,1,1.5,1,1.5,1.5,1.5,1.5,1,1,1.5,1.5,1,1,1]",6135752aa4ee5158b0708670,2022-09-08_17h27.03.719,CGTgamblingSpanTasks,2022.2.1,Win32,59.68367651,,,,,,,,,,,,,,,,,,,,,,,,,,,,,,,,,,,,,,,,,,,,,,,,,,,,,,,,,,,,,,,,,,,,,,,,,,,,,,,,,,,,,,,,,,,,,,,,,,,,,,,,,,,,,,,,,,,,,,,,,,,,,,,,,,,,,,,
,,6135752aa4ee5158b0708670,2022-09-08_17h27.03.719,CGTgamblingSpanTasks,2022.2.1,Win32,59.68367651,return,10.9134,,,,,,,,,,,,,,,,,,,,,,,,,,,,,,,,,,,,,,,,,,,,,,,,,,,,,,,,,,,,,,,,,,,,,,,,,,,,,,,,,,,,,,,,,,,,,,,,,,,,,,,,,,,,,,,,,,,,,,,,,,,,,,,,,,,,,
,,6135752aa4ee5158b0708670,2022-09-08_17h27.03.719,CGTgamblingSpanTasks,2022.2.1,Win32,59.68367651,,,n,23.8098,,,,,,,,,,,,,,,,,,,,,,,,,,,,,,,,,,,,,,,,,,,,,,,,,,,,,,,,,,,,,,,,,,,,,,,,,,,,,,,,,,,,,,,,,,,,,,,,,,,,,,,,,,,,,,,,,,,,,,,,,,,,,,,,,,,
,,6135752aa4ee5158b0708670,2022-09-08_17h27.03.719,CGTgamblingSpanTasks,2022.2.1,Win32,59.68367651,,,,,v,3.6837,18.23,0.3163,0,0,0,0,1,18.23,0,9.45,2,1,1,,,,,,,,,,,,,,,,,,,,,,,,,,,,,,,,,,,,,,,,,,,,,,,,,,,,,,,,,,,,,,,,,,,,,,,,,,,,,,,,,,,,,,,,,,,,,,,,,,,,,,,,,,,,,,,,,,,,
,,6135752aa4ee5158b0708670,2022-09-08_17h27.03.719,CGTgamblingSpanTasks,2022.2.1,Win32,59.68367651,,,,,n,2.8924,35.16,1.1076,0,1,1,1,1,53.27,0,35.16,1,1.5,1,,,,,,,,,,,,,,,,,,,,,,,,,,,,,,,,,,,,,,,,,,,,,,,,,,,,,,,,,,,,,,,,,,,,,,,,,,,,,,,,,,,,,,,,,,,,,,,,,,,,,,,,,,,,,,,,,,,,
,,6135752aa4ee5158b0708670,2022-09-08_17h27.03.719,CGTgamblingSpanTasks,2022.2.1,Win32,59.68367651,,,,,n,3.0131,0,0.9869,0,2,2,2,1,8.27,0,1.15,1,1.5,2,,,,,,,,,,,,,,,,,,,,,,,,,,,,,,,,,,,,,,,,,,,,,,,,,,,,,,,,,,,,,,,,,,,,,,,,,,,,,,,,,,,,,,,,,,,,,,,,,,,,,,,,,,,,,,,,,,,,
,,6135752aa4ee5158b0708670,2022-09-08_17h27.03.719,CGTgamblingSpanTasks,2022.2.1,Win32,59.68367651,,,,,n,2.5772,40.41,1.4228,0,3,3,3,1,45.88,0,40.41,3,1,1,,,,,,,,,,,,,,,,,,,,,,,,,,,,,,,,,,,,,,,,,,,,,,,,,,,,,,,,,,,,,,,,,,,,,,,,,,,,,,,,,,,,,,,,,,,,,,,,,,,,,,,,,,,,,,,,,,,,
,,6135752aa4ee5158b0708670,2022-09-08_17h27.03.719,CGTgamblingSpanTasks,2022.2.1,Win32,59.68367651,,,,,v,2.5266,11.96,1.4734,0,4,4,4,1,21.56,0,11.96,1,1.5,2,,,,,,,,,,,,,,,,,,,,,,,,,,,,,,,,,,,,,,,,,,,,,,,,,,,,,,,,,,,,,,,,,,,,,,,,,,,,,,,,,,,,,,,,,,,,,,,,,,,,,,,,,,,,,,,,,,,,
,,6135752aa4ee5158b0708670,2022-09-08_17h27.03.719,CGTgamblingSpanTasks,2022.2.1,Win32,59.68367651,,,,,,,,,,,,,,,,,,,,n,7.089,,,,,,,,,,,,,,,,,,,,,,,,,,,,,,,,,,,,,,,,,,,,,,,,,,,,,,,,,,,,,,,,,,,,,,,,,,,,,,,,,,,,,,,,,,,,,,,,,,,,,,,,,,,,,,,,,,
,,6135752aa4ee5158b0708670,2022-09-08_17h27.03.719,CGTgamblingSpanTasks,2022.2.1,Win32,59.68367651,,,,,,,,2.5635,,,,,,,,,,,,,,2,v,1.4365,6.73,0,4.0635,1.5,0,0,0,32,1,10.55,0,6.73,0,,,,,,,,,,,,,,,,,,,,,,,,,,,,,,,,,,,,,,,,,,,,,,,,,,,,,,,,,,,,,,,,,,,,,,,,,,,,,,,,,,,,,,,,,,,,,,,,,,
,,6135752aa4ee5158b0708670,2022-09-08_17h27.03.719,CGTgamblingSpanTasks,2022.2.1,Win32,59.68367651,,,,,,,,0.7217,,,,,,,,,,,,,,1,v,3.2783,13.94,1,1.7217,1,0,1,1,8,1,13.94,0,5.03,0,,,,,,,,,,,,,,,,,,,,,,,,,,,,,,,,,,,,,,,,,,,,,,,,,,,,,,,,,,,,,,,,,,,,,,,,,,,,,,,,,,,,,,,,,,,,,,,,,,
,,6135752aa4ee5158b0708670,2022-09-08_17h27.03.719,CGTgamblingSpanTasks,2022.2.1,Win32,59.68367651,,,,,,,,1.7227,,,,,,,,,,,,,,2,v,2.2773,7.55,0,2.7227,1,0,2,2,45,1,0,0,7.55,1,,,,,,,,,,,,,,,,,,,,,,,,,,,,,,,,,,,,,,,,,,,,,,,,,,,,,,,,,,,,,,,,,,,,,,,,,,,,,,,,,,,,,,,,,,,,,,,,,,
,,6135752aa4ee5158b0708670,2022-09-08_17h27.03.719,CGTgamblingSpanTasks,2022.2.1,Win32,59.68367651,,,,,,,,2.641,,,,,,,,,,,,,,1,v,1.359,0,1,3.641,1,0,3,3,9,1,20.53,0,7.73,0,,,,,,,,,,,,,,,,,,,,,,,,,,,,,,,,,,,,,,,,,,,,,,,,,,,,,,,,,,,,,,,,,,,,,,,,,,,,,,,,,,,,,,,,,,,,,,,,,,
,,6135752aa4ee5158b0708670,2022-09-08_17h27.03.719,CGTgamblingSpanTasks,2022.2.1,Win32,59.68367651,,,,,,,,2.321,,,,,,,,,,,,,,1,n,1.679,6.19,0,3.821,1.5,0,4,4,22,1,11.62,0,6.19,0,,,,,,,,,,,,,,,,,,,,,,,,,,,,,,,,,,,,,,,,,,,,,,,,,,,,,,,,,,,,,,,,,,,,,,,,,,,,,,,,,,,,,,,,,,,,,,,,,,
,,6135752aa4ee5158b0708670,2022-09-08_17h27.03.719,CGTgamblingSpanTasks,2022.2.1,Win32,59.68367651,,,,,,,,2.6856,,,,,,,,,,,,,,2,v,1.3144,10.15,0,3.6856,1,0,5,5,33,1,15.7,0,10.15,0,,,,,,,,,,,,,,,,,,,,,,,,,,,,,,,,,,,,,,,,,,,,,,,,,,,,,,,,,,,,,,,,,,,,,,,,,,,,,,,,,,,,,,,,,,,,,,,,,,
,,6135752aa4ee5158b0708670,2022-09-08_17h27.03.719,CGTgamblingSpanTasks,2022.2.1,Win32,59.68367651,,,,,,,,3.1399,,,,,,,,,,,,,,2,n,0.8601,14.26,1,4.6399,1.5,0,6,6,41,1,14.26,0,0,1,,,,,,,,,,,,,,,,,,,,,,,,,,,,,,,,,,,,,,,,,,,,,,,,,,,,,,,,,,,,,,,,,,,,,,,,,,,,,,,,,,,,,,,,,,,,,,,,,,
,,6135752aa4ee5158b0708670,2022-09-08_17h27.03.719,CGTgamblingSpanTasks,2022.2.1,Win32,59.68367651,,,,,,,,1.9196,,,,,,,,,,,,,,1,n,2.0804,9.03,0,3.4196,1.5,0,7,7,19,1,17.94,0,9.03,0,,,,,,,,,,,,,,,,,,,,,,,,,,,,,,,,,,,,,,,,,,,,,,,,,,,,,,,,,,,,,,,,,,,,,,,,,,,,,,,,,,,,,,,,,,,,,,,,,,
,,6135752aa4ee5158b0708670,2022-09-08_17h27.03.719,CGTgamblingSpanTasks,2022.2.1,Win32,59.68367651,,,,,,,,0.8913,,,,,,,,,,,,,,2,v,3.1087,6.88,0,1.8913,1,0,8,8,36,1,10.24,0,6.88,0,,,,,,,,,,,,,,,,,,,,,,,,,,,,,,,,,,,,,,,,,,,,,,,,,,,,,,,,,,,,,,,,,,,,,,,,,,,,,,,,,,,,,,,,,,,,,,,,,,
,,6135752aa4ee5158b0708670,2022-09-08_17h27.03.719,CGTgamblingSpanTasks,2022.2.1,Win32,59.68367651,,,,,,,,0,,,,,,,,,,,,,,2,,,,,1.5,1.5,0,9,9,6,1,14.72,0,4.64,0,,,,,,,,,,,,,,,,,,,,,,,,,,,,,,,,,,,,,,,,,,,,,,,,,,,,,,,,,,,,,,,,,,,,,,,,,,,,,,,,,,,,,,,,,,,,,,,,,,
,,6135752aa4ee5158b0708670,2022-09-08_17h27.03.719,CGTgamblingSpanTasks,2022.2.1,Win32,59.68367651,,,,,,,,2.7339,,,,,,,,,,,,,,2,n,1.2661,25.2,1,4.2339,1.5,0,10,10,3,1,25.2,0,5.4,0,,,,,,,,,,,,,,,,,,,,,,,,,,,,,,,,,,,,,,,,,,,,,,,,,,,,,,,,,,,,,,,,,,,,,,,,,,,,,,,,,,,,,,,,,,,,,,,,,,
,,6135752aa4ee5158b0708670,2022-09-08_17h27.03.719,CGTgamblingSpanTasks,2022.2.1,Win32,59.68367651,,,,,,,,2.4397,,,,,,,,,,,,,,1,v,1.5603,19.86,1,3.4397,1,0,11,11,11,1,19.86,0,8.07,0,,,,,,,,,,,,,,,,,,,,,,,,,,,,,,,,,,,,,,,,,,,,,,,,,,,,,,,,,,,,,,,,,,,,,,,,,,,,,,,,,,,,,,,,,,,,,,,,,,
,,6135752aa4ee5158b0708670,2022-09-08_17h27.03.719,CGTgamblingSpanTasks,2022.2.1,Win32,59.68367651,,,,,,,,2.8387,,,,,,,,,,,,,,2,v,1.1613,6.29,0,3.8387,1,0,12,12,24,1,11.43,0,6.29,0,,,,,,,,,,,,,,,,,,,,,,,,,,,,,,,,,,,,,,,,,,,,,,,,,,,,,,,,,,,,,,,,,,,,,,,,,,,,,,,,,,,,,,,,,,,,,,,,,,
,,6135752aa4ee5158b0708670,2022-09-08_17h27.03.719,CGTgamblingSpanTasks,2022.2.1,Win32,59.68367651,,,,,,,,2.8784,,,,,,,,,,,,,,2,n,1.1216,0,1,4.3784,1.5,0,13,13,7,1,21.32,0,7.34,0,,,,,,,,,,,,,,,,,,,,,,,,,,,,,,,,,,,,,,,,,,,,,,,,,,,,,,,,,,,,,,,,,,,,,,,,,,,,,,,,,,,,,,,,,,,,,,,,,,
,,6135752aa4ee5158b0708670,2022-09-08_17h27.03.719,CGTgamblingSpanTasks,2022.2.1,Win32,59.68367651,,,,,,,,2.5491,,,,,,,,,,,,,,1,v,1.4509,0,1,3.5491,1,0,14,14,17,1,18.33,0,8.84,0,,,,,,,,,,,,,,,,,,,,,,,,,,,,,,,,,,,,,,,,,,,,,,,,,,,,,,,,,,,,,,,,,,,,,,,,,,,,,,,,,,,,,,,,,,,,,,,,,,
,,6135752aa4ee5158b0708670,2022-09-08_17h27.03.719,CGTgamblingSpanTasks,2022.2.1,Win32,59.68367651,,,,,,,,2.8666,,,,,,,,,,,,,,2,v,1.1334,6.08,0,4.3666,1.5,0,15,15,20,1,11.84,0,6.08,0,,,,,,,,,,,,,,,,,,,,,,,,,,,,,,,,,,,,,,,,,,,,,,,,,,,,,,,,,,,,,,,,,,,,,,,,,,,,,,,,,,,,,,,,,,,,,,,,,,
,,6135752aa4ee5158b0708670,2022-09-08_17h27.03.719,CGTgamblingSpanTasks,2022.2.1,Win32,59.68367651,,,,,,,,2.9826,,,,,,,,,,,,,,1,v,1.0174,28.21,1,3.9826,1,0,16,16,1,1,28.21,0,3.89,0,,,,,,,,,,,,,,,,,,,,,,,,,,,,,,,,,,,,,,,,,,,,,,,,,,,,,,,,,,,,,,,,,,,,,,,,,,,,,,,,,,,,,,,,,,,,,,,,,,
,,6135752aa4ee5158b0708670,2022-09-08_17h27.03.719,CGTgamblingSpanTasks,2022.2.1,Win32,59.68367651,,,,,,,,2.722,,,,,,,,,,,,,,2,n,1.278,17,1,4.222,1.5,0,17,17,25,1,17,0,9.5,0,,,,,,,,,,,,,,,,,,,,,,,,,,,,,,,,,,,,,,,,,,,,,,,,,,,,,,,,,,,,,,,,,,,,,,,,,,,,,,,,,,,,,,,,,,,,,,,,,,
,,6135752aa4ee5158b0708670,2022-09-08_17h27.03.719,CGTgamblingSpanTasks,2022.2.1,Win32,59.68367651,,,,,,,,2.36,,,,,,,,,,,,,,2,n,1.64,0,1,3.36,1,0,18,18,2,1,17.73,0,3.13,0,,,,,,,,,,,,,,,,,,,,,,,,,,,,,,,,,,,,,,,,,,,,,,,,,,,,,,,,,,,,,,,,,,,,,,,,,,,,,,,,,,,,,,,,,,,,,,,,,,
,,6135752aa4ee5158b0708670,2022-09-08_17h27.03.719,CGTgamblingSpanTasks,2022.2.1,Win32,59.68367651,,,,,,,,1.8337,,,,,,,,,,,,,,1,v,2.1663,12.36,1,3.3337,1.5,0,19,19,16,1,12.36,0,5.82,0,,,,,,,,,,,,,,,,,,,,,,,,,,,,,,,,,,,,,,,,,,,,,,,,,,,,,,,,,,,,,,,,,,,,,,,,,,,,,,,,,,,,,,,,,,,,,,,,,,
,,6135752aa4ee5158b0708670,2022-09-08_17h27.03.719,CGTgamblingSpanTasks,2022.2.1,Win32,59.68367651,,,,,,,,2.3535,,,,,,,,,,,,,,2,v,1.6465,10.02,0,3.8535,1.5,0,20,20,31,1,15.96,0,10.02,0,,,,,,,,,,,,,,,,,,,,,,,,,,,,,,,,,,,,,,,,,,,,,,,,,,,,,,,,,,,,,,,,,,,,,,,,,,,,,,,,,,,,,,,,,,,,,,,,,,
,,6135752aa4ee5158b0708670,2022-09-08_17h27.03.719,CGTgamblingSpanTasks,2022.2.1,Win32,59.68367651,,,,,,,,2.8371,,,,,,,,,,,,,,1,v,1.1629,16,1,4.3371,1.5,0,21,21,4,1,16,0,4,0,,,,,,,,,,,,,,,,,,,,,,,,,,,,,,,,,,,,,,,,,,,,,,,,,,,,,,,,,,,,,,,,,,,,,,,,,,,,,,,,,,,,,,,,,,,,,,,,,,
,,6135752aa4ee5158b0708670,2022-09-08_17h27.03.719,CGTgamblingSpanTasks,2022.2.1,Win32,59.68367651,,,,,,,,1.6396,,,,,,,,,,,,,,1,v,2.3604,11.2,1,2.6396,1,0,22,22,26,1,11.2,0,6.4,0,,,,,,,,,,,,,,,,,,,,,,,,,,,,,,,,,,,,,,,,,,,,,,,,,,,,,,,,,,,,,,,,,,,,,,,,,,,,,,,,,,,,,,,,,,,,,,,,,,
,,6135752aa4ee5158b0708670,2022-09-08_17h27.03.719,CGTgamblingSpanTasks,2022.2.1,Win32,59.68367651,,,,,,,,0.9502,,,,,,,,,,,,,,2,n,3.0498,17.59,1,1.9502,1,0,23,23,21,1,17.59,0,9.2,0,,,,,,,,,,,,,,,,,,,,,,,,,,,,,,,,,,,,,,,,,,,,,,,,,,,,,,,,,,,,,,,,,,,,,,,,,,,,,,,,,,,,,,,,,,,,,,,,,,
,,6135752aa4ee5158b0708670,2022-09-08_17h27.03.719,CGTgamblingSpanTasks,2022.2.1,Win32,59.68367651,,,,,,,,1.562,,,,,,,,,,,,,,1,n,2.438,10.27,0,3.062,1.5,0,24,24,35,1,15.47,0,10.27,0,,,,,,,,,,,,,,,,,,,,,,,,,,,,,,,,,,,,,,,,,,,,,,,,,,,,,,,,,,,,,,,,,,,,,,,,,,,,,,,,,,,,,,,,,,,,,,,,,,
,,6135752aa4ee5158b0708670,2022-09-08_17h27.03.719,CGTgamblingSpanTasks,2022.2.1,Win32,59.68367651,,,,,,,,2.0363,,,,,,,,,,,,,,2,n,1.9637,0,1,3.5363,1.5,0,25,25,13,1,19.28,0,8.36,0,,,,,,,,,,,,,,,,,,,,,,,,,,,,,,,,,,,,,,,,,,,,,,,,,,,,,,,,,,,,,,,,,,,,,,,,,,,,,,,,,,,,,,,,,,,,,,,,,,
,,6135752aa4ee5158b0708670,2022-09-08_17h27.03.719,CGTgamblingSpanTasks,2022.2.1,Win32,59.68367651,,,,,,,,1.5714,,,,,,,,,,,,,,2,v,2.4286,5.27,0,3.0714,1.5,0,26,26,10,1,13.45,0,5.27,0,,,,,,,,,,,,,,,,,,,,,,,,,,,,,,,,,,,,,,,,,,,,,,,,,,,,,,,,,,,,,,,,,,,,,,,,,,,,,,,,,,,,,,,,,,,,,,,,,,
,,6135752aa4ee5158b0708670,2022-09-08_17h27.03.719,CGTgamblingSpanTasks,2022.2.1,Win32,59.68367651,,,,,,,,2.7073,,,,,,,,,,,,,,2,v,1.2927,9.92,0,3.7073,1,0,27,27,49,1,6.79,0,9.92,1,,,,,,,,,,,,,,,,,,,,,,,,,,,,,,,,,,,,,,,,,,,,,,,,,,,,,,,,,,,,,,,,,,,,,,,,,,,,,,,,,,,,,,,,,,,,,,,,,,
,,6135752aa4ee5158b0708670,2022-09-08_17h27.03.719,CGTgamblingSpanTasks,2022.2.1,Win32,59.68367651,,,,,,,,2.7262,,,,,,,,,,,,,,1,n,1.2738,10.68,0,4.2262,1.5,0,28,28,48,1,10.68,0,10.68,1,,,,,,,,,,,,,,,,,,,,,,,,,,,,,,,,,,,,,,,,,,,,,,,,,,,,,,,,,,,,,,,,,,,,,,,,,,,,,,,,,,,,,,,,,,,,,,,,,,
,,6135752aa4ee5158b0708670,2022-09-08_17h27.03.719,CGTgamblingSpanTasks,2022.2.1,Win32,59.68367651,,,,,,,,1.9549,,,,,,,,,,,,,,2,n,2.0451,12.08,1,2.9549,1,0,29,29,18,1,12.08,0,5.96,0,,,,,,,,,,,,,,,,,,,,,,,,,,,,,,,,,,,,,,,,,,,,,,,,,,,,,,,,,,,,,,,,,,,,,,,,,,,,,,,,,,,,,,,,,,,,,,,,,,
,,6135752aa4ee5158b0708670,2022-09-08_17h27.03.719,CGTgamblingSpanTasks,2022.2.1,Win32,59.68367651,,,,,,,,2.8382,,,,,,,,,,,,,,1,v,1.1618,0,1,3.8382,1,0,30,30,40,1,10.35,0,0,1,,,,,,,,,,,,,,,,,,,,,,,,,,,,,,,,,,,,,,,,,,,,,,,,,,,,,,,,,,,,,,,,,,,,,,,,,,,,,,,,,,,,,,,,,,,,,,,,,,
,,6135752aa4ee5158b0708670,2022-09-08_17h27.03.719,CGTgamblingSpanTasks,2022.2.1,Win32,59.68367651,,,,,,,,2.7557,,,,,,,,,,,,,,1,v,1.2443,16.11,1,4.2557,1.5,0,31,31,43,1,16.11,6.99,6.99,1,,,,,,,,,,,,,,,,,,,,,,,,,,,,,,,,,,,,,,,,,,,,,,,,,,,,,,,,,,,,,,,,,,,,,,,,,,,,,,,,,,,,,,,,,,,,,,,,,,
,,6135752aa4ee5158b0708670,2022-09-08_17h27.03.719,CGTgamblingSpanTasks,2022.2.1,Win32,59.68367651,,,,,,,,2.5831,,,,,,,,,,,,,,1,v,1.4169,13.1,1,4.0831,1.5,0,32,32,44,1,13.1,7.73,4.68,1,,,,,,,,,,,,,,,,,,,,,,,,,,,,,,,,,,,,,,,,,,,,,,,,,,,,,,,,,,,,,,,,,,,,,,,,,,,,,,,,,,,,,,,,,,,,,,,,,,
,,6135752aa4ee5158b0708670,2022-09-08_17h27.03.719,CGTgamblingSpanTasks,2022.2.1,Win32,59.68367651,,,,,,,,2.1579,,,,,,,,,,,,,,2,n,1.8421,0,1,3.1579,1,0,33,33,15,1,18.77,0,8.61,0,,,,,,,,,,,,,,,,,,,,,,,,,,,,,,,,,,,,,,,,,,,,,,,,,,,,,,,,,,,,,,,,,,,,,,,,,,,,,,,,,,,,,,,,,,,,,,,,,,
,,6135752aa4ee5158b0708670,2022-09-08_17h27.03.719,CGTgamblingSpanTasks,2022.2.1,Win32,59.68367651,,,,,,,,2.0558,,,,,,,,,,,,,,1,v,1.9442,16.6,1,3.5558,1.5,0,34,34,27,1,16.6,0,9.7,0,,,,,,,,,,,,,,,,,,,,,,,,,,,,,,,,,,,,,,,,,,,,,,,,,,,,,,,,,,,,,,,,,,,,,,,,,,,,,,,,,,,,,,,,,,,,,,,,,,
,,6135752aa4ee5158b0708670,2022-09-08_17h27.03.719,CGTgamblingSpanTasks,2022.2.1,Win32,59.68367651,,,,,,,,2.2325,,,,,,,,,,,,,,2,v,1.7675,10.46,0,3.7325,1.5,0,35,35,39,1,15.09,0,10.46,0,,,,,,,,,,,,,,,,,,,,,,,,,,,,,,,,,,,,,,,,,,,,,,,,,,,,,,,,,,,,,,,,,,,,,,,,,,,,,,,,,,,,,,,,,,,,,,,,,,
,,6135752aa4ee5158b0708670,2022-09-08_17h27.03.719,CGTgamblingSpanTasks,2022.2.1,Win32,59.68367651,,,,,,,,2.7196,,,,,,,,,,,,,,2,v,1.2804,10.37,0,4.2196,1.5,0,36,36,37,1,15.27,0,10.37,0,,,,,,,,,,,,,,,,,,,,,,,,,,,,,,,,,,,,,,,,,,,,,,,,,,,,,,,,,,,,,,,,,,,,,,,,,,,,,,,,,,,,,,,,,,,,,,,,,,
,,6135752aa4ee5158b0708670,2022-09-08_17h27.03.719,CGTgamblingSpanTasks,2022.2.1,Win32,59.68367651,,,,,,,,3.0889,,,,,,,,,,,,,,1,v,0.9111,22.97,1,4.0889,1,0,37,37,5,1,22.97,0,6.51,0,,,,,,,,,,,,,,,,,,,,,,,,,,,,,,,,,,,,,,,,,,,,,,,,,,,,,,,,,,,,,,,,,,,,,,,,,,,,,,,,,,,,,,,,,,,,,,,,,,
,,6135752aa4ee5158b0708670,2022-09-08_17h27.03.719,CGTgamblingSpanTasks,2022.2.1,Win32,59.68367651,,,,,,,,2.1478,,,,,,,,,,,,,,2,v,1.8522,3.13,0,3.6478,1.5,0,38,38,47,1,0,0,3.13,1,,,,,,,,,,,,,,,,,,,,,,,,,,,,,,,,,,,,,,,,,,,,,,,,,,,,,,,,,,,,,,,,,,,,,,,,,,,,,,,,,,,,,,,,,,,,,,,,,,
,,6135752aa4ee5158b0708670,2022-09-08_17h27.03.719,CGTgamblingSpanTasks,2022.2.1,Win32,59.68367651,,,,,,,,2.3394,,,,,,,,,,,,,,2,n,1.6606,13.04,1,3.3394,1,0,39,39,12,1,13.04,0,5.48,0,,,,,,,,,,,,,,,,,,,,,,,,,,,,,,,,,,,,,,,,,,,,,,,,,,,,,,,,,,,,,,,,,,,,,,,,,,,,,,,,,,,,,,,,,,,,,,,,,,
,,6135752aa4ee5158b0708670,2022-09-08_17h27.03.719,CGTgamblingSpanTasks,2022.2.1,Win32,59.68367651,,,,,,,,3.0041,,,,,,,,,,,,,,1,v,0.9959,20.03,1,4.0041,1,0,40,40,0,1,20.03,0,1.99,0,,,,,,,,,,,,,,,,,,,,,,,,,,,,,,,,,,,,,,,,,,,,,,,,,,,,,,,,,,,,,,,,,,,,,,,,,,,,,,,,,,,,,,,,,,,,,,,,,,
,,6135752aa4ee5158b0708670,2022-09-08_17h27.03.719,CGTgamblingSpanTasks,2022.2.1,Win32,59.68367651,,,,,,,,2.3866,,,,,,,,,,,,,,2,v,1.6134,6.53,0,3.3866,1,0,41,41,28,1,10.95,0,6.53,0,,,,,,,,,,,,,,,,,,,,,,,,,,,,,,,,,,,,,,,,,,,,,,,,,,,,,,,,,,,,,,,,,,,,,,,,,,,,,,,,,,,,,,,,,,,,,,,,,,
,,6135752aa4ee5158b0708670,2022-09-08_17h27.03.719,CGTgamblingSpanTasks,2022.2.1,Win32,59.68367651,,,,,,,,2.66,,,,,,,,,,,,,,1,n,1.34,6.94,0,3.66,1,0,42,42,38,1,10.12,0,6.94,0,,,,,,,,,,,,,,,,,,,,,,,,,,,,,,,,,,,,,,,,,,,,,,,,,,,,,,,,,,,,,,,,,,,,,,,,,,,,,,,,,,,,,,,,,,,,,,,,,,
,,6135752aa4ee5158b0708670,2022-09-08_17h27.03.719,CGTgamblingSpanTasks,2022.2.1,Win32,59.68367651,,,,,,,,2.2279,,,,,,,,,,,,,,1,n,1.7721,9.87,0,3.2279,1,0,43,43,29,1,16.26,0,9.87,0,,,,,,,,,,,,,,,,,,,,,,,,,,,,,,,,,,,,,,,,,,,,,,,,,,,,,,,,,,,,,,,,,,,,,,,,,,,,,,,,,,,,,,,,,,,,,,,,,,
,,6135752aa4ee5158b0708670,2022-09-08_17h27.03.719,CGTgamblingSpanTasks,2022.2.1,Win32,59.68367651,,,,,,,,2.4728,,,,,,,,,,,,,,2,n,1.5272,0,1,3.9728,1.5,0,44,44,14,1,12.68,0,5.66,0,,,,,,,,,,,,,,,,,,,,,,,,,,,,,,,,,,,,,,,,,,,,,,,,,,,,,,,,,,,,,,,,,,,,,,,,,,,,,,,,,,,,,,,,,,,,,,,,,,
,,6135752aa4ee5158b0708670,2022-09-08_17h27.03.719,CGTgamblingSpanTasks,2022.2.1,Win32,59.68367651,,,,,,,,2.9032,,,,,,,,,,,,,,2,v,1.0968,10.25,0,3.9032,1,0,45,45,46,1,0,0,10.25,1,,,,,,,,,,,,,,,,,,,,,,,,,,,,,,,,,,,,,,,,,,,,,,,,,,,,,,,,,,,,,,,,,,,,,,,,,,,,,,,,,,,,,,,,,,,,,,,,,,
,,6135752aa4ee5158b0708670,2022-09-08_17h27.03.719,CGTgamblingSpanTasks,2022.2.1,Win32,59.68367651,,,,,,,,2.8464,,,,,,,,,,,,,,1,n,1.1536,6.81,0,3.8464,1,0,46,46,34,1,10.39,0,6.81,0,,,,,,,,,,,,,,,,,,,,,,,,,,,,,,,,,,,,,,,,,,,,,,,,,,,,,,,,,,,,,,,,,,,,,,,,,,,,,,,,,,,,,,,,,,,,,,,,,,
,,6135752aa4ee5158b0708670,2022-09-08_17h27.03.719,CGTgamblingSpanTasks,2022.2.1,Win32,59.68367651,,,,,,,,2.7391,,,,,,,,,,,,,,1,n,1.2609,9.36,0,4.2391,1.5,0,47,47,23,1,17.28,0,9.36,0,,,,,,,,,,,,,,,,,,,,,,,,,,,,,,,,,,,,,,,,,,,,,,,,,,,,,,,,,,,,,,,,,,,,,,,,,,,,,,,,,,,,,,,,,,,,,,,,,,
,,6135752aa4ee5158b0708670,2022-09-08_17h27.03.719,CGTgamblingSpanTasks,2022.2.1,Win32,59.68367651,,,,,,,,3.2981,,,,,,,,,,,,,,2,n,0.7019,19.86,1,4.2981,1,0,48,48,42,1,19.86,0,0,1,,,,,,,,,,,,,,,,,,,,,,,,,,,,,,,,,,,,,,,,,,,,,,,,,,,,,,,,,,,,,,,,,,,,,,,,,,,,,,,,,,,,,,,,,,,,,,,,,,
,,6135752aa4ee5158b0708670,2022-09-08_17h27.03.719,CGTgamblingSpanTasks,2022.2.1,Win32,59.68367651,,,,,,,,2.2428,,,,,,,,,,,,,,2,n,1.7572,10.73,1,3.7428,1.5,0,49,49,30,1,10.73,0,6.63,0,,,,,,,,,,,,,,,,,,,,,,,,,,,,,,,,,,,,,,,,,,,,,,,,,,,,,,,,,,,,,,,,,,,,,,,,,,,,,,,,,,,,,,,,,,,,,,,,,,
,,6135752aa4ee5158b0708670,2022-09-08_17h27.03.719,CGTgamblingSpanTasks,2022.2.1,Win32,59.68367651,,,,,,,,,,,,,,,,,,,,,,,,,,,,,,,,,,,,,,bespoke_choiceset_rhoInd085_muInd083.csv,bespoke_choicesets/bespoke_choiceset_rhoInd085_muInd083.csv,85,83,0,0,0,0,1,,,,,,,,,,,,,,,,,,,,,,,,,,,,,,,,,,,,,,,,,,,,,,,,,,,,,,,,,,,,,,,,,,,,,,,,,,,,,,,,,,,,,,,,,
,,6135752aa4ee5158b0708670,2022-09-08_17h27.03.719,CGTgamblingSpanTasks,2022.2.1,Win32,59.68367651,,,,,,,,,,,,,,,,,,,,,,,,,,,,,,,,,,,,,,,,,,,,,,,,,,,,,,,,,,,,,,,,,,,,,,,,,,,,,,,,,,,,,,,,,,,,,,,,,,,,,,,,,,,,,,,,,,,,,,,,,,,,,,,,,,,,,,,
,,6135752aa4ee5158b0708670,2022-09-08_17h27.03.719,CGTgamblingSpanTasks,2022.2.1,Win32,59.68367651,,,,,,,,,,,,,,,,,,,,,,,,,,,,,,,,,,,,,,,,,,,,,,,v,31.1168,,,,,,,,,,,,,,,,,,,,,,,,,,,,,,,,,,,,,,,,,,,,,,,,,,,,,,,,,,,,,,,,,,,,,,,,,,,,,,,,,,,,,,,
,,6135752aa4ee5158b0708670,2022-09-08_17h27.03.719,CGTgamblingSpanTasks,2022.2.1,Win32,59.68367651,,,,,,,,2.6835,,,,,,,,,,,,,,2,v,1.3165,4.904872644,0,4.1835,1.5,,,,,,4.698775357,0,4.904872644,,,,,,,,,,,,,0,0,0,75,1,0.028064484,0,,,,,,,,,,,,,,,,,,,,,,,,,,,,,,,,,,,,,,,,,,,,,,,,,,,,,,,,,,,,,,,,,,,,,,,,,,,,,,,,
,,6135752aa4ee5158b0708670,2022-09-08_17h27.03.719,CGTgamblingSpanTasks,2022.2.1,Win32,59.68367651,,,,,,,,2.8228,,,,,,,,,,,,,,2,n,1.1772,0,1,4.3228,1.5,,,,,,19.30622782,0,10.31611309,,,,,,,,,,,,,0,1,1,1,1,0.091105656,0,,,,,,,,,,,,,,,,,,,,,,,,,,,,,,,,,,,,,,,,,,,,,,,,,,,,,,,,,,,,,,,,,,,,,,,,,,,,,,,,
,,6135752aa4ee5158b0708670,2022-09-08_17h27.03.719,CGTgamblingSpanTasks,2022.2.1,Win32,59.68367651,,,,,,,,2.4727,,,,,,,,,,,,,,2,n,1.5273,0,1,3.9727,1.5,,,,,,17.67865084,0,11.35147481,,,,,,,,,,,,,0,2,2,91,1,0.067304606,0,,,,,,,,,,,,,,,,,,,,,,,,,,,,,,,,,,,,,,,,,,,,,,,,,,,,,,,,,,,,,,,,,,,,,,,,,,,,,,,,
,,6135752aa4ee5158b0708670,2022-09-08_17h27.03.719,CGTgamblingSpanTasks,2022.2.1,Win32,59.68367651,,,,,,,,2.7822,,,,,,,,,,,,,,2,n,1.2178,0,1,4.2822,1.5,,,,,,28.13634754,0,2.532806323,,,,,,,,,,,,,0,3,3,28,1,0.525136524,1,,,,,,,,,,,,,,,,,,,,,,,,,,,,,,,,,,,,,,,,,,,,,,,,,,,,,,,,,,,,,,,,,,,,,,,,,,,,,,,,
,,6135752aa4ee5158b0708670,2022-09-08_17h27.03.719,CGTgamblingSpanTasks,2022.2.1,Win32,59.68367651,,,,,,,,2.8554,,,,,,,,,,,,,,2,v,1.1446,8.830252162,0,3.8554,1,,,,,,15.73000491,0,8.830252162,,,,,,,,,,,,,0,4,4,95,1,0.084193143,0,,,,,,,,,,,,,,,,,,,,,,,,,,,,,,,,,,,,,,,,,,,,,,,,,,,,,,,,,,,,,,,,,,,,,,,,,,,,,,,,
,,6135752aa4ee5158b0708670,2022-09-08_17h27.03.719,CGTgamblingSpanTasks,2022.2.1,Win32,59.68367651,,,,,,,,2.9405,,,,,,,,,,,,,,1,v,1.0595,21.39646914,1,3.9405,1,,,,,,21.39646914,0,0.072474078,,,,,,,,,,,,,0,5,5,3,1,0.902848133,0,,,,,,,,,,,,,,,,,,,,,,,,,,,,,,,,,,,,,,,,,,,,,,,,,,,,,,,,,,,,,,,,,,,,,,,,,,,,,,,,
,,6135752aa4ee5158b0708670,2022-09-08_17h27.03.719,CGTgamblingSpanTasks,2022.2.1,Win32,59.68367651,,,,,,,,1.9916,,,,,,,,,,,,,,2,v,2.0084,1.025847652,0,2.9916,1,,,,,,8.670591867,0,1.025847652,,,,,,,,,,,,,0,6,6,18,1,0.452680459,1,,,,,,,,,,,,,,,,,,,,,,,,,,,,,,,,,,,,,,,,,,,,,,,,,,,,,,,,,,,,,,,,,,,,,,,,,,,,,,,,
,,6135752aa4ee5158b0708670,2022-09-08_17h27.03.719,CGTgamblingSpanTasks,2022.2.1,Win32,59.68367651,,,,,,,,2.756,,,,,,,,,,,,,,1,v,1.244,13.4287264,1,4.256,1.5,,,,,,13.4287264,0,1.317368801,,,,,,,,,,,,,0,7,7,100,1,0.502953125,1,,,,,,,,,,,,,,,,,,,,,,,,,,,,,,,,,,,,,,,,,,,,,,,,,,,,,,,,,,,,,,,,,,,,,,,,,,,,,,,,
,,6135752aa4ee5158b0708670,2022-09-08_17h27.03.719,CGTgamblingSpanTasks,2022.2.1,Win32,59.68367651,,,,,,,,2.8117,,,,,,,,,,,,,,2,n,1.1883,0,1,3.8117,1,,,,,,13.96521039,0,1.591282699,,,,,,,,,,,,,0,8,8,49,1,0.462956344,1,,,,,,,,,,,,,,,,,,,,,,,,,,,,,,,,,,,,,,,,,,,,,,,,,,,,,,,,,,,,,,,,,,,,,,,,,,,,,,,,
,,6135752aa4ee5158b0708670,2022-09-08_17h27.03.719,CGTgamblingSpanTasks,2022.2.1,Win32,59.68367651,,,,,,,,3.0594,,,,,,,,,,,,,,2,n,0.9406,0,1,4.0594,1,,,,,,23.24777057,0,2.003482335,,,,,,,,,,,,,0,9,9,59,1,0.536135174,1,,,,,,,,,,,,,,,,,,,,,,,,,,,,,,,,,,,,,,,,,,,,,,,,,,,,,,,,,,,,,,,,,,,,,,,,,,,,,,,,
,,6135752aa4ee5158b0708670,2022-09-08_17h27.03.719,CGTgamblingSpanTasks,2022.2.1,Win32,59.68367651,,,,,,,,2.7526,,,,,,,,,,,,,,2,n,1.2474,0,1,4.2526,1.5,,,,,,27.39221343,0,2.743407746,,,,,,,,,,,,,0,10,10,47,1,0.49752044,1,,,,,,,,,,,,,,,,,,,,,,,,,,,,,,,,,,,,,,,,,,,,,,,,,,,,,,,,,,,,,,,,,,,,,,,,,,,,,,,,
,,6135752aa4ee5158b0708670,2022-09-08_17h27.03.719,CGTgamblingSpanTasks,2022.2.1,Win32,59.68367651,,,,,,,,2.585,,,,,,,,,,,,,,2,n,1.415,0,1,3.585,1,,,,,,22.86604061,0,2.293289792,,,,,,,,,,,,,0,11,11,51,1,0.49715382,1,,,,,,,,,,,,,,,,,,,,,,,,,,,,,,,,,,,,,,,,,,,,,,,,,,,,,,,,,,,,,,,,,,,,,,,,,,,,,,,,
,,6135752aa4ee5158b0708670,2022-09-08_17h27.03.719,CGTgamblingSpanTasks,2022.2.1,Win32,59.68367651,,,,,,,,3.3205,,,,,,,,,,,,,,2,n,0.6795,27.37527992,1,4.3205,1,,,,,,27.37527992,0,2.860319095,,,,,,,,,,,,,0,12,12,39,1,0.486304156,1,,,,,,,,,,,,,,,,,,,,,,,,,,,,,,,,,,,,,,,,,,,,,,,,,,,,,,,,,,,,,,,,,,,,,,,,,,,,,,,,
,,6135752aa4ee5158b0708670,2022-09-08_17h27.03.719,CGTgamblingSpanTasks,2022.2.1,Win32,59.68367651,,,,,,,,3.1201,,,,,,,,,,,,,,1,v,0.8799,18.16238569,1,4.1201,1,,,,,,18.16238569,0,1.540604093,,,,,,,,,,,,,0,13,13,34,1,0.540092491,1,,,,,,,,,,,,,,,,,,,,,,,,,,,,,,,,,,,,,,,,,,,,,,,,,,,,,,,,,,,,,,,,,,,,,,,,,,,,,,,,
,,6135752aa4ee5158b0708670,2022-09-08_17h27.03.719,CGTgamblingSpanTasks,2022.2.1,Win32,59.68367651,,,,,,,,2.2041,,,,,,,,,,,,,,1,v,1.7959,27.77179191,1,3.2041,1,,,,,,27.77179191,0,0.074524436,,,,,,,,,,,,,0,14,14,99,1,0.910114387,0,,,,,,,,,,,,,,,,,,,,,,,,,,,,,,,,,,,,,,,,,,,,,,,,,,,,,,,,,,,,,,,,,,,,,,,,,,,,,,,,
,,6135752aa4ee5158b0708670,2022-09-08_17h27.03.719,CGTgamblingSpanTasks,2022.2.1,Win32,59.68367651,,,,,,,,3.0451,,,,,,,,,,,,,,2,n,0.9549,17.30137174,1,4.5451,1.5,,,,,,17.30137174,0,1.716380842,,,,,,,,,,,,,0,15,15,20,1,0.500020285,1,,,,,,,,,,,,,,,,,,,,,,,,,,,,,,,,,,,,,,,,,,,,,,,,,,,,,,,,,,,,,,,,,,,,,,,,,,,,,,,,
,,6135752aa4ee5158b0708670,2022-09-08_17h27.03.719,CGTgamblingSpanTasks,2022.2.1,Win32,59.68367651,,,,,,,,2.702,,,,,,,,,,,,,,2,v,1.298,8.512335864,0,4.202,1.5,,,,,,10.05300841,0,8.512335864,,,,,,,,,,,,,0,16,16,74,1,0.040729225,0,,,,,,,,,,,,,,,,,,,,,,,,,,,,,,,,,,,,,,,,,,,,,,,,,,,,,,,,,,,,,,,,,,,,,,,,,,,,,,,,
,,6135752aa4ee5158b0708670,2022-09-08_17h27.03.719,CGTgamblingSpanTasks,2022.2.1,Win32,59.68367651,,,,,,,,2.8079,,,,,,,,,,,,,,1,v,1.1921,0,1,3.8079,1,,,,,,14.11762686,0,8.579385201,,,,,,,,,,,,,0,17,17,60,1,0.073886959,0,,,,,,,,,,,,,,,,,,,,,,,,,,,,,,,,,,,,,,,,,,,,,,,,,,,,,,,,,,,,,,,,,,,,,,,,,,,,,,,,
,,6135752aa4ee5158b0708670,2022-09-08_17h27.03.719,CGTgamblingSpanTasks,2022.2.1,Win32,59.68367651,,,,,,,,3.2228,,,,,,,,,,,,,,1,v,0.7772,0,1,4.2228,1,,,,,,21.7711579,0,2.502728921,,,,,,,,,,,,,0,18,18,101,1,0.460552621,1,,,,,,,,,,,,,,,,,,,,,,,,,,,,,,,,,,,,,,,,,,,,,,,,,,,,,,,,,,,,,,,,,,,,,,,,,,,,,,,,
,,6135752aa4ee5158b0708670,2022-09-08_17h27.03.719,CGTgamblingSpanTasks,2022.2.1,Win32,59.68367651,,,,,,,,2.7752,,,,,,,,,,,,,,1,v,1.2248,0,1,3.7752,1,,,,,,11.08143071,0,1.207538756,,,,,,,,,,,,,0,19,19,84,1,0.475047453,1,,,,,,,,,,,,,,,,,,,,,,,,,,,,,,,,,,,,,,,,,,,,,,,,,,,,,,,,,,,,,,,,,,,,,,,,,,,,,,,,
,,6135752aa4ee5158b0708670,2022-09-08_17h27.03.719,CGTgamblingSpanTasks,2022.2.1,Win32,59.68367651,,,,,,,,3.073,,,,,,,,,,,,,,2,n,0.927,0,1,4.573,1.5,,,,,,27.60724521,0,0.088432325,,,,,,,,,,,,,0,20,20,17,1,0.904684186,0,,,,,,,,,,,,,,,,,,,,,,,,,,,,,,,,,,,,,,,,,,,,,,,,,,,,,,,,,,,,,,,,,,,,,,,,,,,,,,,,
,,6135752aa4ee5158b0708670,2022-09-08_17h27.03.719,CGTgamblingSpanTasks,2022.2.1,Win32,59.68367651,,,,,,,,2.4399,,,,,,,,,,,,,,1,n,1.5601,3.877530383,0,3.9399,1.5,,,,,,3.471484939,0,3.877530383,,,,,,,,,,,,,0,21,21,40,1,0.02623078,0,,,,,,,,,,,,,,,,,,,,,,,,,,,,,,,,,,,,,,,,,,,,,,,,,,,,,,,,,,,,,,,,,,,,,,,,,,,,,,,,
,,6135752aa4ee5158b0708670,2022-09-08_17h27.03.719,CGTgamblingSpanTasks,2022.2.1,Win32,59.68367651,,,,,,,,3.1275,,,,,,,,,,,,,,1,v,0.8725,25.56803059,1,4.1275,1,,,,,,25.56803059,0,2.543951743,,,,,,,,,,,,,0,22,22,41,1,0.499247217,1,,,,,,,,,,,,,,,,,,,,,,,,,,,,,,,,,,,,,,,,,,,,,,,,,,,,,,,,,,,,,,,,,,,,,,,,,,,,,,,,
,,6135752aa4ee5158b0708670,2022-09-08_17h27.03.719,CGTgamblingSpanTasks,2022.2.1,Win32,59.68367651,,,,,,,,3.0367,,,,,,,,,,,,,,1,v,0.9633,21.48443242,1,4.0367,1,,,,,,21.48443242,0,2.229247341,,,,,,,,,,,,,0,23,23,63,1,0.488155912,1,,,,,,,,,,,,,,,,,,,,,,,,,,,,,,,,,,,,,,,,,,,,,,,,,,,,,,,,,,,,,,,,,,,,,,,,,,,,,,,,
,,6135752aa4ee5158b0708670,2022-09-08_17h27.03.719,CGTgamblingSpanTasks,2022.2.1,Win32,59.68367651,,,,,,,,3.0033,,,,,,,,,,,,,,2,n,0.9967,18.51345298,1,4.0033,1,,,,,,18.51345298,0,1.932334278,,,,,,,,,,,,,0,24,24,31,1,0.48658696,1,,,,,,,,,,,,,,,,,,,,,,,,,,,,,,,,,,,,,,,,,,,,,,,,,,,,,,,,,,,,,,,,,,,,,,,,,,,,,,,,
,,6135752aa4ee5158b0708670,2022-09-08_17h27.03.719,CGTgamblingSpanTasks,2022.2.1,Win32,59.68367651,,,,,,,,2.6729,,,,,,,,,,,,,,2,v,1.3271,11.42134125,0,3.6729,1,,,,,,12.9904115,0,11.42134125,,,,,,,,,,,,,0,25,25,118,1,0.037876033,0,,,,,,,,,,,,,,,,,,,,,,,,,,,,,,,,,,,,,,,,,,,,,,,,,,,,,,,,,,,,,,,,,,,,,,,,,,,,,,,,
,,6135752aa4ee5158b0708670,2022-09-08_17h27.03.719,CGTgamblingSpanTasks,2022.2.1,Win32,59.68367651,,,,,,,,3.01,,,,,,,,,,,,,,1,v,0.99,0,1,4.51,1.5,,,,,,28.94627214,0,2.701896413,,,,,,,,,,,,,0,26,26,111,1,0.515860759,1,,,,,,,,,,,,,,,,,,,,,,,,,,,,,,,,,,,,,,,,,,,,,,,,,,,,,,,,,,,,,,,,,,,,,,,,,,,,,,,,
,,6135752aa4ee5158b0708670,2022-09-08_17h27.03.719,CGTgamblingSpanTasks,2022.2.1,Win32,59.68367651,,,,,,,,3.2853,,,,,,,,,,,,,,1,v,0.7147,0,1,4.7853,1.5,,,,,,28.33977875,0,2.768313633,,,,,,,,,,,,,0,27,27,116,1,0.50406901,1,,,,,,,,,,,,,,,,,,,,,,,,,,,,,,,,,,,,,,,,,,,,,,,,,,,,,,,,,,,,,,,,,,,,,,,,,,,,,,,,
,,6135752aa4ee5158b0708670,2022-09-08_17h27.03.719,CGTgamblingSpanTasks,2022.2.1,Win32,59.68367651,,,,,,,,3.0972,,,,,,,,,,,,,,1,v,0.9028,0,1,4.0972,1,,,,,,26.36733703,0,2.201057101,,,,,,,,,,,,,0,28,28,90,1,0.544064207,1,,,,,,,,,,,,,,,,,,,,,,,,,,,,,,,,,,,,,,,,,,,,,,,,,,,,,,,,,,,,,,,,,,,,,,,,,,,,,,,,
,,6135752aa4ee5158b0708670,2022-09-08_17h27.03.719,CGTgamblingSpanTasks,2022.2.1,Win32,59.68367651,,,,,,,,2.8895,,,,,,,,,,,,,,2,n,1.1105,0,1,4.3895,1.5,,,,,,29.30724159,0,3.247012935,,,,,,,,,,,,,0,29,29,71,1,0.470571125,1,,,,,,,,,,,,,,,,,,,,,,,,,,,,,,,,,,,,,,,,,,,,,,,,,,,,,,,,,,,,,,,,,,,,,,,,,,,,,,,,
,,6135752aa4ee5158b0708670,2022-09-08_17h27.03.719,CGTgamblingSpanTasks,2022.2.1,Win32,59.68367651,,,,,,,,2.7205,,,,,,,,,,,,,,1,n,1.2795,5.526483034,0,3.7205,1,,,,,,9.725876653,0,5.526483034,,,,,,,,,,,,,0,30,30,44,1,0.082550696,0,,,,,,,,,,,,,,,,,,,,,,,,,,,,,,,,,,,,,,,,,,,,,,,,,,,,,,,,,,,,,,,,,,,,,,,,,,,,,,,,
,,6135752aa4ee5158b0708670,2022-09-08_17h27.03.719,CGTgamblingSpanTasks,2022.2.1,Win32,59.68367651,,,,,,,,2.8873,,,,,,,,,,,,,,2,n,1.1127,26.16821818,1,4.3873,1.5,,,,,,26.16821818,0,0.093528069,,,,,,,,,,,,,0,31,31,42,1,0.901022427,0,,,,,,,,,,,,,,,,,,,,,,,,,,,,,,,,,,,,,,,,,,,,,,,,,,,,,,,,,,,,,,,,,,,,,,,,,,,,,,,,
,,6135752aa4ee5158b0708670,2022-09-08_17h27.03.719,CGTgamblingSpanTasks,2022.2.1,Win32,59.68367651,,,,,,,,2.412,,,,,,,,,,,,,,2,v,1.588,11.19311486,0,3.412,1,,,,,,8.17598802,0,11.19311486,,,,,,,,,,,,,0,32,32,110,1,0.021568003,0,,,,,,,,,,,,,,,,,,,,,,,,,,,,,,,,,,,,,,,,,,,,,,,,,,,,,,,,,,,,,,,,,,,,,,,,,,,,,,,,
,,6135752aa4ee5158b0708670,2022-09-08_17h27.03.719,CGTgamblingSpanTasks,2022.2.1,Win32,59.68367651,,,,,,,,2.5739,,,,,,,,,,,,,,2,n,1.4261,27.57491653,1,3.5739,1,,,,,,27.57491653,0,2.99133314,,,,,,,,,,,,,0,33,33,10,1,0.47625893,1,,,,,,,,,,,,,,,,,,,,,,,,,,,,,,,,,,,,,,,,,,,,,,,,,,,,,,,,,,,,,,,,,,,,,,,,,,,,,,,,
,,6135752aa4ee5158b0708670,2022-09-08_17h27.03.719,CGTgamblingSpanTasks,2022.2.1,Win32,59.68367651,,,,,,,,2.6012,,,,,,,,,,,,,,1,n,1.3988,5.683635938,0,3.6012,1,,,,,,4.941039335,0,5.683635938,,,,,,,,,,,,,0,34,34,9,1,0.025481984,0,,,,,,,,,,,,,,,,,,,,,,,,,,,,,,,,,,,,,,,,,,,,,,,,,,,,,,,,,,,,,,,,,,,,,,,,,,,,,,,,
,,6135752aa4ee5158b0708670,2022-09-08_17h27.03.719,CGTgamblingSpanTasks,2022.2.1,Win32,59.68367651,,,,,,,,3.0379,,,,,,,,,,,,,,2,n,0.9621,24.35708027,1,4.0379,1,,,,,,24.35708027,0,2.738695417,,,,,,,,,,,,,0,35,35,114,1,0.466573634,1,,,,,,,,,,,,,,,,,,,,,,,,,,,,,,,,,,,,,,,,,,,,,,,,,,,,,,,,,,,,,,,,,,,,,,,,,,,,,,,,
,,6135752aa4ee5158b0708670,2022-09-08_17h27.03.719,CGTgamblingSpanTasks,2022.2.1,Win32,59.68367651,,,,,,,,2.6218,,,,,,,,,,,,,,1,n,1.3782,11.93550497,0,3.6218,1,,,,,,14.20587264,0,11.93550497,,,,,,,,,,,,,0,36,36,21,1,0.041340301,0,,,,,,,,,,,,,,,,,,,,,,,,,,,,,,,,,,,,,,,,,,,,,,,,,,,,,,,,,,,,,,,,,,,,,,,,,,,,,,,,
,,6135752aa4ee5158b0708670,2022-09-08_17h27.03.719,CGTgamblingSpanTasks,2022.2.1,Win32,59.68367651,,,,,,,,3.1021,,,,,,,,,,,,,,1,v,0.8979,0,1,4.1021,1,,,,,,22.62475578,0,2.397643354,,,,,,,,,,,,,0,37,37,93,1,0.482527609,1,,,,,,,,,,,,,,,,,,,,,,,,,,,,,,,,,,,,,,,,,,,,,,,,,,,,,,,,,,,,,,,,,,,,,,,,,,,,,,,,
,,6135752aa4ee5158b0708670,2022-09-08_17h27.03.719,CGTgamblingSpanTasks,2022.2.1,Win32,59.68367651,,,,,,,,3.1859,,,,,,,,,,,,,,1,v,0.8141,23.4214135,1,4.1859,1,,,,,,23.4214135,0,2.485985001,,,,,,,,,,,,,0,38,38,81,1,0.482105905,1,,,,,,,,,,,,,,,,,,,,,,,,,,,,,,,,,,,,,,,,,,,,,,,,,,,,,,,,,,,,,,,,,,,,,,,,,,,,,,,,
,,6135752aa4ee5158b0708670,2022-09-08_17h27.03.719,CGTgamblingSpanTasks,2022.2.1,Win32,59.68367651,,,,,,,,2.9908,,,,,,,,,,,,,,1,v,1.0092,0,1,4.4908,1.5,,,,,,18.50662664,0,0.052546026,,,,,,,,,,,,,0,39,39,112,1,0.908444837,0,,,,,,,,,,,,,,,,,,,,,,,,,,,,,,,,,,,,,,,,,,,,,,,,,,,,,,,,,,,,,,,,,,,,,,,,,,,,,,,,
,,6135752aa4ee5158b0708670,2022-09-08_17h27.03.719,CGTgamblingSpanTasks,2022.2.1,Win32,59.68367651,,,,,,,,3.0457,,,,,,,,,,,,,,2,n,0.9543,0,1,4.0457,1,,,,,,28.14876717,0,3.117906378,,,,,,,,,,,,,0,40,40,76,1,0.470636736,1,,,,,,,,,,,,,,,,,,,,,,,,,,,,,,,,,,,,,,,,,,,,,,,,,,,,,,,,,,,,,,,,,,,,,,,,,,,,,,,,
,,6135752aa4ee5158b0708670,2022-09-08_17h27.03.719,CGTgamblingSpanTasks,2022.2.1,Win32,59.68367651,,,,,,,,2.8833,,,,,,,,,,,,,,2,n,1.1167,0,1,3.8833,1,,,,,,19.36415485,0,1.966229494,,,,,,,,,,,,,0,41,41,96,1,0.493893111,1,,,,,,,,,,,,,,,,,,,,,,,,,,,,,,,,,,,,,,,,,,,,,,,,,,,,,,,,,,,,,,,,,,,,,,,,,,,,,,,,
,,6135752aa4ee5158b0708670,2022-09-08_17h27.03.719,CGTgamblingSpanTasks,2022.2.1,Win32,59.68367651,,,,,,,,3.2896,,,,,,,,,,,,,,2,n,0.7104,0,1,4.2896,1,,,,,,27.2532142,0,0.08089327,,,,,,,,,,,,,0,42,42,119,1,0.907091845,0,,,,,,,,,,,,,,,,,,,,,,,,,,,,,,,,,,,,,,,,,,,,,,,,,,,,,,,,,,,,,,,,,,,,,,,,,,,,,,,,
,,6135752aa4ee5158b0708670,2022-09-08_17h27.03.719,CGTgamblingSpanTasks,2022.2.1,Win32,59.68367651,,,,,,,,3.2544,,,,,,,,,,,,,,2,n,0.7456,24.66627941,1,4.2544,1,,,,,,24.66627941,0,2.765426402,,,,,,,,,,,,,0,43,43,24,1,0.467360588,1,,,,,,,,,,,,,,,,,,,,,,,,,,,,,,,,,,,,,,,,,,,,,,,,,,,,,,,,,,,,,,,,,,,,,,,,,,,,,,,,
,,6135752aa4ee5158b0708670,2022-09-08_17h27.03.719,CGTgamblingSpanTasks,2022.2.1,Win32,59.68367651,,,,,,,,2.8897,,,,,,,,,,,,,,2,n,1.1103,0,1,3.8897,1,,,,,,18.20422443,0,1.635040165,,,,,,,,,,,,,0,44,44,82,1,0.525708991,1,,,,,,,,,,,,,,,,,,,,,,,,,,,,,,,,,,,,,,,,,,,,,,,,,,,,,,,,,,,,,,,,,,,,,,,,,,,,,,,,
,,6135752aa4ee5158b0708670,2022-09-08_17h27.03.719,CGTgamblingSpanTasks,2022.2.1,Win32,59.68367651,,,,,,,,2.9326,,,,,,,,,,,,,,2,n,1.0674,20.97851654,1,4.4326,1.5,,,,,,20.97851654,0,11.39288827,,,,,,,,,,,,,0,45,45,2,1,0.088791079,0,,,,,,,,,,,,,,,,,,,,,,,,,,,,,,,,,,,,,,,,,,,,,,,,,,,,,,,,,,,,,,,,,,,,,,,,,,,,,,,,
,,6135752aa4ee5158b0708670,2022-09-08_17h27.03.719,CGTgamblingSpanTasks,2022.2.1,Win32,59.68367651,,,,,,,,2.8048,,,,,,,,,,,,,,1,n,1.1952,8.42547829,0,4.3048,1.5,,,,,,15.87668502,0,8.42547829,,,,,,,,,,,,,0,46,46,56,1,0.092099462,0,,,,,,,,,,,,,,,,,,,,,,,,,,,,,,,,,,,,,,,,,,,,,,,,,,,,,,,,,,,,,,,,,,,,,,,,,,,,,,,,
,,6135752aa4ee5158b0708670,2022-09-08_17h27.03.719,CGTgamblingSpanTasks,2022.2.1,Win32,59.68367651,,,,,,,,2.9542,,,,,,,,,,,,,,2,n,1.0458,27.38828234,1,3.9542,1,,,,,,27.38828234,0,0.0639233,,,,,,,,,,,,,0,47,47,43,1,0.914010176,0,,,,,,,,,,,,,,,,,,,,,,,,,,,,,,,,,,,,,,,,,,,,,,,,,,,,,,,,,,,,,,,,,,,,,,,,,,,,,,,,
,,6135752aa4ee5158b0708670,2022-09-08_17h27.03.719,CGTgamblingSpanTasks,2022.2.1,Win32,59.68367651,,,,,,,,2.8555,,,,,,,,,,,,,,1,v,1.1445,25.76582409,1,4.3555,1.5,,,,,,25.76582409,0,2.393193076,,,,,,,,,,,,,0,48,48,46,1,0.517129855,1,,,,,,,,,,,,,,,,,,,,,,,,,,,,,,,,,,,,,,,,,,,,,,,,,,,,,,,,,,,,,,,,,,,,,,,,,,,,,,,,
,,6135752aa4ee5158b0708670,2022-09-08_17h27.03.719,CGTgamblingSpanTasks,2022.2.1,Win32,59.68367651,,,,,,,,3.2063,,,,,,,,,,,,,,1,v,0.7937,27.76752685,1,4.7063,1.5,,,,,,27.76752685,0,0.083968035,,,,,,,,,,,,,0,49,49,13,1,0.906513967,0,,,,,,,,,,,,,,,,,,,,,,,,,,,,,,,,,,,,,,,,,,,,,,,,,,,,,,,,,,,,,,,,,,,,,,,,,,,,,,,,
,,6135752aa4ee5158b0708670,2022-09-08_17h27.03.719,CGTgamblingSpanTasks,2022.2.1,Win32,59.68367651,,,,,,,,2.0811,,,,,,,,,,,,,,2,v,1.9189,10.41201161,0,3.0811,1,,,,,,6.307062696,0,10.41201161,,,,,,,,,,,,,0,50,50,23,1,0.018187109,0,,,,,,,,,,,,,,,,,,,,,,,,,,,,,,,,,,,,,,,,,,,,,,,,,,,,,,,,,,,,,,,,,,,,,,,,,,,,,,,,
,,6135752aa4ee5158b0708670,2022-09-08_17h27.03.719,CGTgamblingSpanTasks,2022.2.1,Win32,59.68367651,,,,,,,,3.2438,,,,,,,,,,,,,,2,n,0.7562,24.479109,1,4.7438,1.5,,,,,,24.479109,0,0.089582697,,,,,,,,,,,,,0,51,51,89,1,0.900200232,0,,,,,,,,,,,,,,,,,,,,,,,,,,,,,,,,,,,,,,,,,,,,,,,,,,,,,,,,,,,,,,,,,,,,,,,,,,,,,,,,
,,6135752aa4ee5158b0708670,2022-09-08_17h27.03.719,CGTgamblingSpanTasks,2022.2.1,Win32,59.68367651,,,,,,,,3.1598,,,,,,,,,,,,,,1,v,0.8402,27.7711693,1,4.6598,1.5,,,,,,27.7711693,0,2.320849632,,,,,,,,,,,,,0,52,52,94,1,0.543786368,1,,,,,,,,,,,,,,,,,,,,,,,,,,,,,,,,,,,,,,,,,,,,,,,,,,,,,,,,,,,,,,,,,,,,,,,,,,,,,,,,
,,6135752aa4ee5158b0708670,2022-09-08_17h27.03.719,CGTgamblingSpanTasks,2022.2.1,Win32,59.68367651,,,,,,,,3.1722,,,,,,,,,,,,,,2,n,0.8278,14.3363647,1,4.6722,1.5,,,,,,14.3363647,0,1.396635362,,,,,,,,,,,,,0,53,53,78,1,0.504775474,1,,,,,,,,,,,,,,,,,,,,,,,,,,,,,,,,,,,,,,,,,,,,,,,,,,,,,,,,,,,,,,,,,,,,,,,,,,,,,,,,
,,6135752aa4ee5158b0708670,2022-09-08_17h27.03.719,CGTgamblingSpanTasks,2022.2.1,Win32,59.68367651,,,,,,,,3.2007,,,,,,,,,,,,,,1,v,0.7993,21.17800335,1,4.7007,1.5,,,,,,21.17800335,0,0.059830985,,,,,,,,,,,,,0,54,54,67,1,0.908594974,0,,,,,,,,,,,,,,,,,,,,,,,,,,,,,,,,,,,,,,,,,,,,,,,,,,,,,,,,,,,,,,,,,,,,,,,,,,,,,,,,
,,6135752aa4ee5158b0708670,2022-09-08_17h27.03.719,CGTgamblingSpanTasks,2022.2.1,Win32,59.68367651,,,,,,,,3.21,,,,,,,,,,,,,,1,v,0.79,17.92584289,1,4.71,1.5,,,,,,17.92584289,0,1.878232496,,,,,,,,,,,,,0,55,55,5,1,0.485559263,1,,,,,,,,,,,,,,,,,,,,,,,,,,,,,,,,,,,,,,,,,,,,,,,,,,,,,,,,,,,,,,,,,,,,,,,,,,,,,,,,
,,6135752aa4ee5158b0708670,2022-09-08_17h27.03.719,CGTgamblingSpanTasks,2022.2.1,Win32,59.68367651,,,,,,,,3.0861,,,,,,,,,,,,,,2,n,0.9139,0,1,4.5861,1.5,,,,,,21.00799273,0,0.067969053,,,,,,,,,,,,,0,56,56,92,1,0.904360262,0,,,,,,,,,,,,,,,,,,,,,,,,,,,,,,,,,,,,,,,,,,,,,,,,,,,,,,,,,,,,,,,,,,,,,,,,,,,,,,,,
,,6135752aa4ee5158b0708670,2022-09-08_17h27.03.719,CGTgamblingSpanTasks,2022.2.1,Win32,59.68367651,,,,,,,,2.8519,,,,,,,,,,,,,,2,n,1.1481,0,1,3.8519,1,,,,,,20.5726842,0,0.073558523,,,,,,,,,,,,,0,57,57,26,1,0.901008565,0,,,,,,,,,,,,,,,,,,,,,,,,,,,,,,,,,,,,,,,,,,,,,,,,,,,,,,,,,,,,,,,,,,,,,,,,,,,,,,,,
,,6135752aa4ee5158b0708670,2022-09-08_17h27.03.719,CGTgamblingSpanTasks,2022.2.1,Win32,59.68367651,,,,,,,,2.8827,,,,,,,,,,,,,,2,n,1.1173,0,1,3.8827,1,,,,,,27.88092897,0,2.771762788,,,,,,,,,,,,,0,58,58,117,1,0.499466648,1,,,,,,,,,,,,,,,,,,,,,,,,,,,,,,,,,,,,,,,,,,,,,,,,,,,,,,,,,,,,,,,,,,,,,,,,,,,,,,,,
,,6135752aa4ee5158b0708670,2022-09-08_17h27.03.719,CGTgamblingSpanTasks,2022.2.1,Win32,59.68367651,,,,,,,,3.3158,,,,,,,,,,,,,,2,n,0.6842,0,1,4.8158,1.5,,,,,,19.58698544,0,9.936178001,,,,,,,,,,,,,0,59,59,77,1,0.098812204,0,,,,,,,,,,,,,,,,,,,,,,,,,,,,,,,,,,,,,,,,,,,,,,,,,,,,,,,,,,,,,,,,,,,,,,,,,,,,,,,,
,,6135752aa4ee5158b0708670,2022-09-08_17h27.03.719,CGTgamblingSpanTasks,2022.2.1,Win32,59.68367651,,,,,,,,2.6028,,,,,,,,,,,,,,2,n,1.3972,13.84410806,1,4.1028,1.5,,,,,,13.84410806,0,1.535873964,,,,,,,,,,,,,0,60,60,88,1,0.470209002,1,,,,,,,,,,,,,,,,,,,,,,,,,,,,,,,,,,,,,,,,,,,,,,,,,,,,,,,,,,,,,,,,,,,,,,,,,,,,,,,,
,,6135752aa4ee5158b0708670,2022-09-08_17h27.03.719,CGTgamblingSpanTasks,2022.2.1,Win32,59.68367651,,,,,,,,2.2382,,,,,,,,,,,,,,1,v,1.7618,8.217594828,1,3.2382,1,,,,,,8.217594828,0,0.951019374,,,,,,,,,,,,,0,61,61,87,1,0.458722936,1,,,,,,,,,,,,,,,,,,,,,,,,,,,,,,,,,,,,,,,,,,,,,,,,,,,,,,,,,,,,,,,,,,,,,,,,,,,,,,,,
,,6135752aa4ee5158b0708670,2022-09-08_17h27.03.719,CGTgamblingSpanTasks,2022.2.1,Win32,59.68367651,,,,,,,,3.0404,,,,,,,,,,,,,,1,n,0.9596,7.850775577,0,4.0404,1,,,,,,4.622707531,0,7.850775577,,,,,,,,,,,,,0,62,62,6,1,0.017737407,0,,,,,,,,,,,,,,,,,,,,,,,,,,,,,,,,,,,,,,,,,,,,,,,,,,,,,,,,,,,,,,,,,,,,,,,,,,,,,,,,
,,6135752aa4ee5158b0708670,2022-09-08_17h27.03.719,CGTgamblingSpanTasks,2022.2.1,Win32,59.68367651,,,,,,,,3.4208,,,,,,,,,,,,,,2,n,0.5792,24.8002852,1,4.9208,1.5,,,,,,24.8002852,0,0.071848086,,,,,,,,,,,,,0,63,63,16,1,0.90783559,0,,,,,,,,,,,,,,,,,,,,,,,,,,,,,,,,,,,,,,,,,,,,,,,,,,,,,,,,,,,,,,,,,,,,,,,,,,,,,,,,
,,6135752aa4ee5158b0708670,2022-09-08_17h27.03.719,CGTgamblingSpanTasks,2022.2.1,Win32,59.68367651,,,,,,,,2.8972,,,,,,,,,,,,,,2,n,1.1028,0,1,4.3972,1.5,,,,,,17.5608285,0,1.825111303,,,,,,,,,,,,,0,64,64,104,1,0.487721116,1,,,,,,,,,,,,,,,,,,,,,,,,,,,,,,,,,,,,,,,,,,,,,,,,,,,,,,,,,,,,,,,,,,,,,,,,,,,,,,,,
,,6135752aa4ee5158b0708670,2022-09-08_17h27.03.719,CGTgamblingSpanTasks,2022.2.1,Win32,59.68367651,,,,,,,,3.0898,,,,,,,,,,,,,,2,n,0.9102,0,1,4.0898,1,,,,,,7.066129113,0,0.585581699,,,,,,,,,,,,,0,65,65,19,1,0.545860632,1,,,,,,,,,,,,,,,,,,,,,,,,,,,,,,,,,,,,,,,,,,,,,,,,,,,,,,,,,,,,,,,,,,,,,,,,,,,,,,,,
,,6135752aa4ee5158b0708670,2022-09-08_17h27.03.719,CGTgamblingSpanTasks,2022.2.1,Win32,59.68367651,,,,,,,,3.1392,,,,,,,,,,,,,,1,v,0.8608,0,1,4.6392,1.5,,,,,,27.4965044,0,2.461467004,,,,,,,,,,,,,0,66,66,36,1,0.526550878,1,,,,,,,,,,,,,,,,,,,,,,,,,,,,,,,,,,,,,,,,,,,,,,,,,,,,,,,,,,,,,,,,,,,,,,,,,,,,,,,,
,,6135752aa4ee5158b0708670,2022-09-08_17h27.03.719,CGTgamblingSpanTasks,2022.2.1,Win32,59.68367651,,,,,,,,3.1362,,,,,,,,,,,,,,2,n,0.8638,19.3050342,1,4.1362,1,,,,,,19.3050342,0,2.030232342,,,,,,,,,,,,,0,67,67,73,1,0.484573227,1,,,,,,,,,,,,,,,,,,,,,,,,,,,,,,,,,,,,,,,,,,,,,,,,,,,,,,,,,,,,,,,,,,,,,,,,,,,,,,,,
,,6135752aa4ee5158b0708670,2022-09-08_17h27.03.719,CGTgamblingSpanTasks,2022.2.1,Win32,59.68367651,,,,,,,,2.6716,,,,,,,,,,,,,,1,n,1.3284,11.61882862,0,3.6716,1,,,,,,4.022743614,0,11.61882862,,,,,,,,,,,,,0,68,68,38,1,0.011499376,0,,,,,,,,,,,,,,,,,,,,,,,,,,,,,,,,,,,,,,,,,,,,,,,,,,,,,,,,,,,,,,,,,,,,,,,,,,,,,,,,
,,6135752aa4ee5158b0708670,2022-09-08_17h27.03.719,CGTgamblingSpanTasks,2022.2.1,Win32,59.68367651,,,,,,,,3.0528,,,,,,,,,,,,,,2,n,0.9472,0,1,4.5528,1.5,,,,,,29.77342428,0,2.838865588,,,,,,,,,,,,,0,69,69,57,1,0.510363415,1,,,,,,,,,,,,,,,,,,,,,,,,,,,,,,,,,,,,,,,,,,,,,,,,,,,,,,,,,,,,,,,,,,,,,,,,,,,,,,,,
,,6135752aa4ee5158b0708670,2022-09-08_17h27.03.719,CGTgamblingSpanTasks,2022.2.1,Win32,59.68367651,,,,,,,,2.9887,,,,,,,,,,,,,,1,v,1.0113,25.54604005,1,3.9887,1,,,,,,25.54604005,0,0.088845411,,,,,,,,,,,,,0,70,70,79,1,0.901957831,0,,,,,,,,,,,,,,,,,,,,,,,,,,,,,,,,,,,,,,,,,,,,,,,,,,,,,,,,,,,,,,,,,,,,,,,,,,,,,,,,
,,6135752aa4ee5158b0708670,2022-09-08_17h27.03.719,CGTgamblingSpanTasks,2022.2.1,Win32,59.68367651,,,,,,,,2.951,,,,,,,,,,,,,,1,v,1.049,0,1,3.951,1,,,,,,27.93093084,0,0.050207531,,,,,,,,,,,,,0,71,71,83,1,0.920505936,0,,,,,,,,,,,,,,,,,,,,,,,,,,,,,,,,,,,,,,,,,,,,,,,,,,,,,,,,,,,,,,,,,,,,,,,,,,,,,,,,
,,6135752aa4ee5158b0708670,2022-09-08_17h27.03.719,CGTgamblingSpanTasks,2022.2.1,Win32,59.68367651,,,,,,,,2.89,,,,,,,,,,,,,,2,v,1.11,6.833409611,0,4.39,1.5,,,,,,6.325091157,0,6.833409611,,,,,,,,,,,,,0,72,72,58,1,0.027113638,0,,,,,,,,,,,,,,,,,,,,,,,,,,,,,,,,,,,,,,,,,,,,,,,,,,,,,,,,,,,,,,,,,,,,,,,,,,,,,,,,
,,6135752aa4ee5158b0708670,2022-09-08_17h27.03.719,CGTgamblingSpanTasks,2022.2.1,Win32,59.68367651,,,,,,,,2.8986,,,,,,,,,,,,,,2,n,1.1014,28.9381277,1,4.3986,1.5,,,,,,28.9381277,0,2.663622024,,,,,,,,,,,,,0,73,73,103,1,0.519453367,1,,,,,,,,,,,,,,,,,,,,,,,,,,,,,,,,,,,,,,,,,,,,,,,,,,,,,,,,,,,,,,,,,,,,,,,,,,,,,,,,
,,6135752aa4ee5158b0708670,2022-09-08_17h27.03.719,CGTgamblingSpanTasks,2022.2.1,Win32,59.68367651,,,,,,,,3.1047,,,,,,,,,,,,,,2,n,0.8953,0,1,4.1047,1,,,,,,21.16780451,0,2.469465385,,,,,,,,,,,,,0,74,74,32,1,0.456531699,1,,,,,,,,,,,,,,,,,,,,,,,,,,,,,,,,,,,,,,,,,,,,,,,,,,,,,,,,,,,,,,,,,,,,,,,,,,,,,,,,
,,6135752aa4ee5158b0708670,2022-09-08_17h27.03.719,CGTgamblingSpanTasks,2022.2.1,Win32,59.68367651,,,,,,,,2.9636,,,,,,,,,,,,,,2,n,1.0364,17.4320197,1,4.4636,1.5,,,,,,17.4320197,0,1.448620949,,,,,,,,,,,,,0,75,75,30,1,0.545178213,1,,,,,,,,,,,,,,,,,,,,,,,,,,,,,,,,,,,,,,,,,,,,,,,,,,,,,,,,,,,,,,,,,,,,,,,,,,,,,,,,
,,6135752aa4ee5158b0708670,2022-09-08_17h27.03.719,CGTgamblingSpanTasks,2022.2.1,Win32,59.68367651,,,,,,,,3.1736,,,,,,,,,,,,,,1,v,0.8264,0,1,4.6736,1.5,,,,,,19.5450126,0,2.123581464,,,,,,,,,,,,,0,76,76,65,1,0.475836144,1,,,,,,,,,,,,,,,,,,,,,,,,,,,,,,,,,,,,,,,,,,,,,,,,,,,,,,,,,,,,,,,,,,,,,,,,,,,,,,,,
,,6135752aa4ee5158b0708670,2022-09-08_17h27.03.719,CGTgamblingSpanTasks,2022.2.1,Win32,59.68367651,,,,,,,,3.0695,,,,,,,,,,,,,,1,v,0.9305,0,1,4.5695,1.5,,,,,,26.4985979,0,0.051324376,,,,,,,,,,,,,0,77,77,106,1,0.918747215,0,,,,,,,,,,,,,,,,,,,,,,,,,,,,,,,,,,,,,,,,,,,,,,,,,,,,,,,,,,,,,,,,,,,,,,,,,,,,,,,,
,,6135752aa4ee5158b0708670,2022-09-08_17h27.03.719,CGTgamblingSpanTasks,2022.2.1,Win32,59.68367651,,,,,,,,3.1528,,,,,,,,,,,,,,2,n,0.8472,25.0707644,1,4.6528,1.5,,,,,,25.0707644,0,0.067651625,,,,,,,,,,,,,0,78,78,70,1,0.909952349,0,,,,,,,,,,,,,,,,,,,,,,,,,,,,,,,,,,,,,,,,,,,,,,,,,,,,,,,,,,,,,,,,,,,,,,,,,,,,,,,,
,,6135752aa4ee5158b0708670,2022-09-08_17h27.03.719,CGTgamblingSpanTasks,2022.2.1,Win32,59.68367651,,,,,,,,3.2684,,,,,,,,,,,,,,2,n,0.7316,0,1,4.2684,1,,,,,,7.534278541,0,0.747140182,,,,,,,,,,,,,0,79,79,37,1,0.50012466,1,,,,,,,,,,,,,,,,,,,,,,,,,,,,,,,,,,,,,,,,,,,,,,,,,,,,,,,,,,,,,,,,,,,,,,,,,,,,,,,,
,,6135752aa4ee5158b0708670,2022-09-08_17h27.03.719,CGTgamblingSpanTasks,2022.2.1,Win32,59.68367651,,,,,,,,2.8361,,,,,,,,,,,,,,1,v,1.1639,21.03408097,1,4.3361,1.5,,,,,,21.03408097,0,2.208275162,,,,,,,,,,,,,0,80,80,0,1,0.485031246,1,,,,,,,,,,,,,,,,,,,,,,,,,,,,,,,,,,,,,,,,,,,,,,,,,,,,,,,,,,,,,,,,,,,,,,,,,,,,,,,,
,,6135752aa4ee5158b0708670,2022-09-08_17h27.03.719,CGTgamblingSpanTasks,2022.2.1,Win32,59.68367651,,,,,,,,3.2193,,,,,,,,,,,,,,2,n,0.7807,26.11188619,1,4.2193,1,,,,,,26.11188619,0,0.081942421,,,,,,,,,,,,,0,81,81,105,1,0.905343856,0,,,,,,,,,,,,,,,,,,,,,,,,,,,,,,,,,,,,,,,,,,,,,,,,,,,,,,,,,,,,,,,,,,,,,,,,,,,,,,,,
,,6135752aa4ee5158b0708670,2022-09-08_17h27.03.719,CGTgamblingSpanTasks,2022.2.1,Win32,59.68367651,,,,,,,,2.9752,,,,,,,,,,,,,,1,v,1.0248,0,1,4.4752,1.5,,,,,,2.231316635,0,7.50753835,,,,,,,,,,,,,0,82,82,29,1,0.010273427,0,,,,,,,,,,,,,,,,,,,,,,,,,,,,,,,,,,,,,,,,,,,,,,,,,,,,,,,,,,,,,,,,,,,,,,,,,,,,,,,,
,,6135752aa4ee5158b0708670,2022-09-08_17h27.03.719,CGTgamblingSpanTasks,2022.2.1,Win32,59.68367651,,,,,,,,2.951,,,,,,,,,,,,,,2,n,1.049,20.31034258,1,4.451,1.5,,,,,,20.31034258,0,1.870404296,,,,,,,,,,,,,0,83,83,85,1,0.519325853,1,,,,,,,,,,,,,,,,,,,,,,,,,,,,,,,,,,,,,,,,,,,,,,,,,,,,,,,,,,,,,,,,,,,,,,,,,,,,,,,,
,,6135752aa4ee5158b0708670,2022-09-08_17h27.03.719,CGTgamblingSpanTasks,2022.2.1,Win32,59.68367651,,,,,,,,3.0211,,,,,,,,,,,,,,1,v,0.9789,0,1,4.5211,1.5,,,,,,21.2188881,0,2.067660742,,,,,,,,,,,,,0,84,84,107,1,0.50470775,1,,,,,,,,,,,,,,,,,,,,,,,,,,,,,,,,,,,,,,,,,,,,,,,,,,,,,,,,,,,,,,,,,,,,,,,,,,,,,,,,
,,6135752aa4ee5158b0708670,2022-09-08_17h27.03.719,CGTgamblingSpanTasks,2022.2.1,Win32,59.68367651,,,,,,,,2.4922,,,,,,,,,,,,,,2,v,1.5078,10.3417501,0,3.9922,1.5,,,,,,15.21435748,0,10.3417501,,,,,,,,,,,,,0,85,85,72,1,0.060969226,0,,,,,,,,,,,,,,,,,,,,,,,,,,,,,,,,,,,,,,,,,,,,,,,,,,,,,,,,,,,,,,,,,,,,,,,,,,,,,,,,
,,6135752aa4ee5158b0708670,2022-09-08_17h27.03.719,CGTgamblingSpanTasks,2022.2.1,Win32,59.68367651,,,,,,,,2.919,,,,,,,,,,,,,,1,v,1.081,11.16819157,1,3.919,1,,,,,,11.16819157,0,0.941456753,,,,,,,,,,,,,0,86,86,45,1,0.54163803,1,,,,,,,,,,,,,,,,,,,,,,,,,,,,,,,,,,,,,,,,,,,,,,,,,,,,,,,,,,,,,,,,,,,,,,,,,,,,,,,,
,,6135752aa4ee5158b0708670,2022-09-08_17h27.03.719,CGTgamblingSpanTasks,2022.2.1,Win32,59.68367651,,,,,,,,3.1023,,,,,,,,,,,,,,2,n,0.8977,0,1,4.6023,1.5,,,,,,17.23907308,0,2.055848574,,,,,,,,,,,,,0,87,87,66,1,0.450504458,1,,,,,,,,,,,,,,,,,,,,,,,,,,,,,,,,,,,,,,,,,,,,,,,,,,,,,,,,,,,,,,,,,,,,,,,,,,,,,,,,
,,6135752aa4ee5158b0708670,2022-09-08_17h27.03.719,CGTgamblingSpanTasks,2022.2.1,Win32,59.68367651,,,,,,,,3.2034,,,,,,,,,,,,,,1,v,0.7966,22.0050376,1,4.2034,1,,,,,,22.0050376,0,2.257683666,,,,,,,,,,,,,0,88,88,4,1,0.491147312,1,,,,,,,,,,,,,,,,,,,,,,,,,,,,,,,,,,,,,,,,,,,,,,,,,,,,,,,,,,,,,,,,,,,,,,,,,,,,,,,,
,,6135752aa4ee5158b0708670,2022-09-08_17h27.03.719,CGTgamblingSpanTasks,2022.2.1,Win32,59.68367651,,,,,,,,2.0869,,,,,,,,,,,,,,1,v,1.9131,0,1,3.5869,1.5,,,,,,29.75778644,0,2.810531415,,,,,,,,,,,,,0,89,89,113,1,0.512824233,1,,,,,,,,,,,,,,,,,,,,,,,,,,,,,,,,,,,,,,,,,,,,,,,,,,,,,,,,,,,,,,,,,,,,,,,,,,,,,,,,
,,6135752aa4ee5158b0708670,2022-09-08_17h27.03.719,CGTgamblingSpanTasks,2022.2.1,Win32,59.68367651,,,,,,,,2.6316,,,,,,,,,,,,,,1,v,1.3684,0,1,3.6316,1,,,,,,15.43649625,0,1.65459324,,,,,,,,,,,,,0,90,90,33,1,0.479480163,1,,,,,,,,,,,,,,,,,,,,,,,,,,,,,,,,,,,,,,,,,,,,,,,,,,,,,,,,,,,,,,,,,,,,,,,,,,,,,,,,
,,6135752aa4ee5158b0708670,2022-09-08_17h27.03.719,CGTgamblingSpanTasks,2022.2.1,Win32,59.68367651,,,,,,,,2.4897,,,,,,,,,,,,,,1,v,1.5103,27.12325385,1,3.4897,1,,,,,,27.12325385,0,0.080932047,,,,,,,,,,,,,0,91,91,14,1,0.906929184,0,,,,,,,,,,,,,,,,,,,,,,,,,,,,,,,,,,,,,,,,,,,,,,,,,,,,,,,,,,,,,,,,,,,,,,,,,,,,,,,,
,,6135752aa4ee5158b0708670,2022-09-08_17h27.03.719,CGTgamblingSpanTasks,2022.2.1,Win32,59.68367651,,,,,,,,2.7896,,,,,,,,,,,,,,1,n,1.2104,7.646213173,0,4.2896,1.5,,,,,,2.042350179,0,7.646213173,,,,,,,,,,,,,0,92,92,53,1,0.009522273,0,,,,,,,,,,,,,,,,,,,,,,,,,,,,,,,,,,,,,,,,,,,,,,,,,,,,,,,,,,,,,,,,,,,,,,,,,,,,,,,,
,,6135752aa4ee5158b0708670,2022-09-08_17h27.03.719,CGTgamblingSpanTasks,2022.2.1,Win32,59.68367651,,,,,,,,3.0326,,,,,,,,,,,,,,2,n,0.9674,28.9323758,1,4.5326,1.5,,,,,,28.9323758,0,2.893007023,,,,,,,,,,,,,0,93,93,11,1,0.497943321,1,,,,,,,,,,,,,,,,,,,,,,,,,,,,,,,,,,,,,,,,,,,,,,,,,,,,,,,,,,,,,,,,,,,,,,,,,,,,,,,,
,,6135752aa4ee5158b0708670,2022-09-08_17h27.03.719,CGTgamblingSpanTasks,2022.2.1,Win32,59.68367651,,,,,,,,3.0064,,,,,,,,,,,,,,2,n,0.9936,0,1,4.5064,1.5,,,,,,23.59556381,0,2.464662219,,,,,,,,,,,,,0,94,94,22,1,0.486383205,1,,,,,,,,,,,,,,,,,,,,,,,,,,,,,,,,,,,,,,,,,,,,,,,,,,,,,,,,,,,,,,,,,,,,,,,,,,,,,,,,
,,6135752aa4ee5158b0708670,2022-09-08_17h27.03.719,CGTgamblingSpanTasks,2022.2.1,Win32,59.68367651,,,,,,,,2.9877,,,,,,,,,,,,,,1,v,1.0123,27.53810185,1,4.4877,1.5,,,,,,27.53810185,0,0.097022401,,,,,,,,,,,,,0,95,95,50,1,0.901515865,0,,,,,,,,,,,,,,,,,,,,,,,,,,,,,,,,,,,,,,,,,,,,,,,,,,,,,,,,,,,,,,,,,,,,,,,,,,,,,,,,
,,6135752aa4ee5158b0708670,2022-09-08_17h27.03.719,CGTgamblingSpanTasks,2022.2.1,Win32,59.68367651,,,,,,,,3.0414,,,,,,,,,,,,,,1,v,0.9586,15.13999312,1,4.0414,1,,,,,,15.13999312,0,8.653432553,,,,,,,,,,,,,0,96,96,54,1,0.081767484,0,,,,,,,,,,,,,,,,,,,,,,,,,,,,,,,,,,,,,,,,,,,,,,,,,,,,,,,,,,,,,,,,,,,,,,,,,,,,,,,,
,,6135752aa4ee5158b0708670,2022-09-08_17h27.03.719,CGTgamblingSpanTasks,2022.2.1,Win32,59.68367651,,,,,,,,2.6153,,,,,,,,,,,,,,2,v,1.3847,6.781500919,0,4.1153,1.5,,,,,,8.363821911,0,6.781500919,,,,,,,,,,,,,0,97,97,61,1,0.044227959,0,,,,,,,,,,,,,,,,,,,,,,,,,,,,,,,,,,,,,,,,,,,,,,,,,,,,,,,,,,,,,,,,,,,,,,,,,,,,,,,,
,,6135752aa4ee5158b0708670,2022-09-08_17h27.03.719,CGTgamblingSpanTasks,2022.2.1,Win32,59.68367651,,,,,,,,2.4848,,,,,,,,,,,,,,1,v,1.5152,22.72923833,1,3.4848,1,,,,,,22.72923833,0,0.067170781,,,,,,,,,,,,,0,98,98,86,1,0.907226703,0,,,,,,,,,,,,,,,,,,,,,,,,,,,,,,,,,,,,,,,,,,,,,,,,,,,,,,,,,,,,,,,,,,,,,,,,,,,,,,,,
,,6135752aa4ee5158b0708670,2022-09-08_17h27.03.719,CGTgamblingSpanTasks,2022.2.1,Win32,59.68367651,,,,,,,,3.119,,,,,,,,,,,,,,2,n,0.881,0,1,4.119,1,,,,,,28.18900855,0,0.05384276,,,,,,,,,,,,,0,99,99,55,1,0.919081308,0,,,,,,,,,,,,,,,,,,,,,,,,,,,,,,,,,,,,,,,,,,,,,,,,,,,,,,,,,,,,,,,,,,,,,,,,,,,,,,,,
,,6135752aa4ee5158b0708670,2022-09-08_17h27.03.719,CGTgamblingSpanTasks,2022.2.1,Win32,59.68367651,,,,,,,,2.8348,,,,,,,,,,,,,,2,v,1.1652,4.251676631,0,3.8348,1,,,,,,3.395192929,0,4.251676631,,,,,,,,,,,,,0,100,100,7,1,0.023467153,0,,,,,,,,,,,,,,,,,,,,,,,,,,,,,,,,,,,,,,,,,,,,,,,,,,,,,,,,,,,,,,,,,,,,,,,,,,,,,,,,
,,6135752aa4ee5158b0708670,2022-09-08_17h27.03.719,CGTgamblingSpanTasks,2022.2.1,Win32,59.68367651,,,,,,,,3.1101,,,,,,,,,,,,,,1,v,0.8899,0,1,4.6101,1.5,,,,,,28.68598705,0,0.050674956,,,,,,,,,,,,,0,101,101,62,1,0.920905497,0,,,,,,,,,,,,,,,,,,,,,,,,,,,,,,,,,,,,,,,,,,,,,,,,,,,,,,,,,,,,,,,,,,,,,,,,,,,,,,,,
,,6135752aa4ee5158b0708670,2022-09-08_17h27.03.719,CGTgamblingSpanTasks,2022.2.1,Win32,59.68367651,,,,,,,,3.2171,,,,,,,,,,,,,,1,v,0.7829,22.87092517,1,4.7171,1.5,,,,,,22.87092517,0,0.059276504,,,,,,,,,,,,,0,102,102,27,1,0.911114935,0,,,,,,,,,,,,,,,,,,,,,,,,,,,,,,,,,,,,,,,,,,,,,,,,,,,,,,,,,,,,,,,,,,,,,,,,,,,,,,,,
,,6135752aa4ee5158b0708670,2022-09-08_17h27.03.719,CGTgamblingSpanTasks,2022.2.1,Win32,59.68367651,,,,,,,,3.0874,,,,,,,,,,,,,,1,v,0.9126,21.46599803,1,4.5874,1.5,,,,,,21.46599803,0,0.059789256,,,,,,,,,,,,,0,103,103,8,1,0.909019081,0,,,,,,,,,,,,,,,,,,,,,,,,,,,,,,,,,,,,,,,,,,,,,,,,,,,,,,,,,,,,,,,,,,,,,,,,,,,,,,,,
,,6135752aa4ee5158b0708670,2022-09-08_17h27.03.719,CGTgamblingSpanTasks,2022.2.1,Win32,59.68367651,,,,,,,,3.2334,,,,,,,,,,,,,,1,v,0.7666,29.76099779,1,4.2334,1,,,,,,29.76099779,0,0.095763086,,,,,,,,,,,,,0,104,104,35,1,0.904537896,0,,,,,,,,,,,,,,,,,,,,,,,,,,,,,,,,,,,,,,,,,,,,,,,,,,,,,,,,,,,,,,,,,,,,,,,,,,,,,,,,
,,6135752aa4ee5158b0708670,2022-09-08_17h27.03.719,CGTgamblingSpanTasks,2022.2.1,Win32,59.68367651,,,,,,,,3.104,,,,,,,,,,,,,,2,n,0.896,0,1,4.604,1.5,,,,,,22.25959835,0,0.065383587,,,,,,,,,,,,,0,105,105,97,1,0.907413875,0,,,,,,,,,,,,,,,,,,,,,,,,,,,,,,,,,,,,,,,,,,,,,,,,,,,,,,,,,,,,,,,,,,,,,,,,,,,,,,,,
,,6135752aa4ee5158b0708670,2022-09-08_17h27.03.719,CGTgamblingSpanTasks,2022.2.1,Win32,59.68367651,,,,,,,,2.9407,,,,,,,,,,,,,,2,n,1.0593,23.0613391,1,3.9407,1,,,,,,23.0613391,0,2.387726776,,,,,,,,,,,,,0,106,106,69,1,0.488727763,1,,,,,,,,,,,,,,,,,,,,,,,,,,,,,,,,,,,,,,,,,,,,,,,,,,,,,,,,,,,,,,,,,,,,,,,,,,,,,,,,
,,6135752aa4ee5158b0708670,2022-09-08_17h27.03.719,CGTgamblingSpanTasks,2022.2.1,Win32,59.68367651,,,,,,,,2.6042,,,,,,,,,,,,,,1,v,1.3958,18.11029021,1,4.1042,1.5,,,,,,18.11029021,0,11.41737518,,,,,,,,,,,,,0,107,107,48,1,0.069445859,0,,,,,,,,,,,,,,,,,,,,,,,,,,,,,,,,,,,,,,,,,,,,,,,,,,,,,,,,,,,,,,,,,,,,,,,,,,,,,,,,
,,6135752aa4ee5158b0708670,2022-09-08_17h27.03.719,CGTgamblingSpanTasks,2022.2.1,Win32,59.68367651,,,,,,,,2.5748,,,,,,,,,,,,,,2,v,1.4252,6.091504705,0,3.5748,1,,,,,,6.662965216,0,6.091504705,,,,,,,,,,,,,0,108,108,102,1,0.035087099,0,,,,,,,,,,,,,,,,,,,,,,,,,,,,,,,,,,,,,,,,,,,,,,,,,,,,,,,,,,,,,,,,,,,,,,,,,,,,,,,,
,,6135752aa4ee5158b0708670,2022-09-08_17h27.03.719,CGTgamblingSpanTasks,2022.2.1,Win32,59.68367651,,,,,,,,2.5741,,,,,,,,,,,,,,1,v,1.4259,0,1,4.0741,1.5,,,,,,9.012590634,0,1.002188111,,,,,,,,,,,,,0,109,109,12,1,0.46958041,1,,,,,,,,,,,,,,,,,,,,,,,,,,,,,,,,,,,,,,,,,,,,,,,,,,,,,,,,,,,,,,,,,,,,,,,,,,,,,,,,
,,6135752aa4ee5158b0708670,2022-09-08_17h27.03.719,CGTgamblingSpanTasks,2022.2.1,Win32,59.68367651,,,,,,,,3.2063,,,,,,,,,,,,,,1,v,0.7937,0,1,4.7063,1.5,,,,,,25.65316415,0,0.079652925,,,,,,,,,,,,,0,110,110,109,1,0.90568168,0,,,,,,,,,,,,,,,,,,,,,,,,,,,,,,,,,,,,,,,,,,,,,,,,,,,,,,,,,,,,,,,,,,,,,,,,,,,,,,,,
,,6135752aa4ee5158b0708670,2022-09-08_17h27.03.719,CGTgamblingSpanTasks,2022.2.1,Win32,59.68367651,,,,,,,,3.1969,,,,,,,,,,,,,,1,v,0.8031,0,1,4.6969,1.5,,,,,,24.57684014,0,0.061756244,,,,,,,,,,,,,0,111,111,68,1,0.911988903,0,,,,,,,,,,,,,,,,,,,,,,,,,,,,,,,,,,,,,,,,,,,,,,,,,,,,,,,,,,,,,,,,,,,,,,,,,,,,,,,,
,,6135752aa4ee5158b0708670,2022-09-08_17h27.03.719,CGTgamblingSpanTasks,2022.2.1,Win32,59.68367651,,,,,,,,2.9192,,,,,,,,,,,,,,2,n,1.0808,0,1,4.4192,1.5,,,,,,25.26994993,0,2.78925142,,,,,,,,,,,,,0,112,112,108,1,0.471582922,1,,,,,,,,,,,,,,,,,,,,,,,,,,,,,,,,,,,,,,,,,,,,,,,,,,,,,,,,,,,,,,,,,,,,,,,,,,,,,,,,
,,6135752aa4ee5158b0708670,2022-09-08_17h27.03.719,CGTgamblingSpanTasks,2022.2.1,Win32,59.68367651,,,,,,,,2.5913,,,,,,,,,,,,,,1,v,1.4087,17.85020524,1,3.5913,1,,,,,,17.85020524,0,2.058701084,,,,,,,,,,,,,0,113,113,25,1,0.459662216,1,,,,,,,,,,,,,,,,,,,,,,,,,,,,,,,,,,,,,,,,,,,,,,,,,,,,,,,,,,,,,,,,,,,,,,,,,,,,,,,,
,,6135752aa4ee5158b0708670,2022-09-08_17h27.03.719,CGTgamblingSpanTasks,2022.2.1,Win32,59.68367651,,,,,,,,2.4198,,,,,,,,,,,,,,2,v,1.5802,4.462262453,0,3.4198,1,,,,,,0.192759042,0,4.462262453,,,,,,,,,,,,,0,114,114,52,1,0.003553223,0,,,,,,,,,,,,,,,,,,,,,,,,,,,,,,,,,,,,,,,,,,,,,,,,,,,,,,,,,,,,,,,,,,,,,,,,,,,,,,,,
,,6135752aa4ee5158b0708670,2022-09-08_17h27.03.719,CGTgamblingSpanTasks,2022.2.1,Win32,59.68367651,,,,,,,,3.1401,,,,,,,,,,,,,,2,n,0.8599,0,1,4.6401,1.5,,,,,,25.21882231,0,0.085746782,,,,,,,,,,,,,0,115,115,64,1,0.90272076,0,,,,,,,,,,,,,,,,,,,,,,,,,,,,,,,,,,,,,,,,,,,,,,,,,,,,,,,,,,,,,,,,,,,,,,,,,,,,,,,,
,,6135752aa4ee5158b0708670,2022-09-08_17h27.03.719,CGTgamblingSpanTasks,2022.2.1,Win32,59.68367651,,,,,,,,2.9414,,,,,,,,,,,,,,2,n,1.0586,0,1,4.4414,1.5,,,,,,19.68065872,0,1.843597162,,,,,,,,,,,,,0,116,116,80,1,0.514941058,1,,,,,,,,,,,,,,,,,,,,,,,,,,,,,,,,,,,,,,,,,,,,,,,,,,,,,,,,,,,,,,,,,,,,,,,,,,,,,,,,
,,6135752aa4ee5158b0708670,2022-09-08_17h27.03.719,CGTgamblingSpanTasks,2022.2.1,Win32,59.68367651,,,,,,,,2.5727,,,,,,,,,,,,,,1,n,1.4273,11.6744431,0,3.5727,1,,,,,,10.43004651,0,11.6744431,,,,,,,,,,,,,0,117,117,15,1,0.026176489,0,,,,,,,,,,,,,,,,,,,,,,,,,,,,,,,,,,,,,,,,,,,,,,,,,,,,,,,,,,,,,,,,,,,,,,,,,,,,,,,,
,,6135752aa4ee5158b0708670,2022-09-08_17h27.03.719,CGTgamblingSpanTasks,2022.2.1,Win32,59.68367651,,,,,,,,3.0793,,,,,,,,,,,,,,1,v,0.9207,27.94544945,1,4.0793,1,,,,,,27.94544945,0,2.32030209,,,,,,,,,,,,,0,118,118,115,1,0.545390564,1,,,,,,,,,,,,,,,,,,,,,,,,,,,,,,,,,,,,,,,,,,,,,,,,,,,,,,,,,,,,,,,,,,,,,,,,,,,,,,,,
,,6135752aa4ee5158b0708670,2022-09-08_17h27.03.719,CGTgamblingSpanTasks,2022.2.1,Win32,59.68367651,,,,,,,,2.945,,,,,,,,,,,,,,1,v,1.055,0,1,3.945,1,,,,,,17.64114152,0,10.68505773,,,,,,,,,,,,,0,119,119,98,1,0.074299362,0,,,,,,,,,,,,,,,,,,,,,,,,,,,,,,,,,,,,,,,,,,,,,,,,,,,,,,,,,,,,,,,,,,,,,,,,,,,,,,,,
,,6135752aa4ee5158b0708670,2022-09-08_17h27.03.719,CGTgamblingSpanTasks,2022.2.1,Win32,59.68367651,,,,,,,,,,,,,,,,,,,,,,,,,,,,,,,,,,,,,,,,,,,,,,,,,,,,,,,,return,9.476,,,,,,,,,,,,,,,,,,,,,,,,,,,,,,,,,,,,,,,,,,,,,,,,,,,,,,,,,,,,,,,,,,,,,,,,,,,,,,
,,6135752aa4ee5158b0708670,2022-09-08_17h27.03.719,CGTgamblingSpanTasks,2022.2.1,Win32,59.68367651,,,,,,,,,,,,,,,,,,,,,,,,,,,,,,,,,,,,,,,,,,,,,,,,,,,,,,,,,,return,23.9116,,,,,,,,,,,,,,,,,,,,,,,,,,,,,,,,,,,,,,,,,,,,,,,,,,,,,,,,,,,,,,,,,,,,,,,,,,,,
,,6135752aa4ee5158b0708670,2022-09-08_17h27.03.719,CGTgamblingSpanTasks,2022.2.1,Win32,59.68367651,,,,,,,,,,,,,,,,,,,,,,,,,,,,,,,,,,,,,,,,,,,,,,,,,,,,,,,,,,,,return,90.4867,,,,,,,,,,,,,,,,,,,,,,,,,,,,,,,,,,,,,,,,,,,,,,,,,,,,,,,,,,,,,,,,,,,,,,,,,,
,,6135752aa4ee5158b0708670,2022-09-08_17h27.03.719,CGTgamblingSpanTasks,2022.2.1,Win32,59.68367651,,,,,,,,,,,,,,,,,,,,,,,,,,,,,,,,,,,,,,,,,,,,,,,,,,,,,,,,,,,,,,342,1,0.0078125,-0.403645833,1,0,0,cont_buttonPractice,0,0,0,0,1,3,342,24,2,42,,,,,,,,,,,,,,,,,,,,,,,,,,,,,,,,,,,,,,,,,,,,,,,,,,,,,,,,
,,6135752aa4ee5158b0708670,2022-09-08_17h27.03.719,CGTgamblingSpanTasks,2022.2.1,Win32,59.68367651,,,,,,,,,,,,,,,,,,,,,,,,,,,,,,,,,,,,,,,,,,,,,,,,,,,,,,,,,,,,,,937,1,0.022135417,-0.388020833,1,0,0,cont_buttonPractice,0,1,1,1,1,3,937,73,2,37,,,,,,,,,,,,,,,,,,,,,,,,,,,,,,,,,,,,,,,,,,,,,,,,,,,,,,,,
,,6135752aa4ee5158b0708670,2022-09-08_17h27.03.719,CGTgamblingSpanTasks,2022.2.1,Win32,59.68367651,,,,,,,,,,,,,,,,,,,,,,,,,,,,,,,,,,,,,,,,,,,,,,,,,,,,,,,,,,,,,,,,,,,,,,,,,,,,,,,,return,13.6872,,,,,,,,,,,,,,,,,,,,,,,,,,,,,,,,,,,,,,,,,,,,,,,,,,,,,,
,,6135752aa4ee5158b0708670,2022-09-08_17h27.03.719,CGTgamblingSpanTasks,2022.2.1,Win32,59.68367651,,,,,,,,,,,,,,,,,,,,,,,,,,,,,,,,,,,,,,,,,,,,,,,,,,,,,,,,,,,,,,,,,,,,,,,,,,,,,,,,,,"[6,3,9]",0,0,0,0,1,,,,,,,,,,,,,,,,,,,,,,,,,,,,,,,,,,,,,,,,,,,,,,,,
,,6135752aa4ee5158b0708670,2022-09-08_17h27.03.719,CGTgamblingSpanTasks,2022.2.1,Win32,59.68367651,,,,,,,,,,,,,,,,,,,,,,,,,,,,,,,,,,,,,,,,,,,,,,,,,,,,,,,,,,,,,,,,,,,,,,,,,,,,,,,,,,"[6,3,9]",1,0,1,0,1,,,,,,,,,,,,,,,,,,,,,,,,,,,,,,,,,,,,,,,,,,,,,,,,
,,6135752aa4ee5158b0708670,2022-09-08_17h27.03.719,CGTgamblingSpanTasks,2022.2.1,Win32,59.68367651,,,,,,,,,,,,,,,,,,,,,,,,,,,,,,,,,,,,,,,,,,,,,,,,,,,,,,,,,,,,,,,,,,,,,,,,,,,,,,,,,,"[6,3,9]",2,0,2,0,1,,,,,,,,,,,,,,,,,,,,,,,,,,,,,,,,,,,,,,,,,,,,,,,,
,,6135752aa4ee5158b0708670,2022-09-08_17h27.03.719,CGTgamblingSpanTasks,2022.2.1,Win32,59.68367651,,,,,,,,,,,,,,,,,,,,,,,,,,,,,,,,,,,,,,,,,,,,,,,,,,,,,,,,,,,,,,,1,,,,,,,,,,,,,,,,,,,,,,,,,639,-0.013020833,-0.384114583,1,0,0,cont_button,0,0,0,0,1,1,,,,,,,,,,,,,,,,,,,,,,,,,,,,,,,,,,,
,,6135752aa4ee5158b0708670,2022-09-08_17h27.03.719,CGTgamblingSpanTasks,2022.2.1,Win32,59.68367651,,,,,,,,,,,,,,,,,,,,,,,,,,,,,,,,,,,,,,,,,,,,,,,,,,,,,,,,,,,,,,,,,,,,,,,,,,,,,,,,,,"[4,6,3,5]",0,0,0,0,1,,,,,,,,,,,,,,,,,,,,,,,,,,,,,,,,,,,,,,,,,,,,,,,,
,,6135752aa4ee5158b0708670,2022-09-08_17h27.03.719,CGTgamblingSpanTasks,2022.2.1,Win32,59.68367651,,,,,,,,,,,,,,,,,,,,,,,,,,,,,,,,,,,,,,,,,,,,,,,,,,,,,,,,,,,,,,,,,,,,,,,,,,,,,,,,,,"[4,6,3,5]",1,0,1,0,1,,,,,,,,,,,,,,,,,,,,,,,,,,,,,,,,,,,,,,,,,,,,,,,,
,,6135752aa4ee5158b0708670,2022-09-08_17h27.03.719,CGTgamblingSpanTasks,2022.2.1,Win32,59.68367651,,,,,,,,,,,,,,,,,,,,,,,,,,,,,,,,,,,,,,,,,,,,,,,,,,,,,,,,,,,,,,,,,,,,,,,,,,,,,,,,,,"[4,6,3,5]",2,0,2,0,1,,,,,,,,,,,,,,,,,,,,,,,,,,,,,,,,,,,,,,,,,,,,,,,,
,,6135752aa4ee5158b0708670,2022-09-08_17h27.03.719,CGTgamblingSpanTasks,2022.2.1,Win32,59.68367651,,,,,,,,,,,,,,,,,,,,,,,,,,,,,,,,,,,,,,,,,,,,,,,,,,,,,,,,,,,,,,,,,,,,,,,,,,,,,,,,,,"[4,6,3,5]",3,0,3,0,1,,,,,,,,,,,,,,,,,,,,,,,,,,,,,,,,,,,,,,,,,,,,,,,,
,,6135752aa4ee5158b0708670,2022-09-08_17h27.03.719,CGTgamblingSpanTasks,2022.2.1,Win32,59.68367651,,,,,,,,,,,,,,,,,,,,,,,,,,,,,,,,,,,,,,,,,,,,,,,,,,,,,,,,,,,,,,,1,,,,,,,,,,,,,,,,,,,,,,,,,4635,-0.013020833,-0.384114583,1,0,0,cont_button,0,1,1,1,1,2,,,,,,,,,,,,,,,,,,,,,,,,,,,,,,,,,,,
,,6135752aa4ee5158b0708670,2022-09-08_17h27.03.719,CGTgamblingSpanTasks,2022.2.1,Win32,59.68367651,,,,,,,,,,,,,,,,,,,,,,,,,,,,,,,,,,,,,,,,,,,,,,,,,,,,,,,,,,,,,,,,,,,,,,,,,,,,,,,,,,"[4,6,5,2,7]",0,0,0,0,1,,,,,,,,,,,,,,,,,,,,,,,,,,,,,,,,,,,,,,,,,,,,,,,,
,,6135752aa4ee5158b0708670,2022-09-08_17h27.03.719,CGTgamblingSpanTasks,2022.2.1,Win32,59.68367651,,,,,,,,,,,,,,,,,,,,,,,,,,,,,,,,,,,,,,,,,,,,,,,,,,,,,,,,,,,,,,,,,,,,,,,,,,,,,,,,,,"[4,6,5,2,7]",1,0,1,0,1,,,,,,,,,,,,,,,,,,,,,,,,,,,,,,,,,,,,,,,,,,,,,,,,
,,6135752aa4ee5158b0708670,2022-09-08_17h27.03.719,CGTgamblingSpanTasks,2022.2.1,Win32,59.68367651,,,,,,,,,,,,,,,,,,,,,,,,,,,,,,,,,,,,,,,,,,,,,,,,,,,,,,,,,,,,,,,,,,,,,,,,,,,,,,,,,,"[4,6,5,2,7]",2,0,2,0,1,,,,,,,,,,,,,,,,,,,,,,,,,,,,,,,,,,,,,,,,,,,,,,,,
,,6135752aa4ee5158b0708670,2022-09-08_17h27.03.719,CGTgamblingSpanTasks,2022.2.1,Win32,59.68367651,,,,,,,,,,,,,,,,,,,,,,,,,,,,,,,,,,,,,,,,,,,,,,,,,,,,,,,,,,,,,,,,,,,,,,,,,,,,,,,,,,"[4,6,5,2,7]",3,0,3,0,1,,,,,,,,,,,,,,,,,,,,,,,,,,,,,,,,,,,,,,,,,,,,,,,,
,,6135752aa4ee5158b0708670,2022-09-08_17h27.03.719,CGTgamblingSpanTasks,2022.2.1,Win32,59.68367651,,,,,,,,,,,,,,,,,,,,,,,,,,,,,,,,,,,,,,,,,,,,,,,,,,,,,,,,,,,,,,,,,,,,,,,,,,,,,,,,,,"[4,6,5,2,7]",4,0,4,0,1,,,,,,,,,,,,,,,,,,,,,,,,,,,,,,,,,,,,,,,,,,,,,,,,
,,6135752aa4ee5158b0708670,2022-09-08_17h27.03.719,CGTgamblingSpanTasks,2022.2.1,Win32,59.68367651,,,,,,,,,,,,,,,,,,,,,,,,,,,,,,,,,,,,,,,,,,,,,,,,,,,,,,,,,,,,,,,1,,,,,,,,,,,,,,,,,,,,,,,,,46527,-0.010416667,-0.3828125,1,0,0,cont_button,0,2,2,2,1,3,,,,,,,,,,,,,,,,,,,,,,,,,,,,,,,,,,,
,,6135752aa4ee5158b0708670,2022-09-08_17h27.03.719,CGTgamblingSpanTasks,2022.2.1,Win32,59.68367651,,,,,,,,,,,,,,,,,,,,,,,,,,,,,,,,,,,,,,,,,,,,,,,,,,,,,,,,,,,,,,,,,,,,,,,,,,,,,,,,,,"[1,6,7,4,8,5]",0,0,0,0,1,,,,,,,,,,,,,,,,,,,,,,,,,,,,,,,,,,,,,,,,,,,,,,,,
,,6135752aa4ee5158b0708670,2022-09-08_17h27.03.719,CGTgamblingSpanTasks,2022.2.1,Win32,59.68367651,,,,,,,,,,,,,,,,,,,,,,,,,,,,,,,,,,,,,,,,,,,,,,,,,,,,,,,,,,,,,,,,,,,,,,,,,,,,,,,,,,"[1,6,7,4,8,5]",1,0,1,0,1,,,,,,,,,,,,,,,,,,,,,,,,,,,,,,,,,,,,,,,,,,,,,,,,
,,6135752aa4ee5158b0708670,2022-09-08_17h27.03.719,CGTgamblingSpanTasks,2022.2.1,Win32,59.68367651,,,,,,,,,,,,,,,,,,,,,,,,,,,,,,,,,,,,,,,,,,,,,,,,,,,,,,,,,,,,,,,,,,,,,,,,,,,,,,,,,,"[1,6,7,4,8,5]",2,0,2,0,1,,,,,,,,,,,,,,,,,,,,,,,,,,,,,,,,,,,,,,,,,,,,,,,,
,,6135752aa4ee5158b0708670,2022-09-08_17h27.03.719,CGTgamblingSpanTasks,2022.2.1,Win32,59.68367651,,,,,,,,,,,,,,,,,,,,,,,,,,,,,,,,,,,,,,,,,,,,,,,,,,,,,,,,,,,,,,,,,,,,,,,,,,,,,,,,,,"[1,6,7,4,8,5]",3,0,3,0,1,,,,,,,,,,,,,,,,,,,,,,,,,,,,,,,,,,,,,,,,,,,,,,,,
,,6135752aa4ee5158b0708670,2022-09-08_17h27.03.719,CGTgamblingSpanTasks,2022.2.1,Win32,59.68367651,,,,,,,,,,,,,,,,,,,,,,,,,,,,,,,,,,,,,,,,,,,,,,,,,,,,,,,,,,,,,,,,,,,,,,,,,,,,,,,,,,"[1,6,7,4,8,5]",4,0,4,0,1,,,,,,,,,,,,,,,,,,,,,,,,,,,,,,,,,,,,,,,,,,,,,,,,
,,6135752aa4ee5158b0708670,2022-09-08_17h27.03.719,CGTgamblingSpanTasks,2022.2.1,Win32,59.68367651,,,,,,,,,,,,,,,,,,,,,,,,,,,,,,,,,,,,,,,,,,,,,,,,,,,,,,,,,,,,,,,,,,,,,,,,,,,,,,,,,,"[1,6,7,4,8,5]",5,0,5,0,1,,,,,,,,,,,,,,,,,,,,,,,,,,,,,,,,,,,,,,,,,,,,,,,,
,,6135752aa4ee5158b0708670,2022-09-08_17h27.03.719,CGTgamblingSpanTasks,2022.2.1,Win32,59.68367651,,,,,,,,,,,,,,,,,,,,,,,,,,,,,,,,,,,,,,,,,,,,,,,,,,,,,,,,,,,,,,,1,,,,,,,,,,,,,,,,,,,,,,,,,167485,-0.009114583,-0.3828125,1,0,0,cont_button,0,3,3,3,1,4,,,,,,,,,,,,,,,,,,,,,,,,,,,,,,,,,,,
,,6135752aa4ee5158b0708670,2022-09-08_17h27.03.719,CGTgamblingSpanTasks,2022.2.1,Win32,59.68367651,,,,,,,,,,,,,,,,,,,,,,,,,,,,,,,,,,,,,,,,,,,,,,,,,,,,,,,,,,,,,,,,,,,,,,,,,,,,,,,,,,"[3,4,9,1,7,6,8]",0,0,0,0,1,,,,,,,,,,,,,,,,,,,,,,,,,,,,,,,,,,,,,,,,,,,,,,,,
,,6135752aa4ee5158b0708670,2022-09-08_17h27.03.719,CGTgamblingSpanTasks,2022.2.1,Win32,59.68367651,,,,,,,,,,,,,,,,,,,,,,,,,,,,,,,,,,,,,,,,,,,,,,,,,,,,,,,,,,,,,,,,,,,,,,,,,,,,,,,,,,"[3,4,9,1,7,6,8]",1,0,1,0,1,,,,,,,,,,,,,,,,,,,,,,,,,,,,,,,,,,,,,,,,,,,,,,,,
,,6135752aa4ee5158b0708670,2022-09-08_17h27.03.719,CGTgamblingSpanTasks,2022.2.1,Win32,59.68367651,,,,,,,,,,,,,,,,,,,,,,,,,,,,,,,,,,,,,,,,,,,,,,,,,,,,,,,,,,,,,,,,,,,,,,,,,,,,,,,,,,"[3,4,9,1,7,6,8]",2,0,2,0,1,,,,,,,,,,,,,,,,,,,,,,,,,,,,,,,,,,,,,,,,,,,,,,,,
,,6135752aa4ee5158b0708670,2022-09-08_17h27.03.719,CGTgamblingSpanTasks,2022.2.1,Win32,59.68367651,,,,,,,,,,,,,,,,,,,,,,,,,,,,,,,,,,,,,,,,,,,,,,,,,,,,,,,,,,,,,,,,,,,,,,,,,,,,,,,,,,"[3,4,9,1,7,6,8]",3,0,3,0,1,,,,,,,,,,,,,,,,,,,,,,,,,,,,,,,,,,,,,,,,,,,,,,,,
,,6135752aa4ee5158b0708670,2022-09-08_17h27.03.719,CGTgamblingSpanTasks,2022.2.1,Win32,59.68367651,,,,,,,,,,,,,,,,,,,,,,,,,,,,,,,,,,,,,,,,,,,,,,,,,,,,,,,,,,,,,,,,,,,,,,,,,,,,,,,,,,"[3,4,9,1,7,6,8]",4,0,4,0,1,,,,,,,,,,,,,,,,,,,,,,,,,,,,,,,,,,,,,,,,,,,,,,,,
,,6135752aa4ee5158b0708670,2022-09-08_17h27.03.719,CGTgamblingSpanTasks,2022.2.1,Win32,59.68367651,,,,,,,,,,,,,,,,,,,,,,,,,,,,,,,,,,,,,,,,,,,,,,,,,,,,,,,,,,,,,,,,,,,,,,,,,,,,,,,,,,"[3,4,9,1,7,6,8]",5,0,5,0,1,,,,,,,,,,,,,,,,,,,,,,,,,,,,,,,,,,,,,,,,,,,,,,,,
,,6135752aa4ee5158b0708670,2022-09-08_17h27.03.719,CGTgamblingSpanTasks,2022.2.1,Win32,59.68367651,,,,,,,,,,,,,,,,,,,,,,,,,,,,,,,,,,,,,,,,,,,,,,,,,,,,,,,,,,,,,,,,,,,,,,,,,,,,,,,,,,"[3,4,9,1,7,6,8]",6,0,6,0,1,,,,,,,,,,,,,,,,,,,,,,,,,,,,,,,,,,,,,,,,,,,,,,,,
,,6135752aa4ee5158b0708670,2022-09-08_17h27.03.719,CGTgamblingSpanTasks,2022.2.1,Win32,59.68367651,,,,,,,,,,,,,,,,,,,,,,,,,,,,,,,,,,,,,,,,,,,,,,,,,,,,,,,,,,,,,,,1,,,,,,,,,,,,,,,,,,,,,,,,,3491768,-0.01171875,-0.368489583,1,0,0,cont_button,0,4,4,4,1,5,,,,,,,,,,,,,,,,,,,,,,,,,,,,,,,,,,,
,,6135752aa4ee5158b0708670,2022-09-08_17h27.03.719,CGTgamblingSpanTasks,2022.2.1,Win32,59.68367651,,,,,,,,,,,,,,,,,,,,,,,,,,,,,,,,,,,,,,,,,,,,,,,,,,,,,,,,,,,,,,,,,,,,,,,,,,,,,,,,,,"[4,3,8,6,1,9,5,2]",0,0,0,0,1,,,,,,,,,,,,,,,,,,,,,,,,,,,,,,,,,,,,,,,,,,,,,,,,
,,6135752aa4ee5158b0708670,2022-09-08_17h27.03.719,CGTgamblingSpanTasks,2022.2.1,Win32,59.68367651,,,,,,,,,,,,,,,,,,,,,,,,,,,,,,,,,,,,,,,,,,,,,,,,,,,,,,,,,,,,,,,,,,,,,,,,,,,,,,,,,,"[4,3,8,6,1,9,5,2]",1,0,1,0,1,,,,,,,,,,,,,,,,,,,,,,,,,,,,,,,,,,,,,,,,,,,,,,,,
,,6135752aa4ee5158b0708670,2022-09-08_17h27.03.719,CGTgamblingSpanTasks,2022.2.1,Win32,59.68367651,,,,,,,,,,,,,,,,,,,,,,,,,,,,,,,,,,,,,,,,,,,,,,,,,,,,,,,,,,,,,,,,,,,,,,,,,,,,,,,,,,"[4,3,8,6,1,9,5,2]",2,0,2,0,1,,,,,,,,,,,,,,,,,,,,,,,,,,,,,,,,,,,,,,,,,,,,,,,,
,,6135752aa4ee5158b0708670,2022-09-08_17h27.03.719,CGTgamblingSpanTasks,2022.2.1,Win32,59.68367651,,,,,,,,,,,,,,,,,,,,,,,,,,,,,,,,,,,,,,,,,,,,,,,,,,,,,,,,,,,,,,,,,,,,,,,,,,,,,,,,,,"[4,3,8,6,1,9,5,2]",3,0,3,0,1,,,,,,,,,,,,,,,,,,,,,,,,,,,,,,,,,,,,,,,,,,,,,,,,
,,6135752aa4ee5158b0708670,2022-09-08_17h27.03.719,CGTgamblingSpanTasks,2022.2.1,Win32,59.68367651,,,,,,,,,,,,,,,,,,,,,,,,,,,,,,,,,,,,,,,,,,,,,,,,,,,,,,,,,,,,,,,,,,,,,,,,,,,,,,,,,,"[4,3,8,6,1,9,5,2]",4,0,4,0,1,,,,,,,,,,,,,,,,,,,,,,,,,,,,,,,,,,,,,,,,,,,,,,,,
,,6135752aa4ee5158b0708670,2022-09-08_17h27.03.719,CGTgamblingSpanTasks,2022.2.1,Win32,59.68367651,,,,,,,,,,,,,,,,,,,,,,,,,,,,,,,,,,,,,,,,,,,,,,,,,,,,,,,,,,,,,,,,,,,,,,,,,,,,,,,,,,"[4,3,8,6,1,9,5,2]",5,0,5,0,1,,,,,,,,,,,,,,,,,,,,,,,,,,,,,,,,,,,,,,,,,,,,,,,,
,,6135752aa4ee5158b0708670,2022-09-08_17h27.03.719,CGTgamblingSpanTasks,2022.2.1,Win32,59.68367651,,,,,,,,,,,,,,,,,,,,,,,,,,,,,,,,,,,,,,,,,,,,,,,,,,,,,,,,,,,,,,,,,,,,,,,,,,,,,,,,,,"[4,3,8,6,1,9,5,2]",6,0,6,0,1,,,,,,,,,,,,,,,,,,,,,,,,,,,,,,,,,,,,,,,,,,,,,,,,
,,6135752aa4ee5158b0708670,2022-09-08_17h27.03.719,CGTgamblingSpanTasks,2022.2.1,Win32,59.68367651,,,,,,,,,,,,,,,,,,,,,,,,,,,,,,,,,,,,,,,,,,,,,,,,,,,,,,,,,,,,,,,,,,,,,,,,,,,,,,,,,,"[4,3,8,6,1,9,5,2]",7,0,7,0,1,,,,,,,,,,,,,,,,,,,,,,,,,,,,,,,,,,,,,,,,,,,,,,,,
,,6135752aa4ee5158b0708670,2022-09-08_17h27.03.719,CGTgamblingSpanTasks,2022.2.1,Win32,59.68367651,,,,,,,,,,,,,,,,,,,,,,,,,,,,,,,,,,,,,,,,,,,,,,,,,,,,,,,,,,,,,,,1,,,,,,,,,,,,,,,,,,,,,,,,,43861952,0.04296875,-0.37109375,1,0,0,cont_button,0,5,5,5,1,6,,,,,,,,,,,,,,,,,,,,,,,,,,,,,,,,,,,
,,6135752aa4ee5158b0708670,2022-09-08_17h27.03.719,CGTgamblingSpanTasks,2022.2.1,Win32,59.68367651,,,,,,,,,,,,,,,,,,,,,,,,,,,,,,,,,,,,,,,,,,,,,,,,,,,,,,,,,,,,,,,,,,,,,,,,,,,,,,,,,,"[9,5,2,3,6,4,1,7,8]",0,0,0,0,1,,,,,,,,,,,,,,,,,,,,,,,,,,,,,,,,,,,,,,,,,,,,,,,,
,,6135752aa4ee5158b0708670,2022-09-08_17h27.03.719,CGTgamblingSpanTasks,2022.2.1,Win32,59.68367651,,,,,,,,,,,,,,,,,,,,,,,,,,,,,,,,,,,,,,,,,,,,,,,,,,,,,,,,,,,,,,,,,,,,,,,,,,,,,,,,,,"[9,5,2,3,6,4,1,7,8]",1,0,1,0,1,,,,,,,,,,,,,,,,,,,,,,,,,,,,,,,,,,,,,,,,,,,,,,,,
,,6135752aa4ee5158b0708670,2022-09-08_17h27.03.719,CGTgamblingSpanTasks,2022.2.1,Win32,59.68367651,,,,,,,,,,,,,,,,,,,,,,,,,,,,,,,,,,,,,,,,,,,,,,,,,,,,,,,,,,,,,,,,,,,,,,,,,,,,,,,,,,"[9,5,2,3,6,4,1,7,8]",2,0,2,0,1,,,,,,,,,,,,,,,,,,,,,,,,,,,,,,,,,,,,,,,,,,,,,,,,
,,6135752aa4ee5158b0708670,2022-09-08_17h27.03.719,CGTgamblingSpanTasks,2022.2.1,Win32,59.68367651,,,,,,,,,,,,,,,,,,,,,,,,,,,,,,,,,,,,,,,,,,,,,,,,,,,,,,,,,,,,,,,,,,,,,,,,,,,,,,,,,,"[9,5,2,3,6,4,1,7,8]",3,0,3,0,1,,,,,,,,,,,,,,,,,,,,,,,,,,,,,,,,,,,,,,,,,,,,,,,,
,,6135752aa4ee5158b0708670,2022-09-08_17h27.03.719,CGTgamblingSpanTasks,2022.2.1,Win32,59.68367651,,,,,,,,,,,,,,,,,,,,,,,,,,,,,,,,,,,,,,,,,,,,,,,,,,,,,,,,,,,,,,,,,,,,,,,,,,,,,,,,,,"[9,5,2,3,6,4,1,7,8]",4,0,4,0,1,,,,,,,,,,,,,,,,,,,,,,,,,,,,,,,,,,,,,,,,,,,,,,,,
,,6135752aa4ee5158b0708670,2022-09-08_17h27.03.719,CGTgamblingSpanTasks,2022.2.1,Win32,59.68367651,,,,,,,,,,,,,,,,,,,,,,,,,,,,,,,,,,,,,,,,,,,,,,,,,,,,,,,,,,,,,,,,,,,,,,,,,,,,,,,,,,"[9,5,2,3,6,4,1,7,8]",5,0,5,0,1,,,,,,,,,,,,,,,,,,,,,,,,,,,,,,,,,,,,,,,,,,,,,,,,
,,6135752aa4ee5158b0708670,2022-09-08_17h27.03.719,CGTgamblingSpanTasks,2022.2.1,Win32,59.68367651,,,,,,,,,,,,,,,,,,,,,,,,,,,,,,,,,,,,,,,,,,,,,,,,,,,,,,,,,,,,,,,,,,,,,,,,,,,,,,,,,,"[9,5,2,3,6,4,1,7,8]",6,0,6,0,1,,,,,,,,,,,,,,,,,,,,,,,,,,,,,,,,,,,,,,,,,,,,,,,,
,,6135752aa4ee5158b0708670,2022-09-08_17h27.03.719,CGTgamblingSpanTasks,2022.2.1,Win32,59.68367651,,,,,,,,,,,,,,,,,,,,,,,,,,,,,,,,,,,,,,,,,,,,,,,,,,,,,,,,,,,,,,,,,,,,,,,,,,,,,,,,,,"[9,5,2,3,6,4,1,7,8]",7,0,7,0,1,,,,,,,,,,,,,,,,,,,,,,,,,,,,,,,,,,,,,,,,,,,,,,,,
,,6135752aa4ee5158b0708670,2022-09-08_17h27.03.719,CGTgamblingSpanTasks,2022.2.1,Win32,59.68367651,,,,,,,,,,,,,,,,,,,,,,,,,,,,,,,,,,,,,,,,,,,,,,,,,,,,,,,,,,,,,,,,,,,,,,,,,,,,,,,,,,"[9,5,2,3,6,4,1,7,8]",8,0,8,0,1,,,,,,,,,,,,,,,,,,,,,,,,,,,,,,,,,,,,,,,,,,,,,,,,
,,6135752aa4ee5158b0708670,2022-09-08_17h27.03.719,CGTgamblingSpanTasks,2022.2.1,Win32,59.68367651,,,,,,,,,,,,,,,,,,,,,,,,,,,,,,,,,,,,,,,,,,,,,,,,,,,,,,,,,,,,,,,0,,,,,,,,,,,,,,,,,,,,,,,,,952364137,0.049479167,-0.373697917,1,0,0,cont_button,0,6,6,6,1,7,,,,,,,,,,,,,,,,,,,,,,,,,,,,,,,,,,,
,,6135752aa4ee5158b0708670,2022-09-08_17h27.03.719,CGTgamblingSpanTasks,2022.2.1,Win32,59.68367651,,,,,,,,,,,,,,,,,,,,,,,,,,,,,,,,,,,,,,,,,,,,,,,,,,,,,,,,,,,,,,,,,,,,,,,,,,,,,,,,,,"[7,1,2,8,5,4,9,3,6]",0,0,0,0,1,,,,,,,,,,,,,,,,,,,,,,,,,,,,,,,,,,,,,,,,,,,,,,,,
,,6135752aa4ee5158b0708670,2022-09-08_17h27.03.719,CGTgamblingSpanTasks,2022.2.1,Win32,59.68367651,,,,,,,,,,,,,,,,,,,,,,,,,,,,,,,,,,,,,,,,,,,,,,,,,,,,,,,,,,,,,,,,,,,,,,,,,,,,,,,,,,"[7,1,2,8,5,4,9,3,6]",1,0,1,0,1,,,,,,,,,,,,,,,,,,,,,,,,,,,,,,,,,,,,,,,,,,,,,,,,
,,6135752aa4ee5158b0708670,2022-09-08_17h27.03.719,CGTgamblingSpanTasks,2022.2.1,Win32,59.68367651,,,,,,,,,,,,,,,,,,,,,,,,,,,,,,,,,,,,,,,,,,,,,,,,,,,,,,,,,,,,,,,,,,,,,,,,,,,,,,,,,,"[7,1,2,8,5,4,9,3,6]",2,0,2,0,1,,,,,,,,,,,,,,,,,,,,,,,,,,,,,,,,,,,,,,,,,,,,,,,,
,,6135752aa4ee5158b0708670,2022-09-08_17h27.03.719,CGTgamblingSpanTasks,2022.2.1,Win32,59.68367651,,,,,,,,,,,,,,,,,,,,,,,,,,,,,,,,,,,,,,,,,,,,,,,,,,,,,,,,,,,,,,,,,,,,,,,,,,,,,,,,,,"[7,1,2,8,5,4,9,3,6]",3,0,3,0,1,,,,,,,,,,,,,,,,,,,,,,,,,,,,,,,,,,,,,,,,,,,,,,,,
,,6135752aa4ee5158b0708670,2022-09-08_17h27.03.719,CGTgamblingSpanTasks,2022.2.1,Win32,59.68367651,,,,,,,,,,,,,,,,,,,,,,,,,,,,,,,,,,,,,,,,,,,,,,,,,,,,,,,,,,,,,,,,,,,,,,,,,,,,,,,,,,"[7,1,2,8,5,4,9,3,6]",4,0,4,0,1,,,,,,,,,,,,,,,,,,,,,,,,,,,,,,,,,,,,,,,,,,,,,,,,
,,6135752aa4ee5158b0708670,2022-09-08_17h27.03.719,CGTgamblingSpanTasks,2022.2.1,Win32,59.68367651,,,,,,,,,,,,,,,,,,,,,,,,,,,,,,,,,,,,,,,,,,,,,,,,,,,,,,,,,,,,,,,,,,,,,,,,,,,,,,,,,,"[7,1,2,8,5,4,9,3,6]",5,0,5,0,1,,,,,,,,,,,,,,,,,,,,,,,,,,,,,,,,,,,,,,,,,,,,,,,,
,,6135752aa4ee5158b0708670,2022-09-08_17h27.03.719,CGTgamblingSpanTasks,2022.2.1,Win32,59.68367651,,,,,,,,,,,,,,,,,,,,,,,,,,,,,,,,,,,,,,,,,,,,,,,,,,,,,,,,,,,,,,,,,,,,,,,,,,,,,,,,,,"[7,1,2,8,5,4,9,3,6]",6,0,6,0,1,,,,,,,,,,,,,,,,,,,,,,,,,,,,,,,,,,,,,,,,,,,,,,,,
,,6135752aa4ee5158b0708670,2022-09-08_17h27.03.719,CGTgamblingSpanTasks,2022.2.1,Win32,59.68367651,,,,,,,,,,,,,,,,,,,,,,,,,,,,,,,,,,,,,,,,,,,,,,,,,,,,,,,,,,,,,,,,,,,,,,,,,,,,,,,,,,"[7,1,2,8,5,4,9,3,6]",7,0,7,0,1,,,,,,,,,,,,,,,,,,,,,,,,,,,,,,,,,,,,,,,,,,,,,,,,
,,6135752aa4ee5158b0708670,2022-09-08_17h27.03.719,CGTgamblingSpanTasks,2022.2.1,Win32,59.68367651,,,,,,,,,,,,,,,,,,,,,,,,,,,,,,,,,,,,,,,,,,,,,,,,,,,,,,,,,,,,,,,,,,,,,,,,,,,,,,,,,,"[7,1,2,8,5,4,9,3,6]",8,0,8,0,1,,,,,,,,,,,,,,,,,,,,,,,,,,,,,,,,,,,,,,,,,,,,,,,,
,,6135752aa4ee5158b0708670,2022-09-08_17h27.03.719,CGTgamblingSpanTasks,2022.2.1,Win32,59.68367651,,,,,,,,,,,,,,,,,,,,,,,,,,,,,,,,,,,,,,,,,,,,,,,,,,,,,,,,,,,,,,,0,,,,,,,,,,,,,,,,,,,,,,,,,785924381,0.049479167,-0.373697917,1,0,0,cont_button,0,7,7,7,1,8,,,,,,,,,,,,,,,,,,,,,,,,,,,,,,,,,,,
,,6135752aa4ee5158b0708670,2022-09-08_17h27.03.719,CGTgamblingSpanTasks,2022.2.1,Win32,59.68367651,,,,,,,,,,,,,,,,,,,,,,,,,,,,,,,,,,,,,,,,,,,,,,,,,,,,,,,,,,,,,,,,,,,,,,,,,,,,,,,,,,"[4,1,5,9,3,2,7,8]",0,0,0,0,1,,,,,,,,,,,,,,,,,,,,,,,,,,,,,,,,,,,,,,,,,,,,,,,,
,,6135752aa4ee5158b0708670,2022-09-08_17h27.03.719,CGTgamblingSpanTasks,2022.2.1,Win32,59.68367651,,,,,,,,,,,,,,,,,,,,,,,,,,,,,,,,,,,,,,,,,,,,,,,,,,,,,,,,,,,,,,,,,,,,,,,,,,,,,,,,,,"[4,1,5,9,3,2,7,8]",1,0,1,0,1,,,,,,,,,,,,,,,,,,,,,,,,,,,,,,,,,,,,,,,,,,,,,,,,
,,6135752aa4ee5158b0708670,2022-09-08_17h27.03.719,CGTgamblingSpanTasks,2022.2.1,Win32,59.68367651,,,,,,,,,,,,,,,,,,,,,,,,,,,,,,,,,,,,,,,,,,,,,,,,,,,,,,,,,,,,,,,,,,,,,,,,,,,,,,,,,,"[4,1,5,9,3,2,7,8]",2,0,2,0,1,,,,,,,,,,,,,,,,,,,,,,,,,,,,,,,,,,,,,,,,,,,,,,,,
,,6135752aa4ee5158b0708670,2022-09-08_17h27.03.719,CGTgamblingSpanTasks,2022.2.1,Win32,59.68367651,,,,,,,,,,,,,,,,,,,,,,,,,,,,,,,,,,,,,,,,,,,,,,,,,,,,,,,,,,,,,,,,,,,,,,,,,,,,,,,,,,"[4,1,5,9,3,2,7,8]",3,0,3,0,1,,,,,,,,,,,,,,,,,,,,,,,,,,,,,,,,,,,,,,,,,,,,,,,,
,,6135752aa4ee5158b0708670,2022-09-08_17h27.03.719,CGTgamblingSpanTasks,2022.2.1,Win32,59.68367651,,,,,,,,,,,,,,,,,,,,,,,,,,,,,,,,,,,,,,,,,,,,,,,,,,,,,,,,,,,,,,,,,,,,,,,,,,,,,,,,,,"[4,1,5,9,3,2,7,8]",4,0,4,0,1,,,,,,,,,,,,,,,,,,,,,,,,,,,,,,,,,,,,,,,,,,,,,,,,
,,6135752aa4ee5158b0708670,2022-09-08_17h27.03.719,CGTgamblingSpanTasks,2022.2.1,Win32,59.68367651,,,,,,,,,,,,,,,,,,,,,,,,,,,,,,,,,,,,,,,,,,,,,,,,,,,,,,,,,,,,,,,,,,,,,,,,,,,,,,,,,,"[4,1,5,9,3,2,7,8]",5,0,5,0,1,,,,,,,,,,,,,,,,,,,,,,,,,,,,,,,,,,,,,,,,,,,,,,,,
,,6135752aa4ee5158b0708670,2022-09-08_17h27.03.719,CGTgamblingSpanTasks,2022.2.1,Win32,59.68367651,,,,,,,,,,,,,,,,,,,,,,,,,,,,,,,,,,,,,,,,,,,,,,,,,,,,,,,,,,,,,,,,,,,,,,,,,,,,,,,,,,"[4,1,5,9,3,2,7,8]",6,0,6,0,1,,,,,,,,,,,,,,,,,,,,,,,,,,,,,,,,,,,,,,,,,,,,,,,,
,,6135752aa4ee5158b0708670,2022-09-08_17h27.03.719,CGTgamblingSpanTasks,2022.2.1,Win32,59.68367651,,,,,,,,,,,,,,,,,,,,,,,,,,,,,,,,,,,,,,,,,,,,,,,,,,,,,,,,,,,,,,,,,,,,,,,,,,,,,,,,,,"[4,1,5,9,3,2,7,8]",7,0,7,0,1,,,,,,,,,,,,,,,,,,,,,,,,,,,,,,,,,,,,,,,,,,,,,,,,
,,6135752aa4ee5158b0708670,2022-09-08_17h27.03.719,CGTgamblingSpanTasks,2022.2.1,Win32,59.68367651,,,,,,,,,,,,,,,,,,,,,,,,,,,,,,,,,,,,,,,,,,,,,,,,,,,,,,,,,,,,,,,1,,,,,,,,,,,,,,,,,,,,,,,,,41593278,0.048177083,-0.372395833,1,0,0,cont_button,0,8,8,8,1,9,,,,,,,,,,,,,,,,,,,,,,,,,,,,,,,,,,,
,,6135752aa4ee5158b0708670,2022-09-08_17h27.03.719,CGTgamblingSpanTasks,2022.2.1,Win32,59.68367651,,,,,,,,,,,,,,,,,,,,,,,,,,,,,,,,,,,,,,,,,,,,,,,,,,,,,,,,,,,,,,,,,,,,,,,,,,,,,,,,,,"[4,1,9,8,5,7,6,2,3]",0,0,0,0,1,,,,,,,,,,,,,,,,,,,,,,,,,,,,,,,,,,,,,,,,,,,,,,,,
,,6135752aa4ee5158b0708670,2022-09-08_17h27.03.719,CGTgamblingSpanTasks,2022.2.1,Win32,59.68367651,,,,,,,,,,,,,,,,,,,,,,,,,,,,,,,,,,,,,,,,,,,,,,,,,,,,,,,,,,,,,,,,,,,,,,,,,,,,,,,,,,"[4,1,9,8,5,7,6,2,3]",1,0,1,0,1,,,,,,,,,,,,,,,,,,,,,,,,,,,,,,,,,,,,,,,,,,,,,,,,
,,6135752aa4ee5158b0708670,2022-09-08_17h27.03.719,CGTgamblingSpanTasks,2022.2.1,Win32,59.68367651,,,,,,,,,,,,,,,,,,,,,,,,,,,,,,,,,,,,,,,,,,,,,,,,,,,,,,,,,,,,,,,,,,,,,,,,,,,,,,,,,,"[4,1,9,8,5,7,6,2,3]",2,0,2,0,1,,,,,,,,,,,,,,,,,,,,,,,,,,,,,,,,,,,,,,,,,,,,,,,,
,,6135752aa4ee5158b0708670,2022-09-08_17h27.03.719,CGTgamblingSpanTasks,2022.2.1,Win32,59.68367651,,,,,,,,,,,,,,,,,,,,,,,,,,,,,,,,,,,,,,,,,,,,,,,,,,,,,,,,,,,,,,,,,,,,,,,,,,,,,,,,,,"[4,1,9,8,5,7,6,2,3]",3,0,3,0,1,,,,,,,,,,,,,,,,,,,,,,,,,,,,,,,,,,,,,,,,,,,,,,,,
,,6135752aa4ee5158b0708670,2022-09-08_17h27.03.719,CGTgamblingSpanTasks,2022.2.1,Win32,59.68367651,,,,,,,,,,,,,,,,,,,,,,,,,,,,,,,,,,,,,,,,,,,,,,,,,,,,,,,,,,,,,,,,,,,,,,,,,,,,,,,,,,"[4,1,9,8,5,7,6,2,3]",4,0,4,0,1,,,,,,,,,,,,,,,,,,,,,,,,,,,,,,,,,,,,,,,,,,,,,,,,
,,6135752aa4ee5158b0708670,2022-09-08_17h27.03.719,CGTgamblingSpanTasks,2022.2.1,Win32,59.68367651,,,,,,,,,,,,,,,,,,,,,,,,,,,,,,,,,,,,,,,,,,,,,,,,,,,,,,,,,,,,,,,,,,,,,,,,,,,,,,,,,,"[4,1,9,8,5,7,6,2,3]",5,0,5,0,1,,,,,,,,,,,,,,,,,,,,,,,,,,,,,,,,,,,,,,,,,,,,,,,,
,,6135752aa4ee5158b0708670,2022-09-08_17h27.03.719,CGTgamblingSpanTasks,2022.2.1,Win32,59.68367651,,,,,,,,,,,,,,,,,,,,,,,,,,,,,,,,,,,,,,,,,,,,,,,,,,,,,,,,,,,,,,,,,,,,,,,,,,,,,,,,,,"[4,1,9,8,5,7,6,2,3]",6,0,6,0,1,,,,,,,,,,,,,,,,,,,,,,,,,,,,,,,,,,,,,,,,,,,,,,,,
,,6135752aa4ee5158b0708670,2022-09-08_17h27.03.719,CGTgamblingSpanTasks,2022.2.1,Win32,59.68367651,,,,,,,,,,,,,,,,,,,,,,,,,,,,,,,,,,,,,,,,,,,,,,,,,,,,,,,,,,,,,,,,,,,,,,,,,,,,,,,,,,"[4,1,9,8,5,7,6,2,3]",7,0,7,0,1,,,,,,,,,,,,,,,,,,,,,,,,,,,,,,,,,,,,,,,,,,,,,,,,
,,6135752aa4ee5158b0708670,2022-09-08_17h27.03.719,CGTgamblingSpanTasks,2022.2.1,Win32,59.68367651,,,,,,,,,,,,,,,,,,,,,,,,,,,,,,,,,,,,,,,,,,,,,,,,,,,,,,,,,,,,,,,,,,,,,,,,,,,,,,,,,,"[4,1,9,8,5,7,6,2,3]",8,0,8,0,1,,,,,,,,,,,,,,,,,,,,,,,,,,,,,,,,,,,,,,,,,,,,,,,,
,,6135752aa4ee5158b0708670,2022-09-08_17h27.03.719,CGTgamblingSpanTasks,2022.2.1,Win32,59.68367651,,,,,,,,,,,,,,,,,,,,,,,,,,,,,,,,,,,,,,,,,,,,,,,,,,,,,,,,,,,,,,,1,,,,,,,,,,,,,,,,,,,,,,,,,419857623,0.048177083,-0.37109375,1,0,0,cont_button,0,9,9,9,1,10,,,,,,,,,,,,,,,,,,,,,,,,,,,,,,,,,,,
,,6135752aa4ee5158b0708670,2022-09-08_17h27.03.719,CGTgamblingSpanTasks,2022.2.1,Win32,59.68367651,,,,,,,,,,,,,,,,,,,,,,,,,,,,,,,,,,,,,,,,,,,,,,,,,,,,,,,,,,,,,,,,,,,,,,,,,,,,,,,,,,"[5,7,8,6,3,2,4,9,1,1]",0,0,0,0,1,,,,,,,,,,,,,,,,,,,,,,,,,,,,,,,,,,,,,,,,,,,,,,,,
,,6135752aa4ee5158b0708670,2022-09-08_17h27.03.719,CGTgamblingSpanTasks,2022.2.1,Win32,59.68367651,,,,,,,,,,,,,,,,,,,,,,,,,,,,,,,,,,,,,,,,,,,,,,,,,,,,,,,,,,,,,,,,,,,,,,,,,,,,,,,,,,"[5,7,8,6,3,2,4,9,1,1]",1,0,1,0,1,,,,,,,,,,,,,,,,,,,,,,,,,,,,,,,,,,,,,,,,,,,,,,,,
,,6135752aa4ee5158b0708670,2022-09-08_17h27.03.719,CGTgamblingSpanTasks,2022.2.1,Win32,59.68367651,,,,,,,,,,,,,,,,,,,,,,,,,,,,,,,,,,,,,,,,,,,,,,,,,,,,,,,,,,,,,,,,,,,,,,,,,,,,,,,,,,"[5,7,8,6,3,2,4,9,1,1]",2,0,2,0,1,,,,,,,,,,,,,,,,,,,,,,,,,,,,,,,,,,,,,,,,,,,,,,,,
,,6135752aa4ee5158b0708670,2022-09-08_17h27.03.719,CGTgamblingSpanTasks,2022.2.1,Win32,59.68367651,,,,,,,,,,,,,,,,,,,,,,,,,,,,,,,,,,,,,,,,,,,,,,,,,,,,,,,,,,,,,,,,,,,,,,,,,,,,,,,,,,"[5,7,8,6,3,2,4,9,1,1]",3,0,3,0,1,,,,,,,,,,,,,,,,,,,,,,,,,,,,,,,,,,,,,,,,,,,,,,,,
,,6135752aa4ee5158b0708670,2022-09-08_17h27.03.719,CGTgamblingSpanTasks,2022.2.1,Win32,59.68367651,,,,,,,,,,,,,,,,,,,,,,,,,,,,,,,,,,,,,,,,,,,,,,,,,,,,,,,,,,,,,,,,,,,,,,,,,,,,,,,,,,"[5,7,8,6,3,2,4,9,1,1]",4,0,4,0,1,,,,,,,,,,,,,,,,,,,,,,,,,,,,,,,,,,,,,,,,,,,,,,,,
,,6135752aa4ee5158b0708670,2022-09-08_17h27.03.719,CGTgamblingSpanTasks,2022.2.1,Win32,59.68367651,,,,,,,,,,,,,,,,,,,,,,,,,,,,,,,,,,,,,,,,,,,,,,,,,,,,,,,,,,,,,,,,,,,,,,,,,,,,,,,,,,"[5,7,8,6,3,2,4,9,1,1]",5,0,5,0,1,,,,,,,,,,,,,,,,,,,,,,,,,,,,,,,,,,,,,,,,,,,,,,,,
,,6135752aa4ee5158b0708670,2022-09-08_17h27.03.719,CGTgamblingSpanTasks,2022.2.1,Win32,59.68367651,,,,,,,,,,,,,,,,,,,,,,,,,,,,,,,,,,,,,,,,,,,,,,,,,,,,,,,,,,,,,,,,,,,,,,,,,,,,,,,,,,"[5,7,8,6,3,2,4,9,1,1]",6,0,6,0,1,,,,,,,,,,,,,,,,,,,,,,,,,,,,,,,,,,,,,,,,,,,,,,,,
,,6135752aa4ee5158b0708670,2022-09-08_17h27.03.719,CGTgamblingSpanTasks,2022.2.1,Win32,59.68367651,,,,,,,,,,,,,,,,,,,,,,,,,,,,,,,,,,,,,,,,,,,,,,,,,,,,,,,,,,,,,,,,,,,,,,,,,,,,,,,,,,"[5,7,8,6,3,2,4,9,1,1]",7,0,7,0,1,,,,,,,,,,,,,,,,,,,,,,,,,,,,,,,,,,,,,,,,,,,,,,,,
,,6135752aa4ee5158b0708670,2022-09-08_17h27.03.719,CGTgamblingSpanTasks,2022.2.1,Win32,59.68367651,,,,,,,,,,,,,,,,,,,,,,,,,,,,,,,,,,,,,,,,,,,,,,,,,,,,,,,,,,,,,,,,,,,,,,,,,,,,,,,,,,"[5,7,8,6,3,2,4,9,1,1]",8,0,8,0,1,,,,,,,,,,,,,,,,,,,,,,,,,,,,,,,,,,,,,,,,,,,,,,,,
,,6135752aa4ee5158b0708670,2022-09-08_17h27.03.719,CGTgamblingSpanTasks,2022.2.1,Win32,59.68367651,,,,,,,,,,,,,,,,,,,,,,,,,,,,,,,,,,,,,,,,,,,,,,,,,,,,,,,,,,,,,,,,,,,,,,,,,,,,,,,,,,"[5,7,8,6,3,2,4,9,1,1]",9,0,9,0,1,,,,,,,,,,,,,,,,,,,,,,,,,,,,,,,,,,,,,,,,,,,,,,,,
,,6135752aa4ee5158b0708670,2022-09-08_17h27.03.719,CGTgamblingSpanTasks,2022.2.1,Win32,59.68367651,,,,,,,,,,,,,,,,,,,,,,,,,,,,,,,,,,,,,,,,,,,,,,,,,,,,,,,,,,,,,,,0,,,,,,,,,,,,,,,,,,,,,,,,,578632911,0.048177083,-0.37109375,1,0,0,cont_button,0,10,10,10,1,11,,,,,,,,,,,,,,,,,,,,,,,,,,,,,,,,,,,
,,6135752aa4ee5158b0708670,2022-09-08_17h27.03.719,CGTgamblingSpanTasks,2022.2.1,Win32,59.68367651,,,,,,,,,,,,,,,,,,,,,,,,,,,,,,,,,,,,,,,,,,,,,,,,,,,,,,,,,,,,,,,,,,,,,,,,,,,,,,,,,,"[7,4,6,8,9,2,3,1,5,5]",0,0,0,0,1,,,,,,,,,,,,,,,,,,,,,,,,,,,,,,,,,,,,,,,,,,,,,,,,
,,6135752aa4ee5158b0708670,2022-09-08_17h27.03.719,CGTgamblingSpanTasks,2022.2.1,Win32,59.68367651,,,,,,,,,,,,,,,,,,,,,,,,,,,,,,,,,,,,,,,,,,,,,,,,,,,,,,,,,,,,,,,,,,,,,,,,,,,,,,,,,,"[7,4,6,8,9,2,3,1,5,5]",1,0,1,0,1,,,,,,,,,,,,,,,,,,,,,,,,,,,,,,,,,,,,,,,,,,,,,,,,
,,6135752aa4ee5158b0708670,2022-09-08_17h27.03.719,CGTgamblingSpanTasks,2022.2.1,Win32,59.68367651,,,,,,,,,,,,,,,,,,,,,,,,,,,,,,,,,,,,,,,,,,,,,,,,,,,,,,,,,,,,,,,,,,,,,,,,,,,,,,,,,,"[7,4,6,8,9,2,3,1,5,5]",2,0,2,0,1,,,,,,,,,,,,,,,,,,,,,,,,,,,,,,,,,,,,,,,,,,,,,,,,
,,6135752aa4ee5158b0708670,2022-09-08_17h27.03.719,CGTgamblingSpanTasks,2022.2.1,Win32,59.68367651,,,,,,,,,,,,,,,,,,,,,,,,,,,,,,,,,,,,,,,,,,,,,,,,,,,,,,,,,,,,,,,,,,,,,,,,,,,,,,,,,,"[7,4,6,8,9,2,3,1,5,5]",3,0,3,0,1,,,,,,,,,,,,,,,,,,,,,,,,,,,,,,,,,,,,,,,,,,,,,,,,
,,6135752aa4ee5158b0708670,2022-09-08_17h27.03.719,CGTgamblingSpanTasks,2022.2.1,Win32,59.68367651,,,,,,,,,,,,,,,,,,,,,,,,,,,,,,,,,,,,,,,,,,,,,,,,,,,,,,,,,,,,,,,,,,,,,,,,,,,,,,,,,,"[7,4,6,8,9,2,3,1,5,5]",4,0,4,0,1,,,,,,,,,,,,,,,,,,,,,,,,,,,,,,,,,,,,,,,,,,,,,,,,
,,6135752aa4ee5158b0708670,2022-09-08_17h27.03.719,CGTgamblingSpanTasks,2022.2.1,Win32,59.68367651,,,,,,,,,,,,,,,,,,,,,,,,,,,,,,,,,,,,,,,,,,,,,,,,,,,,,,,,,,,,,,,,,,,,,,,,,,,,,,,,,,"[7,4,6,8,9,2,3,1,5,5]",5,0,5,0,1,,,,,,,,,,,,,,,,,,,,,,,,,,,,,,,,,,,,,,,,,,,,,,,,
,,6135752aa4ee5158b0708670,2022-09-08_17h27.03.719,CGTgamblingSpanTasks,2022.2.1,Win32,59.68367651,,,,,,,,,,,,,,,,,,,,,,,,,,,,,,,,,,,,,,,,,,,,,,,,,,,,,,,,,,,,,,,,,,,,,,,,,,,,,,,,,,"[7,4,6,8,9,2,3,1,5,5]",6,0,6,0,1,,,,,,,,,,,,,,,,,,,,,,,,,,,,,,,,,,,,,,,,,,,,,,,,
,,6135752aa4ee5158b0708670,2022-09-08_17h27.03.719,CGTgamblingSpanTasks,2022.2.1,Win32,59.68367651,,,,,,,,,,,,,,,,,,,,,,,,,,,,,,,,,,,,,,,,,,,,,,,,,,,,,,,,,,,,,,,,,,,,,,,,,,,,,,,,,,"[7,4,6,8,9,2,3,1,5,5]",7,0,7,0,1,,,,,,,,,,,,,,,,,,,,,,,,,,,,,,,,,,,,,,,,,,,,,,,,
,,6135752aa4ee5158b0708670,2022-09-08_17h27.03.719,CGTgamblingSpanTasks,2022.2.1,Win32,59.68367651,,,,,,,,,,,,,,,,,,,,,,,,,,,,,,,,,,,,,,,,,,,,,,,,,,,,,,,,,,,,,,,,,,,,,,,,,,,,,,,,,,"[7,4,6,8,9,2,3,1,5,5]",8,0,8,0,1,,,,,,,,,,,,,,,,,,,,,,,,,,,,,,,,,,,,,,,,,,,,,,,,
,,6135752aa4ee5158b0708670,2022-09-08_17h27.03.719,CGTgamblingSpanTasks,2022.2.1,Win32,59.68367651,,,,,,,,,,,,,,,,,,,,,,,,,,,,,,,,,,,,,,,,,,,,,,,,,,,,,,,,,,,,,,,,,,,,,,,,,,,,,,,,,,"[7,4,6,8,9,2,3,1,5,5]",9,0,9,0,1,,,,,,,,,,,,,,,,,,,,,,,,,,,,,,,,,,,,,,,,,,,,,,,,
,,6135752aa4ee5158b0708670,2022-09-08_17h27.03.719,CGTgamblingSpanTasks,2022.2.1,Win32,59.68367651,,,,,,,,,,,,,,,,,,,,,,,,,,,,,,,,,,,,,,,,,,,,,,,,,,,,,,,,,,,,,,,1,,,,,,,,,,,,,,,,,,,,,,,,,7468923155,-0.05859375,-0.397135417,1,0,0,cont_button,0,11,11,11,1,12,,,,,,,,,,,,,,,,,,,,,,,,,,,,,,,,,,,
,,6135752aa4ee5158b0708670,2022-09-08_17h27.03.719,CGTgamblingSpanTasks,2022.2.1,Win32,59.68367651,,,,,,,,,,,,,,,,,,,,,,,,,,,,,,,,,,,,,,,,,,,,,,,,,,,,,,,,,,,,,,,,,,,,,,,,,,,,,,,,,,"[5,4,6,2,1,3,8,7,9,9,7]",0,0,0,0,1,,,,,,,,,,,,,,,,,,,,,,,,,,,,,,,,,,,,,,,,,,,,,,,,
,,6135752aa4ee5158b0708670,2022-09-08_17h27.03.719,CGTgamblingSpanTasks,2022.2.1,Win32,59.68367651,,,,,,,,,,,,,,,,,,,,,,,,,,,,,,,,,,,,,,,,,,,,,,,,,,,,,,,,,,,,,,,,,,,,,,,,,,,,,,,,,,"[5,4,6,2,1,3,8,7,9,9,7]",1,0,1,0,1,,,,,,,,,,,,,,,,,,,,,,,,,,,,,,,,,,,,,,,,,,,,,,,,
,,6135752aa4ee5158b0708670,2022-09-08_17h27.03.719,CGTgamblingSpanTasks,2022.2.1,Win32,59.68367651,,,,,,,,,,,,,,,,,,,,,,,,,,,,,,,,,,,,,,,,,,,,,,,,,,,,,,,,,,,,,,,,,,,,,,,,,,,,,,,,,,"[5,4,6,2,1,3,8,7,9,9,7]",2,0,2,0,1,,,,,,,,,,,,,,,,,,,,,,,,,,,,,,,,,,,,,,,,,,,,,,,,
,,6135752aa4ee5158b0708670,2022-09-08_17h27.03.719,CGTgamblingSpanTasks,2022.2.1,Win32,59.68367651,,,,,,,,,,,,,,,,,,,,,,,,,,,,,,,,,,,,,,,,,,,,,,,,,,,,,,,,,,,,,,,,,,,,,,,,,,,,,,,,,,"[5,4,6,2,1,3,8,7,9,9,7]",3,0,3,0,1,,,,,,,,,,,,,,,,,,,,,,,,,,,,,,,,,,,,,,,,,,,,,,,,
,,6135752aa4ee5158b0708670,2022-09-08_17h27.03.719,CGTgamblingSpanTasks,2022.2.1,Win32,59.68367651,,,,,,,,,,,,,,,,,,,,,,,,,,,,,,,,,,,,,,,,,,,,,,,,,,,,,,,,,,,,,,,,,,,,,,,,,,,,,,,,,,"[5,4,6,2,1,3,8,7,9,9,7]",4,0,4,0,1,,,,,,,,,,,,,,,,,,,,,,,,,,,,,,,,,,,,,,,,,,,,,,,,
,,6135752aa4ee5158b0708670,2022-09-08_17h27.03.719,CGTgamblingSpanTasks,2022.2.1,Win32,59.68367651,,,,,,,,,,,,,,,,,,,,,,,,,,,,,,,,,,,,,,,,,,,,,,,,,,,,,,,,,,,,,,,,,,,,,,,,,,,,,,,,,,"[5,4,6,2,1,3,8,7,9,9,7]",5,0,5,0,1,,,,,,,,,,,,,,,,,,,,,,,,,,,,,,,,,,,,,,,,,,,,,,,,
,,6135752aa4ee5158b0708670,2022-09-08_17h27.03.719,CGTgamblingSpanTasks,2022.2.1,Win32,59.68367651,,,,,,,,,,,,,,,,,,,,,,,,,,,,,,,,,,,,,,,,,,,,,,,,,,,,,,,,,,,,,,,,,,,,,,,,,,,,,,,,,,"[5,4,6,2,1,3,8,7,9,9,7]",6,0,6,0,1,,,,,,,,,,,,,,,,,,,,,,,,,,,,,,,,,,,,,,,,,,,,,,,,
,,6135752aa4ee5158b0708670,2022-09-08_17h27.03.719,CGTgamblingSpanTasks,2022.2.1,Win32,59.68367651,,,,,,,,,,,,,,,,,,,,,,,,,,,,,,,,,,,,,,,,,,,,,,,,,,,,,,,,,,,,,,,,,,,,,,,,,,,,,,,,,,"[5,4,6,2,1,3,8,7,9,9,7]",7,0,7,0,1,,,,,,,,,,,,,,,,,,,,,,,,,,,,,,,,,,,,,,,,,,,,,,,,
,,6135752aa4ee5158b0708670,2022-09-08_17h27.03.719,CGTgamblingSpanTasks,2022.2.1,Win32,59.68367651,,,,,,,,,,,,,,,,,,,,,,,,,,,,,,,,,,,,,,,,,,,,,,,,,,,,,,,,,,,,,,,,,,,,,,,,,,,,,,,,,,"[5,4,6,2,1,3,8,7,9,9,7]",8,0,8,0,1,,,,,,,,,,,,,,,,,,,,,,,,,,,,,,,,,,,,,,,,,,,,,,,,
,,6135752aa4ee5158b0708670,2022-09-08_17h27.03.719,CGTgamblingSpanTasks,2022.2.1,Win32,59.68367651,,,,,,,,,,,,,,,,,,,,,,,,,,,,,,,,,,,,,,,,,,,,,,,,,,,,,,,,,,,,,,,,,,,,,,,,,,,,,,,,,,"[5,4,6,2,1,3,8,7,9,9,7]",9,0,9,0,1,,,,,,,,,,,,,,,,,,,,,,,,,,,,,,,,,,,,,,,,,,,,,,,,
,,6135752aa4ee5158b0708670,2022-09-08_17h27.03.719,CGTgamblingSpanTasks,2022.2.1,Win32,59.68367651,,,,,,,,,,,,,,,,,,,,,,,,,,,,,,,,,,,,,,,,,,,,,,,,,,,,,,,,,,,,,,,,,,,,,,,,,,,,,,,,,,"[5,4,6,2,1,3,8,7,9,9,7]",10,0,10,0,1,,,,,,,,,,,,,,,,,,,,,,,,,,,,,,,,,,,,,,,,,,,,,,,,
,,6135752aa4ee5158b0708670,2022-09-08_17h27.03.719,CGTgamblingSpanTasks,2022.2.1,Win32,59.68367651,,,,,,,,,,,,,,,,,,,,,,,,,,,,,,,,,,,,,,,,,,,,,,,,,,,,,,,,,,,,,,,0,,,,,,,,,,,,,,,,,,,,,,,,,462138797,-0.041666667,-0.41796875,1,0,0,cont_button,0,12,12,12,1,13,,,,,,,,,,,,,,,,,,,,,,,,,,,,,,,,,,,
,,6135752aa4ee5158b0708670,2022-09-08_17h27.03.719,CGTgamblingSpanTasks,2022.2.1,Win32,59.68367651,,,,,,,,,,,,,,,,,,,,,,,,,,,,,,,,,,,,,,,,,,,,,,,,,,,,,,,,,,,,,,,,,,,,,,,,,,,,,,,,,,"[2,3,1,4,6,9,7,5,8,8,5]",0,0,0,0,1,,,,,,,,,,,,,,,,,,,,,,,,,,,,,,,,,,,,,,,,,,,,,,,,
,,6135752aa4ee5158b0708670,2022-09-08_17h27.03.719,CGTgamblingSpanTasks,2022.2.1,Win32,59.68367651,,,,,,,,,,,,,,,,,,,,,,,,,,,,,,,,,,,,,,,,,,,,,,,,,,,,,,,,,,,,,,,,,,,,,,,,,,,,,,,,,,"[2,3,1,4,6,9,7,5,8,8,5]",1,0,1,0,1,,,,,,,,,,,,,,,,,,,,,,,,,,,,,,,,,,,,,,,,,,,,,,,,
,,6135752aa4ee5158b0708670,2022-09-08_17h27.03.719,CGTgamblingSpanTasks,2022.2.1,Win32,59.68367651,,,,,,,,,,,,,,,,,,,,,,,,,,,,,,,,,,,,,,,,,,,,,,,,,,,,,,,,,,,,,,,,,,,,,,,,,,,,,,,,,,"[2,3,1,4,6,9,7,5,8,8,5]",2,0,2,0,1,,,,,,,,,,,,,,,,,,,,,,,,,,,,,,,,,,,,,,,,,,,,,,,,
,,6135752aa4ee5158b0708670,2022-09-08_17h27.03.719,CGTgamblingSpanTasks,2022.2.1,Win32,59.68367651,,,,,,,,,,,,,,,,,,,,,,,,,,,,,,,,,,,,,,,,,,,,,,,,,,,,,,,,,,,,,,,,,,,,,,,,,,,,,,,,,,"[2,3,1,4,6,9,7,5,8,8,5]",3,0,3,0,1,,,,,,,,,,,,,,,,,,,,,,,,,,,,,,,,,,,,,,,,,,,,,,,,
,,6135752aa4ee5158b0708670,2022-09-08_17h27.03.719,CGTgamblingSpanTasks,2022.2.1,Win32,59.68367651,,,,,,,,,,,,,,,,,,,,,,,,,,,,,,,,,,,,,,,,,,,,,,,,,,,,,,,,,,,,,,,,,,,,,,,,,,,,,,,,,,"[2,3,1,4,6,9,7,5,8,8,5]",4,0,4,0,1,,,,,,,,,,,,,,,,,,,,,,,,,,,,,,,,,,,,,,,,,,,,,,,,
,,6135752aa4ee5158b0708670,2022-09-08_17h27.03.719,CGTgamblingSpanTasks,2022.2.1,Win32,59.68367651,,,,,,,,,,,,,,,,,,,,,,,,,,,,,,,,,,,,,,,,,,,,,,,,,,,,,,,,,,,,,,,,,,,,,,,,,,,,,,,,,,"[2,3,1,4,6,9,7,5,8,8,5]",5,0,5,0,1,,,,,,,,,,,,,,,,,,,,,,,,,,,,,,,,,,,,,,,,,,,,,,,,
,,6135752aa4ee5158b0708670,2022-09-08_17h27.03.719,CGTgamblingSpanTasks,2022.2.1,Win32,59.68367651,,,,,,,,,,,,,,,,,,,,,,,,,,,,,,,,,,,,,,,,,,,,,,,,,,,,,,,,,,,,,,,,,,,,,,,,,,,,,,,,,,"[2,3,1,4,6,9,7,5,8,8,5]",6,0,6,0,1,,,,,,,,,,,,,,,,,,,,,,,,,,,,,,,,,,,,,,,,,,,,,,,,
,,6135752aa4ee5158b0708670,2022-09-08_17h27.03.719,CGTgamblingSpanTasks,2022.2.1,Win32,59.68367651,,,,,,,,,,,,,,,,,,,,,,,,,,,,,,,,,,,,,,,,,,,,,,,,,,,,,,,,,,,,,,,,,,,,,,,,,,,,,,,,,,"[2,3,1,4,6,9,7,5,8,8,5]",7,0,7,0,1,,,,,,,,,,,,,,,,,,,,,,,,,,,,,,,,,,,,,,,,,,,,,,,,
,,6135752aa4ee5158b0708670,2022-09-08_17h27.03.719,CGTgamblingSpanTasks,2022.2.1,Win32,59.68367651,,,,,,,,,,,,,,,,,,,,,,,,,,,,,,,,,,,,,,,,,,,,,,,,,,,,,,,,,,,,,,,,,,,,,,,,,,,,,,,,,,"[2,3,1,4,6,9,7,5,8,8,5]",8,0,8,0,1,,,,,,,,,,,,,,,,,,,,,,,,,,,,,,,,,,,,,,,,,,,,,,,,
,,6135752aa4ee5158b0708670,2022-09-08_17h27.03.719,CGTgamblingSpanTasks,2022.2.1,Win32,59.68367651,,,,,,,,,,,,,,,,,,,,,,,,,,,,,,,,,,,,,,,,,,,,,,,,,,,,,,,,,,,,,,,,,,,,,,,,,,,,,,,,,,"[2,3,1,4,6,9,7,5,8,8,5]",9,0,9,0,1,,,,,,,,,,,,,,,,,,,,,,,,,,,,,,,,,,,,,,,,,,,,,,,,
,,6135752aa4ee5158b0708670,2022-09-08_17h27.03.719,CGTgamblingSpanTasks,2022.2.1,Win32,59.68367651,,,,,,,,,,,,,,,,,,,,,,,,,,,,,,,,,,,,,,,,,,,,,,,,,,,,,,,,,,,,,,,,,,,,,,,,,,,,,,,,,,"[2,3,1,4,6,9,7,5,8,8,5]",10,0,10,0,1,,,,,,,,,,,,,,,,,,,,,,,,,,,,,,,,,,,,,,,,,,,,,,,,
,,6135752aa4ee5158b0708670,2022-09-08_17h27.03.719,CGTgamblingSpanTasks,2022.2.1,Win32,59.68367651,,,,,,,,,,,,,,,,,,,,,,,,,,,,,,,,,,,,,,,,,,,,,,,,,,,,,,,,,,,,,,,0,,,,,,,,,,,,,,,,,,,,,,,,,23146997488,-0.0390625,-0.411458333,1,0,0,cont_button,0,13,13,13,1,14,,,,,,,,,,,,,,,,,,,,,,,,,,,,,,,,,,,
,,6135752aa4ee5158b0708670,2022-09-08_17h27.03.719,CGTgamblingSpanTasks,2022.2.1,Win32,59.68367651,,,,,,,,,,,,,,,,,,,,,,,,,,,,,,,,,,,,,,,,,,,,,,,,,,,,,,,,,,,,,,,,,,,,,,,,,,,,,,,,,,,,,,,,,,,,,,,,,,,,,return,4.534,,,,,,,,,,,,,,,,,,,,,,,,,,,,,,,,,
,,6135752aa4ee5158b0708670,2022-09-08_17h27.03.719,CGTgamblingSpanTasks,2022.2.1,Win32,59.68367651,,,,,,,,,,,,,,,,,,,,,,,,,,,,,,,,,,,,,,,,,,,,,,,,,,,,,,,,,,,,,,,,,,,,,,,,,,,,,,,,,,,,,,,,,,,,,,,,,,,,,,,return,7.0296,,,,,,,,,,,,,,,,,,,,,,,,,,,,,,,
,,6135752aa4ee5158b0708670,2022-09-08_17h27.03.719,CGTgamblingSpanTasks,2022.2.1,Win32,59.68367651,,,,,,,,,,,,,,,,,,,,,,,,,,,,,,,,,,,,,,,,,,,,,,,,,,,,,,,,,,,,,,,1,,,,,,,,,,,,3,342,24,2,42,,,,,,,,,,,,,,,,,,,,,,,,,,42,0.03515625,-0.376302083,1,0,0,cont_buttonPractice_2,0,0,0,0,1,,,,,,,,,,,,,,,,,,,
,,6135752aa4ee5158b0708670,2022-09-08_17h27.03.719,CGTgamblingSpanTasks,2022.2.1,Win32,59.68367651,,,,,,,,,,,,,,,,,,,,,,,,,,,,,,,,,,,,,,,,,,,,,,,,,,,,,,,,,,,,,,,1,,,,,,,,,,,,3,937,73,2,37,,,,,,,,,,,,,,,,,,,,,,,,,,37,-0.02734375,-0.40625,1,0,0,cont_buttonPractice_2,0,1,1,1,1,,,,,,,,,,,,,,,,,,,
,,6135752aa4ee5158b0708670,2022-09-08_17h27.03.719,CGTgamblingSpanTasks,2022.2.1,Win32,59.68367651,,,,,,,,,,,,,,,,,,,,,,,,,,,,,,,,,,,,,,,,,,,,,,,,,,,,,,,,,,,,,,,,,,,,,,,,,,,,,,,,,,,,,,,,,,,,,,,,,,,,,,,,,,,,,,,,,,,,,return,1.3911,,,,,,,,,,,,,,,,,
,,6135752aa4ee5158b0708670,2022-09-08_17h27.03.719,CGTgamblingSpanTasks,2022.2.1,Win32,59.68367651,,,,,,,,,,,,,,,,,,,,,,,,,,,,,,,,,,,,,,,,,,,,,,,,,,,,,,,,,,,,,,,,,,,,,,,,,,,,,,,,,,"[1,8]",,,,,,,,,,,,,,,,,,,,,,,,,,,,,,,,,,,,,0,0,0,0,1,,,,,,,,,,,,
,,6135752aa4ee5158b0708670,2022-09-08_17h27.03.719,CGTgamblingSpanTasks,2022.2.1,Win32,59.68367651,,,,,,,,,,,,,,,,,,,,,,,,,,,,,,,,,,,,,,,,,,,,,,,,,,,,,,,,,,,,,,,,,,,,,,,,,,,,,,,,,,"[1,8]",,,,,,,,,,,,,,,,,,,,,,,,,,,,,,,,,,,,,1,0,1,0,1,,,,,,,,,,,,
,,6135752aa4ee5158b0708670,2022-09-08_17h27.03.719,CGTgamblingSpanTasks,2022.2.1,Win32,59.68367651,,,,,,,,,,,,,,,,,,,,,,,,,,,,,,,,,,,,,,,,,,,,,,,,,,,,,,,,,,,,,,,1,,,,,,,,,,,,,,,,,,,,,,,,,,,,,,,,,,,,,1,,,,,,,,,,,,,,,,,,,,,,,,81,0.028645833,-0.424479167,1,0,0,cont_buttonBS,0,0,0,0,1
,,6135752aa4ee5158b0708670,2022-09-08_17h27.03.719,CGTgamblingSpanTasks,2022.2.1,Win32,59.68367651,,,,,,,,,,,,,,,,,,,,,,,,,,,,,,,,,,,,,,,,,,,,,,,,,,,,,,,,,,,,,,,,,,,,,,,,,,,,,,,,,,"[7,6,3]",,,,,,,,,,,,,,,,,,,,,,,,,,,,,,,,,,,,,0,0,0,0,1,,,,,,,,,,,,
,,6135752aa4ee5158b0708670,2022-09-08_17h27.03.719,CGTgamblingSpanTasks,2022.2.1,Win32,59.68367651,,,,,,,,,,,,,,,,,,,,,,,,,,,,,,,,,,,,,,,,,,,,,,,,,,,,,,,,,,,,,,,,,,,,,,,,,,,,,,,,,,"[7,6,3]",,,,,,,,,,,,,,,,,,,,,,,,,,,,,,,,,,,,,1,0,1,0,1,,,,,,,,,,,,
,,6135752aa4ee5158b0708670,2022-09-08_17h27.03.719,CGTgamblingSpanTasks,2022.2.1,Win32,59.68367651,,,,,,,,,,,,,,,,,,,,,,,,,,,,,,,,,,,,,,,,,,,,,,,,,,,,,,,,,,,,,,,,,,,,,,,,,,,,,,,,,,"[7,6,3]",,,,,,,,,,,,,,,,,,,,,,,,,,,,,,,,,,,,,2,0,2,0,1,,,,,,,,,,,,
,,6135752aa4ee5158b0708670,2022-09-08_17h27.03.719,CGTgamblingSpanTasks,2022.2.1,Win32,59.68367651,,,,,,,,,,,,,,,,,,,,,,,,,,,,,,,,,,,,,,,,,,,,,,,,,,,,,,,,,,,,,,,1,,,,,,,,,,,,,,,,,,,,,,,,,,,,,,,,,,,,,2,,,,,,,,,,,,,,,,,,,,,,,,367,-0.015625,-0.408854167,1,0,0,cont_buttonBS,0,1,1,1,1
,,6135752aa4ee5158b0708670,2022-09-08_17h27.03.719,CGTgamblingSpanTasks,2022.2.1,Win32,59.68367651,,,,,,,,,,,,,,,,,,,,,,,,,,,,,,,,,,,,,,,,,,,,,,,,,,,,,,,,,,,,,,,,,,,,,,,,,,,,,,,,,,"[6,4,7,1]",,,,,,,,,,,,,,,,,,,,,,,,,,,,,,,,,,,,,0,0,0,0,1,,,,,,,,,,,,
,,6135752aa4ee5158b0708670,2022-09-08_17h27.03.719,CGTgamblingSpanTasks,2022.2.1,Win32,59.68367651,,,,,,,,,,,,,,,,,,,,,,,,,,,,,,,,,,,,,,,,,,,,,,,,,,,,,,,,,,,,,,,,,,,,,,,,,,,,,,,,,,"[6,4,7,1]",,,,,,,,,,,,,,,,,,,,,,,,,,,,,,,,,,,,,1,0,1,0,1,,,,,,,,,,,,
,,6135752aa4ee5158b0708670,2022-09-08_17h27.03.719,CGTgamblingSpanTasks,2022.2.1,Win32,59.68367651,,,,,,,,,,,,,,,,,,,,,,,,,,,,,,,,,,,,,,,,,,,,,,,,,,,,,,,,,,,,,,,,,,,,,,,,,,,,,,,,,,"[6,4,7,1]",,,,,,,,,,,,,,,,,,,,,,,,,,,,,,,,,,,,,2,0,2,0,1,,,,,,,,,,,,
,,6135752aa4ee5158b0708670,2022-09-08_17h27.03.719,CGTgamblingSpanTasks,2022.2.1,Win32,59.68367651,,,,,,,,,,,,,,,,,,,,,,,,,,,,,,,,,,,,,,,,,,,,,,,,,,,,,,,,,,,,,,,,,,,,,,,,,,,,,,,,,,"[6,4,7,1]",,,,,,,,,,,,,,,,,,,,,,,,,,,,,,,,,,,,,3,0,3,0,1,,,,,,,,,,,,
,,6135752aa4ee5158b0708670,2022-09-08_17h27.03.719,CGTgamblingSpanTasks,2022.2.1,Win32,59.68367651,,,,,,,,,,,,,,,,,,,,,,,,,,,,,,,,,,,,,,,,,,,,,,,,,,,,,,,,,,,,,,,1,,,,,,,,,,,,,,,,,,,,,,,,,,,,,,,,,,,,,3,,,,,,,,,,,,,,,,,,,,,,,,1746,0.024739583,-0.376302083,1,0,0,cont_buttonBS,0,2,2,2,1
,,6135752aa4ee5158b0708670,2022-09-08_17h27.03.719,CGTgamblingSpanTasks,2022.2.1,Win32,59.68367651,,,,,,,,,,,,,,,,,,,,,,,,,,,,,,,,,,,,,,,,,,,,,,,,,,,,,,,,,,,,,,,,,,,,,,,,,,,,,,,,,,"[7,5,9,4,8]",,,,,,,,,,,,,,,,,,,,,,,,,,,,,,,,,,,,,0,0,0,0,1,,,,,,,,,,,,
,,6135752aa4ee5158b0708670,2022-09-08_17h27.03.719,CGTgamblingSpanTasks,2022.2.1,Win32,59.68367651,,,,,,,,,,,,,,,,,,,,,,,,,,,,,,,,,,,,,,,,,,,,,,,,,,,,,,,,,,,,,,,,,,,,,,,,,,,,,,,,,,"[7,5,9,4,8]",,,,,,,,,,,,,,,,,,,,,,,,,,,,,,,,,,,,,1,0,1,0,1,,,,,,,,,,,,
,,6135752aa4ee5158b0708670,2022-09-08_17h27.03.719,CGTgamblingSpanTasks,2022.2.1,Win32,59.68367651,,,,,,,,,,,,,,,,,,,,,,,,,,,,,,,,,,,,,,,,,,,,,,,,,,,,,,,,,,,,,,,,,,,,,,,,,,,,,,,,,,"[7,5,9,4,8]",,,,,,,,,,,,,,,,,,,,,,,,,,,,,,,,,,,,,2,0,2,0,1,,,,,,,,,,,,
,,6135752aa4ee5158b0708670,2022-09-08_17h27.03.719,CGTgamblingSpanTasks,2022.2.1,Win32,59.68367651,,,,,,,,,,,,,,,,,,,,,,,,,,,,,,,,,,,,,,,,,,,,,,,,,,,,,,,,,,,,,,,,,,,,,,,,,,,,,,,,,,"[7,5,9,4,8]",,,,,,,,,,,,,,,,,,,,,,,,,,,,,,,,,,,,,3,0,3,0,1,,,,,,,,,,,,
,,6135752aa4ee5158b0708670,2022-09-08_17h27.03.719,CGTgamblingSpanTasks,2022.2.1,Win32,59.68367651,,,,,,,,,,,,,,,,,,,,,,,,,,,,,,,,,,,,,,,,,,,,,,,,,,,,,,,,,,,,,,,,,,,,,,,,,,,,,,,,,,"[7,5,9,4,8]",,,,,,,,,,,,,,,,,,,,,,,,,,,,,,,,,,,,,4,0,4,0,1,,,,,,,,,,,,
,,6135752aa4ee5158b0708670,2022-09-08_17h27.03.719,CGTgamblingSpanTasks,2022.2.1,Win32,59.68367651,,,,,,,,,,,,,,,,,,,,,,,,,,,,,,,,,,,,,,,,,,,,,,,,,,,,,,,,,,,,,,,1,,,,,,,,,,,,,,,,,,,,,,,,,,,,,,,,,,,,,4,,,,,,,,,,,,,,,,,,,,,,,,84957,0.01953125,-0.393229167,1,0,0,cont_buttonBS,0,3,3,3,1
,,6135752aa4ee5158b0708670,2022-09-08_17h27.03.719,CGTgamblingSpanTasks,2022.2.1,Win32,59.68367651,,,,,,,,,,,,,,,,,,,,,,,,,,,,,,,,,,,,,,,,,,,,,,,,,,,,,,,,,,,,,,,,,,,,,,,,,,,,,,,,,,"[7,1,4,5,3,6]",,,,,,,,,,,,,,,,,,,,,,,,,,,,,,,,,,,,,0,0,0,0,1,,,,,,,,,,,,
,,6135752aa4ee5158b0708670,2022-09-08_17h27.03.719,CGTgamblingSpanTasks,2022.2.1,Win32,59.68367651,,,,,,,,,,,,,,,,,,,,,,,,,,,,,,,,,,,,,,,,,,,,,,,,,,,,,,,,,,,,,,,,,,,,,,,,,,,,,,,,,,"[7,1,4,5,3,6]",,,,,,,,,,,,,,,,,,,,,,,,,,,,,,,,,,,,,1,0,1,0,1,,,,,,,,,,,,
,,6135752aa4ee5158b0708670,2022-09-08_17h27.03.719,CGTgamblingSpanTasks,2022.2.1,Win32,59.68367651,,,,,,,,,,,,,,,,,,,,,,,,,,,,,,,,,,,,,,,,,,,,,,,,,,,,,,,,,,,,,,,,,,,,,,,,,,,,,,,,,,"[7,1,4,5,3,6]",,,,,,,,,,,,,,,,,,,,,,,,,,,,,,,,,,,,,2,0,2,0,1,,,,,,,,,,,,
,,6135752aa4ee5158b0708670,2022-09-08_17h27.03.719,CGTgamblingSpanTasks,2022.2.1,Win32,59.68367651,,,,,,,,,,,,,,,,,,,,,,,,,,,,,,,,,,,,,,,,,,,,,,,,,,,,,,,,,,,,,,,,,,,,,,,,,,,,,,,,,,"[7,1,4,5,3,6]",,,,,,,,,,,,,,,,,,,,,,,,,,,,,,,,,,,,,3,0,3,0,1,,,,,,,,,,,,
,,6135752aa4ee5158b0708670,2022-09-08_17h27.03.719,CGTgamblingSpanTasks,2022.2.1,Win32,59.68367651,,,,,,,,,,,,,,,,,,,,,,,,,,,,,,,,,,,,,,,,,,,,,,,,,,,,,,,,,,,,,,,,,,,,,,,,,,,,,,,,,,"[7,1,4,5,3,6]",,,,,,,,,,,,,,,,,,,,,,,,,,,,,,,,,,,,,4,0,4,0,1,,,,,,,,,,,,
,,6135752aa4ee5158b0708670,2022-09-08_17h27.03.719,CGTgamblingSpanTasks,2022.2.1,Win32,59.68367651,,,,,,,,,,,,,,,,,,,,,,,,,,,,,,,,,,,,,,,,,,,,,,,,,,,,,,,,,,,,,,,,,,,,,,,,,,,,,,,,,,"[7,1,4,5,3,6]",,,,,,,,,,,,,,,,,,,,,,,,,,,,,,,,,,,,,5,0,5,0,1,,,,,,,,,,,,
,,6135752aa4ee5158b0708670,2022-09-08_17h27.03.719,CGTgamblingSpanTasks,2022.2.1,Win32,59.68367651,,,,,,,,,,,,,,,,,,,,,,,,,,,,,,,,,,,,,,,,,,,,,,,,,,,,,,,,,,,,,,,1,,,,,,,,,,,,,,,,,,,,,,,,,,,,,,,,,,,,,5,,,,,,,,,,,,,,,,,,,,,,,,635417,0.032552083,-0.411458333,1,0,0,cont_buttonBS,0,4,4,4,1
,,6135752aa4ee5158b0708670,2022-09-08_17h27.03.719,CGTgamblingSpanTasks,2022.2.1,Win32,59.68367651,,,,,,,,,,,,,,,,,,,,,,,,,,,,,,,,,,,,,,,,,,,,,,,,,,,,,,,,,,,,,,,,,,,,,,,,,,,,,,,,,,"[8,6,3,2,4,5,7]",,,,,,,,,,,,,,,,,,,,,,,,,,,,,,,,,,,,,0,0,0,0,1,,,,,,,,,,,,
,,6135752aa4ee5158b0708670,2022-09-08_17h27.03.719,CGTgamblingSpanTasks,2022.2.1,Win32,59.68367651,,,,,,,,,,,,,,,,,,,,,,,,,,,,,,,,,,,,,,,,,,,,,,,,,,,,,,,,,,,,,,,,,,,,,,,,,,,,,,,,,,"[8,6,3,2,4,5,7]",,,,,,,,,,,,,,,,,,,,,,,,,,,,,,,,,,,,,1,0,1,0,1,,,,,,,,,,,,
,,6135752aa4ee5158b0708670,2022-09-08_17h27.03.719,CGTgamblingSpanTasks,2022.2.1,Win32,59.68367651,,,,,,,,,,,,,,,,,,,,,,,,,,,,,,,,,,,,,,,,,,,,,,,,,,,,,,,,,,,,,,,,,,,,,,,,,,,,,,,,,,"[8,6,3,2,4,5,7]",,,,,,,,,,,,,,,,,,,,,,,,,,,,,,,,,,,,,2,0,2,0,1,,,,,,,,,,,,
,,6135752aa4ee5158b0708670,2022-09-08_17h27.03.719,CGTgamblingSpanTasks,2022.2.1,Win32,59.68367651,,,,,,,,,,,,,,,,,,,,,,,,,,,,,,,,,,,,,,,,,,,,,,,,,,,,,,,,,,,,,,,,,,,,,,,,,,,,,,,,,,"[8,6,3,2,4,5,7]",,,,,,,,,,,,,,,,,,,,,,,,,,,,,,,,,,,,,3,0,3,0,1,,,,,,,,,,,,
