initITIstatic,initITIdynamic,participant,date,expName,psychopyVersion,OS,frameRate,inst1.keys,inst1.rt,startPracResp.keys,startPracResp.rt,choice1.keys,choice1.rt,outcome,extraITI,trials.thisRepN,trials.thisTrialN,trials.thisN,trials.thisIndex,trials.ran,riskyGain,riskyLoss,alternative,isi,iti,loc,postPractResp.keys,postPractResp.rt,realloc,realChoice.keys,realChoice.rt,outcomes,choices,actualITI,init ITI,staticRDM.thisRepN,staticRDM.thisTrialN,staticRDM.thisN,staticRDM.thisIndex,staticRDM.ran,riskyoption1,riskyoption2,safeoption,ischecktrial,dynamicChoiceSetName,dynamicChoiceSetPath,bestRho,bestMu,trials_2.thisRepN,trials_2.thisTrialN,trials_2.thisN,trials_2.thisIndex,trials_2.ran,key_resp.keys,key_resp.rt,dynamicRDM.thisRepN,dynamicRDM.thisTrialN,dynamicRDM.thisN,dynamicRDM.thisIndex,dynamicRDM.ran,choiceP,easy0difficult1,stopBreak.keys,stopBreak.rt,movealong.keys,movealong.rt,startPractice.keys,startPractice.rt,textboxPractice.text,correct,mousePractice.x,mousePractice.y,mousePractice.leftButton,mousePractice.midButton,mousePractice.rightButton,mousePractice.clicked_name,trialFSPractice.thisRepN,trialFSPractice.thisTrialN,trialFSPractice.thisN,trialFSPractice.thisIndex,trialFSPractice.ran,digitSpanForward,digits,digitsReverse,digitSpanReverse,digitsReverseCorrAnswer,startFSreal.keys,startFSreal.rt,digitsForTrial,digitLoop.thisRepN,digitLoop.thisTrialN,digitLoop.thisN,digitLoop.thisIndex,digitLoop.ran,textbox.text,mouse_3.x,mouse_3.y,mouse_3.leftButton,mouse_3.midButton,mouse_3.rightButton,mouse_3.clicked_name,trialsFS.thisRepN,trialsFS.thisTrialN,trialsFS.thisN,trialsFS.thisIndex,trialsFS.ran,trialNumber,moveToBS.keys,moveToBS.rt,startBSprac.keys,startBSprac.rt,textboxPractice_2.text,mousePractice_2.x,mousePractice_2.y,mousePractice_2.leftButton,mousePractice_2.midButton,mousePractice_2.rightButton,mousePractice_2.clicked_name,trialsPracticeBS.thisRepN,trialsPracticeBS.thisTrialN,trialsPracticeBS.thisN,trialsPracticeBS.thisIndex,trialsPracticeBS.ran,startBSreal.keys,startBSreal.rt,digitLoopBS.thisRepN,digitLoopBS.thisTrialN,digitLoopBS.thisN,digitLoopBS.thisIndex,digitLoopBS.ran,textboxBS.text,mouseBS.x,mouseBS.y,mouseBS.leftButton,mouseBS.midButton,mouseBS.rightButton,mouseBS.clicked_name,trialsBS.thisRepN,trialsBS.thisTrialN,trialsBS.thisN,trialsBS.thisIndex,trialsBS.ran
"[1,1,1,1.5,1.5,1.5,1.5,1,1.5,1,1.5,1.5,1.5,1.5,1,1,1.5,1,1.5,1,1,1.5,1.5,1.5,1,1.5,1.5,1,1.5,1,1,1,1,1.5,1.5,1.5,1,1,1.5,1.5,1,1,1,1,1.5,1,1.5,1,1.5,1]","[1.5,1.5,1,1,1.5,1,1,1.5,1.5,1,1,1,1,1.5,1.5,1,1.5,1.5,1,1,1.5,1,1,1.5,1.5,1,1,1,1,1,1.5,1,1,1.5,1,1.5,1.5,1,1.5,1.5,1.5,1.5,1,1,1.5,1,1,1.5,1.5,1,1.5,1,1.5,1.5,1.5,1.5,1,1.5,1,1.5,1.5,1.5,1.5,1.5,1,1.5,1.5,1,1.5,1,1.5,1.5,1.5,1.5,1.5,1,1,1.5,1.5,1,1.5,1.5,1,1,1,1.5,1,1,1,1.5,1,1,1,1.5,1.5,1,1,1.5,1.5,1,1.5,1,1,1.5,1,1,1,1.5,1.5,1,1.5,1.5,1.5,1,1,1,1,1.5,1,1]",60906c79f8cfd718d6dcb3df,2022-09-08_10h47.48.375,CGTgamblingSpanTasks,2022.2.1,Win32,138.4849744,,,,,,,,,,,,,,,,,,,,,,,,,,,,,,,,,,,,,,,,,,,,,,,,,,,,,,,,,,,,,,,,,,,,,,,,,,,,,,,,,,,,,,,,,,,,,,,,,,,,,,,,,,,,,,,,,,,,,,,,,,,,,,,,,,,,,,,
,,60906c79f8cfd718d6dcb3df,2022-09-08_10h47.48.375,CGTgamblingSpanTasks,2022.2.1,Win32,138.4849744,return,24.8927,,,,,,,,,,,,,,,,,,,,,,,,,,,,,,,,,,,,,,,,,,,,,,,,,,,,,,,,,,,,,,,,,,,,,,,,,,,,,,,,,,,,,,,,,,,,,,,,,,,,,,,,,,,,,,,,,,,,,,,,,,,,,,,,,,,,,
,,60906c79f8cfd718d6dcb3df,2022-09-08_10h47.48.375,CGTgamblingSpanTasks,2022.2.1,Win32,138.4849744,,,v,3.7243,,,,,,,,,,,,,,,,,,,,,,,,,,,,,,,,,,,,,,,,,,,,,,,,,,,,,,,,,,,,,,,,,,,,,,,,,,,,,,,,,,,,,,,,,,,,,,,,,,,,,,,,,,,,,,,,,,,,,,,,,,,,,,,,,,,
,,60906c79f8cfd718d6dcb3df,2022-09-08_10h47.48.375,CGTgamblingSpanTasks,2022.2.1,Win32,138.4849744,,,,,v,1.738,0,2.262,0,0,0,0,1,18.23,0,9.45,2,1,1,,,,,,,,,,,,,,,,,,,,,,,,,,,,,,,,,,,,,,,,,,,,,,,,,,,,,,,,,,,,,,,,,,,,,,,,,,,,,,,,,,,,,,,,,,,,,,,,,,,,,,,,,,,,,,,,,,,,
,,60906c79f8cfd718d6dcb3df,2022-09-08_10h47.48.375,CGTgamblingSpanTasks,2022.2.1,Win32,138.4849744,,,,,n,1.1689,35.16,2.8311,0,1,1,1,1,53.27,0,35.16,1,1.5,1,,,,,,,,,,,,,,,,,,,,,,,,,,,,,,,,,,,,,,,,,,,,,,,,,,,,,,,,,,,,,,,,,,,,,,,,,,,,,,,,,,,,,,,,,,,,,,,,,,,,,,,,,,,,,,,,,,,,
,,60906c79f8cfd718d6dcb3df,2022-09-08_10h47.48.375,CGTgamblingSpanTasks,2022.2.1,Win32,138.4849744,,,,,v,2.0017,1.15,1.9983,0,2,2,2,1,8.27,0,1.15,1,1.5,2,,,,,,,,,,,,,,,,,,,,,,,,,,,,,,,,,,,,,,,,,,,,,,,,,,,,,,,,,,,,,,,,,,,,,,,,,,,,,,,,,,,,,,,,,,,,,,,,,,,,,,,,,,,,,,,,,,,,
,,60906c79f8cfd718d6dcb3df,2022-09-08_10h47.48.375,CGTgamblingSpanTasks,2022.2.1,Win32,138.4849744,,,,,n,2.3238,40.41,1.6762,0,3,3,3,1,45.88,0,40.41,3,1,1,,,,,,,,,,,,,,,,,,,,,,,,,,,,,,,,,,,,,,,,,,,,,,,,,,,,,,,,,,,,,,,,,,,,,,,,,,,,,,,,,,,,,,,,,,,,,,,,,,,,,,,,,,,,,,,,,,,,
,,60906c79f8cfd718d6dcb3df,2022-09-08_10h47.48.375,CGTgamblingSpanTasks,2022.2.1,Win32,138.4849744,,,,,n,1.6808,21.56,2.3192,0,4,4,4,1,21.56,0,11.96,1,1.5,2,,,,,,,,,,,,,,,,,,,,,,,,,,,,,,,,,,,,,,,,,,,,,,,,,,,,,,,,,,,,,,,,,,,,,,,,,,,,,,,,,,,,,,,,,,,,,,,,,,,,,,,,,,,,,,,,,,,,
,,60906c79f8cfd718d6dcb3df,2022-09-08_10h47.48.375,CGTgamblingSpanTasks,2022.2.1,Win32,138.4849744,,,,,,,,,,,,,,,,,,,,v,14.3183,,,,,,,,,,,,,,,,,,,,,,,,,,,,,,,,,,,,,,,,,,,,,,,,,,,,,,,,,,,,,,,,,,,,,,,,,,,,,,,,,,,,,,,,,,,,,,,,,,,,,,,,,,,,,,,,,,
,,60906c79f8cfd718d6dcb3df,2022-09-08_10h47.48.375,CGTgamblingSpanTasks,2022.2.1,Win32,138.4849744,,,,,,,,1.9204,,,,,,,,,,,,,,2,v,2.0796,6.94,0,2.9204,1,0,0,0,38,1,10.12,0,6.94,0,,,,,,,,,,,,,,,,,,,,,,,,,,,,,,,,,,,,,,,,,,,,,,,,,,,,,,,,,,,,,,,,,,,,,,,,,,,,,,,,,,,,,,,,,,,,,,,,,,
,,60906c79f8cfd718d6dcb3df,2022-09-08_10h47.48.375,CGTgamblingSpanTasks,2022.2.1,Win32,138.4849744,,,,,,,,2.7964,,,,,,,,,,,,,,2,n,1.2036,16.6,1,3.7964,1,0,1,1,27,1,16.6,0,9.7,0,,,,,,,,,,,,,,,,,,,,,,,,,,,,,,,,,,,,,,,,,,,,,,,,,,,,,,,,,,,,,,,,,,,,,,,,,,,,,,,,,,,,,,,,,,,,,,,,,,
,,60906c79f8cfd718d6dcb3df,2022-09-08_10h47.48.375,CGTgamblingSpanTasks,2022.2.1,Win32,138.4849744,,,,,,,,3.1658,,,,,,,,,,,,,,2,v,0.8342,9.87,0,4.1658,1,0,2,2,29,1,16.26,0,9.87,0,,,,,,,,,,,,,,,,,,,,,,,,,,,,,,,,,,,,,,,,,,,,,,,,,,,,,,,,,,,,,,,,,,,,,,,,,,,,,,,,,,,,,,,,,,,,,,,,,,
,,60906c79f8cfd718d6dcb3df,2022-09-08_10h47.48.375,CGTgamblingSpanTasks,2022.2.1,Win32,138.4849744,,,,,,,,2.3599,,,,,,,,,,,,,,1,n,1.6401,5.82,0,3.8599,1.5,0,3,3,16,1,12.36,0,5.82,0,,,,,,,,,,,,,,,,,,,,,,,,,,,,,,,,,,,,,,,,,,,,,,,,,,,,,,,,,,,,,,,,,,,,,,,,,,,,,,,,,,,,,,,,,,,,,,,,,,
,,60906c79f8cfd718d6dcb3df,2022-09-08_10h47.48.375,CGTgamblingSpanTasks,2022.2.1,Win32,138.4849744,,,,,,,,3.2275,,,,,,,,,,,,,,2,v,0.7725,9.03,0,4.7275,1.5,0,4,4,19,1,17.94,0,9.03,0,,,,,,,,,,,,,,,,,,,,,,,,,,,,,,,,,,,,,,,,,,,,,,,,,,,,,,,,,,,,,,,,,,,,,,,,,,,,,,,,,,,,,,,,,,,,,,,,,,
,,60906c79f8cfd718d6dcb3df,2022-09-08_10h47.48.375,CGTgamblingSpanTasks,2022.2.1,Win32,138.4849744,,,,,,,,3.1669,,,,,,,,,,,,,,1,n,0.8331,7.34,0,4.6669,1.5,0,5,5,7,1,21.32,0,7.34,0,,,,,,,,,,,,,,,,,,,,,,,,,,,,,,,,,,,,,,,,,,,,,,,,,,,,,,,,,,,,,,,,,,,,,,,,,,,,,,,,,,,,,,,,,,,,,,,,,,
,,60906c79f8cfd718d6dcb3df,2022-09-08_10h47.48.375,CGTgamblingSpanTasks,2022.2.1,Win32,138.4849744,,,,,,,,3.2484,,,,,,,,,,,,,,2,n,0.7516,0,1,4.7484,1.5,0,6,6,3,1,25.2,0,5.4,0,,,,,,,,,,,,,,,,,,,,,,,,,,,,,,,,,,,,,,,,,,,,,,,,,,,,,,,,,,,,,,,,,,,,,,,,,,,,,,,,,,,,,,,,,,,,,,,,,,
,,60906c79f8cfd718d6dcb3df,2022-09-08_10h47.48.375,CGTgamblingSpanTasks,2022.2.1,Win32,138.4849744,,,,,,,,3.1787,,,,,,,,,,,,,,1,n,0.8213,9.2,0,4.1787,1,0,7,7,21,1,17.59,0,9.2,0,,,,,,,,,,,,,,,,,,,,,,,,,,,,,,,,,,,,,,,,,,,,,,,,,,,,,,,,,,,,,,,,,,,,,,,,,,,,,,,,,,,,,,,,,,,,,,,,,,
,,60906c79f8cfd718d6dcb3df,2022-09-08_10h47.48.375,CGTgamblingSpanTasks,2022.2.1,Win32,138.4849744,,,,,,,,2.9633,,,,,,,,,,,,,,1,v,1.0367,18.33,1,4.4633,1.5,0,8,8,17,1,18.33,0,8.84,0,,,,,,,,,,,,,,,,,,,,,,,,,,,,,,,,,,,,,,,,,,,,,,,,,,,,,,,,,,,,,,,,,,,,,,,,,,,,,,,,,,,,,,,,,,,,,,,,,,
,,60906c79f8cfd718d6dcb3df,2022-09-08_10h47.48.375,CGTgamblingSpanTasks,2022.2.1,Win32,138.4849744,,,,,,,,3.2749,,,,,,,,,,,,,,2,n,0.7251,10.24,1,4.2749,1,0,9,9,36,1,10.24,0,6.88,0,,,,,,,,,,,,,,,,,,,,,,,,,,,,,,,,,,,,,,,,,,,,,,,,,,,,,,,,,,,,,,,,,,,,,,,,,,,,,,,,,,,,,,,,,,,,,,,,,,
,,60906c79f8cfd718d6dcb3df,2022-09-08_10h47.48.375,CGTgamblingSpanTasks,2022.2.1,Win32,138.4849744,,,,,,,,3.3046,,,,,,,,,,,,,,1,n,0.6954,3.89,0,4.8046,1.5,0,10,10,1,1,28.21,0,3.89,0,,,,,,,,,,,,,,,,,,,,,,,,,,,,,,,,,,,,,,,,,,,,,,,,,,,,,,,,,,,,,,,,,,,,,,,,,,,,,,,,,,,,,,,,,,,,,,,,,,
,,60906c79f8cfd718d6dcb3df,2022-09-08_10h47.48.375,CGTgamblingSpanTasks,2022.2.1,Win32,138.4849744,,,,,,,,3.1975,,,,,,,,,,,,,,2,v,0.8025,5.66,0,4.6975,1.5,0,11,11,14,1,12.68,0,5.66,0,,,,,,,,,,,,,,,,,,,,,,,,,,,,,,,,,,,,,,,,,,,,,,,,,,,,,,,,,,,,,,,,,,,,,,,,,,,,,,,,,,,,,,,,,,,,,,,,,,
,,60906c79f8cfd718d6dcb3df,2022-09-08_10h47.48.375,CGTgamblingSpanTasks,2022.2.1,Win32,138.4849744,,,,,,,,3.266,,,,,,,,,,,,,,2,v,0.734,5.96,0,4.766,1.5,0,12,12,18,1,12.08,0,5.96,0,,,,,,,,,,,,,,,,,,,,,,,,,,,,,,,,,,,,,,,,,,,,,,,,,,,,,,,,,,,,,,,,,,,,,,,,,,,,,,,,,,,,,,,,,,,,,,,,,,
,,60906c79f8cfd718d6dcb3df,2022-09-08_10h47.48.375,CGTgamblingSpanTasks,2022.2.1,Win32,138.4849744,,,,,,,,2.888,,,,,,,,,,,,,,2,n,1.112,0,1,4.388,1.5,0,13,13,8,1,13.94,0,5.03,0,,,,,,,,,,,,,,,,,,,,,,,,,,,,,,,,,,,,,,,,,,,,,,,,,,,,,,,,,,,,,,,,,,,,,,,,,,,,,,,,,,,,,,,,,,,,,,,,,,
,,60906c79f8cfd718d6dcb3df,2022-09-08_10h47.48.375,CGTgamblingSpanTasks,2022.2.1,Win32,138.4849744,,,,,,,,3.2005,,,,,,,,,,,,,,1,n,0.7995,9.92,0,4.2005,1,0,14,14,49,1,6.79,0,9.92,1,,,,,,,,,,,,,,,,,,,,,,,,,,,,,,,,,,,,,,,,,,,,,,,,,,,,,,,,,,,,,,,,,,,,,,,,,,,,,,,,,,,,,,,,,,,,,,,,,,
,,60906c79f8cfd718d6dcb3df,2022-09-08_10h47.48.375,CGTgamblingSpanTasks,2022.2.1,Win32,138.4849744,,,,,,,,2.4732,,,,,,,,,,,,,,2,n,1.5268,0,1,3.4732,1,0,15,15,42,1,19.86,0,0,1,,,,,,,,,,,,,,,,,,,,,,,,,,,,,,,,,,,,,,,,,,,,,,,,,,,,,,,,,,,,,,,,,,,,,,,,,,,,,,,,,,,,,,,,,,,,,,,,,,
,,60906c79f8cfd718d6dcb3df,2022-09-08_10h47.48.375,CGTgamblingSpanTasks,2022.2.1,Win32,138.4849744,,,,,,,,2.5559,,,,,,,,,,,,,,2,v,1.4441,10.25,0,4.0559,1.5,0,16,16,46,1,0,0,10.25,1,,,,,,,,,,,,,,,,,,,,,,,,,,,,,,,,,,,,,,,,,,,,,,,,,,,,,,,,,,,,,,,,,,,,,,,,,,,,,,,,,,,,,,,,,,,,,,,,,,
,,60906c79f8cfd718d6dcb3df,2022-09-08_10h47.48.375,CGTgamblingSpanTasks,2022.2.1,Win32,138.4849744,,,,,,,,2.8472,,,,,,,,,,,,,,2,v,1.1528,6.4,0,3.8472,1,0,17,17,26,1,11.2,0,6.4,0,,,,,,,,,,,,,,,,,,,,,,,,,,,,,,,,,,,,,,,,,,,,,,,,,,,,,,,,,,,,,,,,,,,,,,,,,,,,,,,,,,,,,,,,,,,,,,,,,,
,,60906c79f8cfd718d6dcb3df,2022-09-08_10h47.48.375,CGTgamblingSpanTasks,2022.2.1,Win32,138.4849744,,,,,,,,3.0195,,,,,,,,,,,,,,1,n,0.9805,6.29,0,4.5195,1.5,0,18,18,24,1,11.43,0,6.29,0,,,,,,,,,,,,,,,,,,,,,,,,,,,,,,,,,,,,,,,,,,,,,,,,,,,,,,,,,,,,,,,,,,,,,,,,,,,,,,,,,,,,,,,,,,,,,,,,,,
,,60906c79f8cfd718d6dcb3df,2022-09-08_10h47.48.375,CGTgamblingSpanTasks,2022.2.1,Win32,138.4849744,,,,,,,,3.1937,,,,,,,,,,,,,,2,v,0.8063,9.36,0,4.1937,1,0,19,19,23,1,17.28,0,9.36,0,,,,,,,,,,,,,,,,,,,,,,,,,,,,,,,,,,,,,,,,,,,,,,,,,,,,,,,,,,,,,,,,,,,,,,,,,,,,,,,,,,,,,,,,,,,,,,,,,,
,,60906c79f8cfd718d6dcb3df,2022-09-08_10h47.48.375,CGTgamblingSpanTasks,2022.2.1,Win32,138.4849744,,,,,,,,2.8936,,,,,,,,,,,,,,2,n,1.1064,18.77,1,3.8936,1,0,20,20,15,1,18.77,0,8.61,0,,,,,,,,,,,,,,,,,,,,,,,,,,,,,,,,,,,,,,,,,,,,,,,,,,,,,,,,,,,,,,,,,,,,,,,,,,,,,,,,,,,,,,,,,,,,,,,,,,
,,60906c79f8cfd718d6dcb3df,2022-09-08_10h47.48.375,CGTgamblingSpanTasks,2022.2.1,Win32,138.4849744,,,,,,,,3.0277,,,,,,,,,,,,,,2,v,0.9723,10.15,0,4.5277,1.5,0,21,21,33,1,15.7,0,10.15,0,,,,,,,,,,,,,,,,,,,,,,,,,,,,,,,,,,,,,,,,,,,,,,,,,,,,,,,,,,,,,,,,,,,,,,,,,,,,,,,,,,,,,,,,,,,,,,,,,,
,,60906c79f8cfd718d6dcb3df,2022-09-08_10h47.48.375,CGTgamblingSpanTasks,2022.2.1,Win32,138.4849744,,,,,,,,3.083,,,,,,,,,,,,,,2,v,0.917,7.55,0,4.583,1.5,0,22,22,45,1,0,0,7.55,1,,,,,,,,,,,,,,,,,,,,,,,,,,,,,,,,,,,,,,,,,,,,,,,,,,,,,,,,,,,,,,,,,,,,,,,,,,,,,,,,,,,,,,,,,,,,,,,,,,
,,60906c79f8cfd718d6dcb3df,2022-09-08_10h47.48.375,CGTgamblingSpanTasks,2022.2.1,Win32,138.4849744,,,,,,,,3.2427,,,,,,,,,,,,,,2,n,0.7573,15.27,1,4.7427,1.5,0,23,23,37,1,15.27,0,10.37,0,,,,,,,,,,,,,,,,,,,,,,,,,,,,,,,,,,,,,,,,,,,,,,,,,,,,,,,,,,,,,,,,,,,,,,,,,,,,,,,,,,,,,,,,,,,,,,,,,,
,,60906c79f8cfd718d6dcb3df,2022-09-08_10h47.48.375,CGTgamblingSpanTasks,2022.2.1,Win32,138.4849744,,,,,,,,3.208,,,,,,,,,,,,,,1,n,0.792,6.63,0,4.208,1,0,24,24,30,1,10.73,0,6.63,0,,,,,,,,,,,,,,,,,,,,,,,,,,,,,,,,,,,,,,,,,,,,,,,,,,,,,,,,,,,,,,,,,,,,,,,,,,,,,,,,,,,,,,,,,,,,,,,,,,
,,60906c79f8cfd718d6dcb3df,2022-09-08_10h47.48.375,CGTgamblingSpanTasks,2022.2.1,Win32,138.4849744,,,,,,,,3.2775,,,,,,,,,,,,,,1,n,0.7225,3.13,0,4.7775,1.5,0,25,25,47,1,0,0,3.13,1,,,,,,,,,,,,,,,,,,,,,,,,,,,,,,,,,,,,,,,,,,,,,,,,,,,,,,,,,,,,,,,,,,,,,,,,,,,,,,,,,,,,,,,,,,,,,,,,,,
,,60906c79f8cfd718d6dcb3df,2022-09-08_10h47.48.375,CGTgamblingSpanTasks,2022.2.1,Win32,138.4849744,,,,,,,,3.0552,,,,,,,,,,,,,,1,v,0.9448,11.84,1,4.5552,1.5,0,26,26,20,1,11.84,0,6.08,0,,,,,,,,,,,,,,,,,,,,,,,,,,,,,,,,,,,,,,,,,,,,,,,,,,,,,,,,,,,,,,,,,,,,,,,,,,,,,,,,,,,,,,,,,,,,,,,,,,
,,60906c79f8cfd718d6dcb3df,2022-09-08_10h47.48.375,CGTgamblingSpanTasks,2022.2.1,Win32,138.4849744,,,,,,,,3.1168,,,,,,,,,,,,,,1,n,0.8832,10.27,0,4.1168,1,0,27,27,35,1,15.47,0,10.27,0,,,,,,,,,,,,,,,,,,,,,,,,,,,,,,,,,,,,,,,,,,,,,,,,,,,,,,,,,,,,,,,,,,,,,,,,,,,,,,,,,,,,,,,,,,,,,,,,,,
,,60906c79f8cfd718d6dcb3df,2022-09-08_10h47.48.375,CGTgamblingSpanTasks,2022.2.1,Win32,138.4849744,,,,,,,,3.4771,,,,,,,,,,,,,,1,v,0.5229,0,1,4.9771,1.5,0,28,28,41,1,14.26,0,0,1,,,,,,,,,,,,,,,,,,,,,,,,,,,,,,,,,,,,,,,,,,,,,,,,,,,,,,,,,,,,,,,,,,,,,,,,,,,,,,,,,,,,,,,,,,,,,,,,,,
,,60906c79f8cfd718d6dcb3df,2022-09-08_10h47.48.375,CGTgamblingSpanTasks,2022.2.1,Win32,138.4849744,,,,,,,,3.2486,,,,,,,,,,,,,,2,n,0.7514,0,1,4.2486,1,0,29,29,4,1,16,0,4,0,,,,,,,,,,,,,,,,,,,,,,,,,,,,,,,,,,,,,,,,,,,,,,,,,,,,,,,,,,,,,,,,,,,,,,,,,,,,,,,,,,,,,,,,,,,,,,,,,,
,,60906c79f8cfd718d6dcb3df,2022-09-08_10h47.48.375,CGTgamblingSpanTasks,2022.2.1,Win32,138.4849744,,,,,,,,3.1653,,,,,,,,,,,,,,1,n,0.8347,5.27,0,4.1653,1,0,30,30,10,1,13.45,0,5.27,0,,,,,,,,,,,,,,,,,,,,,,,,,,,,,,,,,,,,,,,,,,,,,,,,,,,,,,,,,,,,,,,,,,,,,,,,,,,,,,,,,,,,,,,,,,,,,,,,,,
,,60906c79f8cfd718d6dcb3df,2022-09-08_10h47.48.375,CGTgamblingSpanTasks,2022.2.1,Win32,138.4849744,,,,,,,,3.2638,,,,,,,,,,,,,,2,n,0.7362,19.28,1,4.2638,1,0,31,31,13,1,19.28,0,8.36,0,,,,,,,,,,,,,,,,,,,,,,,,,,,,,,,,,,,,,,,,,,,,,,,,,,,,,,,,,,,,,,,,,,,,,,,,,,,,,,,,,,,,,,,,,,,,,,,,,,
,,60906c79f8cfd718d6dcb3df,2022-09-08_10h47.48.375,CGTgamblingSpanTasks,2022.2.1,Win32,138.4849744,,,,,,,,3.5831,,,,,,,,,,,,,,2,v,0.4169,10.68,0,4.5831,1,0,32,32,48,1,10.68,0,10.68,1,,,,,,,,,,,,,,,,,,,,,,,,,,,,,,,,,,,,,,,,,,,,,,,,,,,,,,,,,,,,,,,,,,,,,,,,,,,,,,,,,,,,,,,,,,,,,,,,,,
,,60906c79f8cfd718d6dcb3df,2022-09-08_10h47.48.375,CGTgamblingSpanTasks,2022.2.1,Win32,138.4849744,,,,,,,,3.6792,,,,,,,,,,,,,,1,n,0.3208,10.46,0,5.1792,1.5,0,33,33,39,1,15.09,0,10.46,0,,,,,,,,,,,,,,,,,,,,,,,,,,,,,,,,,,,,,,,,,,,,,,,,,,,,,,,,,,,,,,,,,,,,,,,,,,,,,,,,,,,,,,,,,,,,,,,,,,
,,60906c79f8cfd718d6dcb3df,2022-09-08_10h47.48.375,CGTgamblingSpanTasks,2022.2.1,Win32,138.4849744,,,,,,,,3.0831,,,,,,,,,,,,,,2,n,0.9169,20.03,1,4.5831,1.5,0,34,34,0,1,20.03,0,1.99,0,,,,,,,,,,,,,,,,,,,,,,,,,,,,,,,,,,,,,,,,,,,,,,,,,,,,,,,,,,,,,,,,,,,,,,,,,,,,,,,,,,,,,,,,,,,,,,,,,,
,,60906c79f8cfd718d6dcb3df,2022-09-08_10h47.48.375,CGTgamblingSpanTasks,2022.2.1,Win32,138.4849744,,,,,,,,3.3034,,,,,,,,,,,,,,2,n,0.6966,0,1,4.8034,1.5,0,35,35,22,1,11.62,0,6.19,0,,,,,,,,,,,,,,,,,,,,,,,,,,,,,,,,,,,,,,,,,,,,,,,,,,,,,,,,,,,,,,,,,,,,,,,,,,,,,,,,,,,,,,,,,,,,,,,,,,
,,60906c79f8cfd718d6dcb3df,2022-09-08_10h47.48.375,CGTgamblingSpanTasks,2022.2.1,Win32,138.4849744,,,,,,,,3.1601,,,,,,,,,,,,,,1,v,0.8399,10.35,1,4.1601,1,0,36,36,40,1,10.35,0,0,1,,,,,,,,,,,,,,,,,,,,,,,,,,,,,,,,,,,,,,,,,,,,,,,,,,,,,,,,,,,,,,,,,,,,,,,,,,,,,,,,,,,,,,,,,,,,,,,,,,
,,60906c79f8cfd718d6dcb3df,2022-09-08_10h47.48.375,CGTgamblingSpanTasks,2022.2.1,Win32,138.4849744,,,,,,,,3.2298,,,,,,,,,,,,,,1,v,0.7702,15.96,1,4.2298,1,0,37,37,31,1,15.96,0,10.02,0,,,,,,,,,,,,,,,,,,,,,,,,,,,,,,,,,,,,,,,,,,,,,,,,,,,,,,,,,,,,,,,,,,,,,,,,,,,,,,,,,,,,,,,,,,,,,,,,,,
,,60906c79f8cfd718d6dcb3df,2022-09-08_10h47.48.375,CGTgamblingSpanTasks,2022.2.1,Win32,138.4849744,,,,,,,,3.1804,,,,,,,,,,,,,,1,v,0.8196,0,1,4.6804,1.5,0,38,38,12,1,13.04,0,5.48,0,,,,,,,,,,,,,,,,,,,,,,,,,,,,,,,,,,,,,,,,,,,,,,,,,,,,,,,,,,,,,,,,,,,,,,,,,,,,,,,,,,,,,,,,,,,,,,,,,,
,,60906c79f8cfd718d6dcb3df,2022-09-08_10h47.48.375,CGTgamblingSpanTasks,2022.2.1,Win32,138.4849744,,,,,,,,3.0477,,,,,,,,,,,,,,1,v,0.9523,17,1,4.5477,1.5,0,39,39,25,1,17,0,9.5,0,,,,,,,,,,,,,,,,,,,,,,,,,,,,,,,,,,,,,,,,,,,,,,,,,,,,,,,,,,,,,,,,,,,,,,,,,,,,,,,,,,,,,,,,,,,,,,,,,,
,,60906c79f8cfd718d6dcb3df,2022-09-08_10h47.48.375,CGTgamblingSpanTasks,2022.2.1,Win32,138.4849744,,,,,,,,3.2072,,,,,,,,,,,,,,1,v,0.7928,0,1,4.2072,1,0,40,40,32,1,10.55,0,6.73,0,,,,,,,,,,,,,,,,,,,,,,,,,,,,,,,,,,,,,,,,,,,,,,,,,,,,,,,,,,,,,,,,,,,,,,,,,,,,,,,,,,,,,,,,,,,,,,,,,,
,,60906c79f8cfd718d6dcb3df,2022-09-08_10h47.48.375,CGTgamblingSpanTasks,2022.2.1,Win32,138.4849744,,,,,,,,3.4102,,,,,,,,,,,,,,1,n,0.5898,6.99,0,4.4102,1,0,41,41,43,1,16.11,6.99,6.99,1,,,,,,,,,,,,,,,,,,,,,,,,,,,,,,,,,,,,,,,,,,,,,,,,,,,,,,,,,,,,,,,,,,,,,,,,,,,,,,,,,,,,,,,,,,,,,,,,,,
,,60906c79f8cfd718d6dcb3df,2022-09-08_10h47.48.375,CGTgamblingSpanTasks,2022.2.1,Win32,138.4849744,,,,,,,,3.0957,,,,,,,,,,,,,,2,n,0.9043,0,1,4.0957,1,0,42,42,2,1,17.73,0,3.13,0,,,,,,,,,,,,,,,,,,,,,,,,,,,,,,,,,,,,,,,,,,,,,,,,,,,,,,,,,,,,,,,,,,,,,,,,,,,,,,,,,,,,,,,,,,,,,,,,,,
,,60906c79f8cfd718d6dcb3df,2022-09-08_10h47.48.375,CGTgamblingSpanTasks,2022.2.1,Win32,138.4849744,,,,,,,,3.3522,,,,,,,,,,,,,,2,n,0.6478,13.1,1,4.3522,1,0,43,43,44,1,13.1,7.73,4.68,1,,,,,,,,,,,,,,,,,,,,,,,,,,,,,,,,,,,,,,,,,,,,,,,,,,,,,,,,,,,,,,,,,,,,,,,,,,,,,,,,,,,,,,,,,,,,,,,,,,
,,60906c79f8cfd718d6dcb3df,2022-09-08_10h47.48.375,CGTgamblingSpanTasks,2022.2.1,Win32,138.4849744,,,,,,,,3.3118,,,,,,,,,,,,,,1,v,0.6882,19.86,1,4.8118,1.5,0,44,44,11,1,19.86,0,8.07,0,,,,,,,,,,,,,,,,,,,,,,,,,,,,,,,,,,,,,,,,,,,,,,,,,,,,,,,,,,,,,,,,,,,,,,,,,,,,,,,,,,,,,,,,,,,,,,,,,,
,,60906c79f8cfd718d6dcb3df,2022-09-08_10h47.48.375,CGTgamblingSpanTasks,2022.2.1,Win32,138.4849744,,,,,,,,3.4303,,,,,,,,,,,,,,2,n,0.5697,10.95,1,4.4303,1,0,45,45,28,1,10.95,0,6.53,0,,,,,,,,,,,,,,,,,,,,,,,,,,,,,,,,,,,,,,,,,,,,,,,,,,,,,,,,,,,,,,,,,,,,,,,,,,,,,,,,,,,,,,,,,,,,,,,,,,
,,60906c79f8cfd718d6dcb3df,2022-09-08_10h47.48.375,CGTgamblingSpanTasks,2022.2.1,Win32,138.4849744,,,,,,,,3.1164,,,,,,,,,,,,,,1,v,0.8836,22.97,1,4.6164,1.5,0,46,46,5,1,22.97,0,6.51,0,,,,,,,,,,,,,,,,,,,,,,,,,,,,,,,,,,,,,,,,,,,,,,,,,,,,,,,,,,,,,,,,,,,,,,,,,,,,,,,,,,,,,,,,,,,,,,,,,,
,,60906c79f8cfd718d6dcb3df,2022-09-08_10h47.48.375,CGTgamblingSpanTasks,2022.2.1,Win32,138.4849744,,,,,,,,3.3263,,,,,,,,,,,,,,1,v,0.6737,0,1,4.3263,1,0,47,47,34,1,10.39,0,6.81,0,,,,,,,,,,,,,,,,,,,,,,,,,,,,,,,,,,,,,,,,,,,,,,,,,,,,,,,,,,,,,,,,,,,,,,,,,,,,,,,,,,,,,,,,,,,,,,,,,,
,,60906c79f8cfd718d6dcb3df,2022-09-08_10h47.48.375,CGTgamblingSpanTasks,2022.2.1,Win32,138.4849744,,,,,,,,2.8946,,,,,,,,,,,,,,1,v,1.1054,14.72,1,4.3946,1.5,0,48,48,6,1,14.72,0,4.64,0,,,,,,,,,,,,,,,,,,,,,,,,,,,,,,,,,,,,,,,,,,,,,,,,,,,,,,,,,,,,,,,,,,,,,,,,,,,,,,,,,,,,,,,,,,,,,,,,,,
,,60906c79f8cfd718d6dcb3df,2022-09-08_10h47.48.375,CGTgamblingSpanTasks,2022.2.1,Win32,138.4849744,,,,,,,,3.4154,,,,,,,,,,,,,,2,n,0.5846,20.53,1,4.4154,1,0,49,49,9,1,20.53,0,7.73,0,,,,,,,,,,,,,,,,,,,,,,,,,,,,,,,,,,,,,,,,,,,,,,,,,,,,,,,,,,,,,,,,,,,,,,,,,,,,,,,,,,,,,,,,,,,,,,,,,,
,,60906c79f8cfd718d6dcb3df,2022-09-08_10h47.48.375,CGTgamblingSpanTasks,2022.2.1,Win32,138.4849744,,,,,,,,,,,,,,,,,,,,,,,,,,,,,,,,,,,,,,bespoke_choiceset_rhoInd071_muInd001.csv,bespoke_choicesets/bespoke_choiceset_rhoInd071_muInd001.csv,71,1,0,0,0,0,1,,,,,,,,,,,,,,,,,,,,,,,,,,,,,,,,,,,,,,,,,,,,,,,,,,,,,,,,,,,,,,,,,,,,,,,,,,,,,,,,,,,,,,,,,
,,60906c79f8cfd718d6dcb3df,2022-09-08_10h47.48.375,CGTgamblingSpanTasks,2022.2.1,Win32,138.4849744,,,,,,,,,,,,,,,,,,,,,,,,,,,,,,,,,,,,,,,,,,,,,,,,,,,,,,,,,,,,,,,,,,,,,,,,,,,,,,,,,,,,,,,,,,,,,,,,,,,,,,,,,,,,,,,,,,,,,,,,,,,,,,,,,,,,,,,
,,60906c79f8cfd718d6dcb3df,2022-09-08_10h47.48.375,CGTgamblingSpanTasks,2022.2.1,Win32,138.4849744,,,,,,,,,,,,,,,,,,,,,,,,,,,,,,,,,,,,,,,,,,,,,,,n,4.3255,,,,,,,,,,,,,,,,,,,,,,,,,,,,,,,,,,,,,,,,,,,,,,,,,,,,,,,,,,,,,,,,,,,,,,,,,,,,,,,,,,,,,,,
,,60906c79f8cfd718d6dcb3df,2022-09-08_10h47.48.375,CGTgamblingSpanTasks,2022.2.1,Win32,138.4849744,,,,,,,,3.1888,,,,,,,,,,,,,,2,n,0.8112,0,1,4.6888,1.5,,,,,,22.62475578,0,2.397643354,,,,,,,,,,,,,0,0,0,93,1,0.482527609,1,,,,,,,,,,,,,,,,,,,,,,,,,,,,,,,,,,,,,,,,,,,,,,,,,,,,,,,,,,,,,,,,,,,,,,,,,,,,,,,,
,,60906c79f8cfd718d6dcb3df,2022-09-08_10h47.48.375,CGTgamblingSpanTasks,2022.2.1,Win32,138.4849744,,,,,,,,3.3126,,,,,,,,,,,,,,2,n,0.6874,0,1,4.8126,1.5,,,,,,27.2532142,0,0.08089327,,,,,,,,,,,,,0,1,1,119,1,0.907091845,0,,,,,,,,,,,,,,,,,,,,,,,,,,,,,,,,,,,,,,,,,,,,,,,,,,,,,,,,,,,,,,,,,,,,,,,,,,,,,,,,
,,60906c79f8cfd718d6dcb3df,2022-09-08_10h47.48.375,CGTgamblingSpanTasks,2022.2.1,Win32,138.4849744,,,,,,,,3.4155,,,,,,,,,,,,,,2,n,0.5845,0,1,4.4155,1,,,,,,26.16821818,0,0.093528069,,,,,,,,,,,,,0,2,2,42,1,0.901022427,0,,,,,,,,,,,,,,,,,,,,,,,,,,,,,,,,,,,,,,,,,,,,,,,,,,,,,,,,,,,,,,,,,,,,,,,,,,,,,,,,
,,60906c79f8cfd718d6dcb3df,2022-09-08_10h47.48.375,CGTgamblingSpanTasks,2022.2.1,Win32,138.4849744,,,,,,,,3.3598,,,,,,,,,,,,,,2,v,0.6402,2.838865588,0,4.3598,1,,,,,,29.77342428,0,2.838865588,,,,,,,,,,,,,0,3,3,57,1,0.510363415,1,,,,,,,,,,,,,,,,,,,,,,,,,,,,,,,,,,,,,,,,,,,,,,,,,,,,,,,,,,,,,,,,,,,,,,,,,,,,,,,,
,,60906c79f8cfd718d6dcb3df,2022-09-08_10h47.48.375,CGTgamblingSpanTasks,2022.2.1,Win32,138.4849744,,,,,,,,3.0488,,,,,,,,,,,,,,1,v,0.9512,0,1,4.5488,1.5,,,,,,13.84410806,0,1.535873964,,,,,,,,,,,,,0,4,4,88,1,0.470209002,1,,,,,,,,,,,,,,,,,,,,,,,,,,,,,,,,,,,,,,,,,,,,,,,,,,,,,,,,,,,,,,,,,,,,,,,,,,,,,,,,
,,60906c79f8cfd718d6dcb3df,2022-09-08_10h47.48.375,CGTgamblingSpanTasks,2022.2.1,Win32,138.4849744,,,,,,,,3.2342,,,,,,,,,,,,,,1,v,0.7658,21.03408097,1,4.2342,1,,,,,,21.03408097,0,2.208275162,,,,,,,,,,,,,0,5,5,0,1,0.485031246,1,,,,,,,,,,,,,,,,,,,,,,,,,,,,,,,,,,,,,,,,,,,,,,,,,,,,,,,,,,,,,,,,,,,,,,,,,,,,,,,,
,,60906c79f8cfd718d6dcb3df,2022-09-08_10h47.48.375,CGTgamblingSpanTasks,2022.2.1,Win32,138.4849744,,,,,,,,3.3397,,,,,,,,,,,,,,2,n,0.6603,18.50662664,1,4.3397,1,,,,,,18.50662664,0,0.052546026,,,,,,,,,,,,,0,6,6,112,1,0.908444837,0,,,,,,,,,,,,,,,,,,,,,,,,,,,,,,,,,,,,,,,,,,,,,,,,,,,,,,,,,,,,,,,,,,,,,,,,,,,,,,,,
,,60906c79f8cfd718d6dcb3df,2022-09-08_10h47.48.375,CGTgamblingSpanTasks,2022.2.1,Win32,138.4849744,,,,,,,,3.2843,,,,,,,,,,,,,,1,v,0.7157,0,1,4.7843,1.5,,,,,,20.31034258,0,1.870404296,,,,,,,,,,,,,0,7,7,85,1,0.519325853,1,,,,,,,,,,,,,,,,,,,,,,,,,,,,,,,,,,,,,,,,,,,,,,,,,,,,,,,,,,,,,,,,,,,,,,,,,,,,,,,,
,,60906c79f8cfd718d6dcb3df,2022-09-08_10h47.48.375,CGTgamblingSpanTasks,2022.2.1,Win32,138.4849744,,,,,,,,3.4714,,,,,,,,,,,,,,2,n,0.5286,0,1,4.9714,1.5,,,,,,23.4214135,0,2.485985001,,,,,,,,,,,,,0,8,8,81,1,0.482105905,1,,,,,,,,,,,,,,,,,,,,,,,,,,,,,,,,,,,,,,,,,,,,,,,,,,,,,,,,,,,,,,,,,,,,,,,,,,,,,,,,
,,60906c79f8cfd718d6dcb3df,2022-09-08_10h47.48.375,CGTgamblingSpanTasks,2022.2.1,Win32,138.4849744,,,,,,,,3.2289,,,,,,,,,,,,,,2,n,0.7711,6.662965216,1,4.2289,1,,,,,,6.662965216,0,6.091504705,,,,,,,,,,,,,0,9,9,102,1,0.035087099,0,,,,,,,,,,,,,,,,,,,,,,,,,,,,,,,,,,,,,,,,,,,,,,,,,,,,,,,,,,,,,,,,,,,,,,,,,,,,,,,,
,,60906c79f8cfd718d6dcb3df,2022-09-08_10h47.48.375,CGTgamblingSpanTasks,2022.2.1,Win32,138.4849744,,,,,,,,3.2492,,,,,,,,,,,,,,2,n,0.7508,29.76099779,1,4.2492,1,,,,,,29.76099779,0,0.095763086,,,,,,,,,,,,,0,10,10,35,1,0.904537896,0,,,,,,,,,,,,,,,,,,,,,,,,,,,,,,,,,,,,,,,,,,,,,,,,,,,,,,,,,,,,,,,,,,,,,,,,,,,,,,,,
,,60906c79f8cfd718d6dcb3df,2022-09-08_10h47.48.375,CGTgamblingSpanTasks,2022.2.1,Win32,138.4849744,,,,,,,,3.2847,,,,,,,,,,,,,,2,v,0.7153,2.293289792,0,4.2847,1,,,,,,22.86604061,0,2.293289792,,,,,,,,,,,,,0,11,11,51,1,0.49715382,1,,,,,,,,,,,,,,,,,,,,,,,,,,,,,,,,,,,,,,,,,,,,,,,,,,,,,,,,,,,,,,,,,,,,,,,,,,,,,,,,
,,60906c79f8cfd718d6dcb3df,2022-09-08_10h47.48.375,CGTgamblingSpanTasks,2022.2.1,Win32,138.4849744,,,,,,,,3.3393,,,,,,,,,,,,,,2,n,0.6607,0,1,4.3393,1,,,,,,17.5608285,0,1.825111303,,,,,,,,,,,,,0,12,12,104,1,0.487721116,1,,,,,,,,,,,,,,,,,,,,,,,,,,,,,,,,,,,,,,,,,,,,,,,,,,,,,,,,,,,,,,,,,,,,,,,,,,,,,,,,
,,60906c79f8cfd718d6dcb3df,2022-09-08_10h47.48.375,CGTgamblingSpanTasks,2022.2.1,Win32,138.4849744,,,,,,,,3.0761,,,,,,,,,,,,,,2,v,0.9239,11.42134125,0,4.5761,1.5,,,,,,12.9904115,0,11.42134125,,,,,,,,,,,,,0,13,13,118,1,0.037876033,0,,,,,,,,,,,,,,,,,,,,,,,,,,,,,,,,,,,,,,,,,,,,,,,,,,,,,,,,,,,,,,,,,,,,,,,,,,,,,,,,
,,60906c79f8cfd718d6dcb3df,2022-09-08_10h47.48.375,CGTgamblingSpanTasks,2022.2.1,Win32,138.4849744,,,,,,,,2.8822,,,,,,,,,,,,,,1,v,1.1178,21.00799273,1,4.3822,1.5,,,,,,21.00799273,0,0.067969053,,,,,,,,,,,,,0,14,14,92,1,0.904360262,0,,,,,,,,,,,,,,,,,,,,,,,,,,,,,,,,,,,,,,,,,,,,,,,,,,,,,,,,,,,,,,,,,,,,,,,,,,,,,,,,
,,60906c79f8cfd718d6dcb3df,2022-09-08_10h47.48.375,CGTgamblingSpanTasks,2022.2.1,Win32,138.4849744,,,,,,,,3.4367,,,,,,,,,,,,,,2,n,0.5633,0,1,4.4367,1,,,,,,20.5726842,0,0.073558523,,,,,,,,,,,,,0,15,15,26,1,0.901008565,0,,,,,,,,,,,,,,,,,,,,,,,,,,,,,,,,,,,,,,,,,,,,,,,,,,,,,,,,,,,,,,,,,,,,,,,,,,,,,,,,
,,60906c79f8cfd718d6dcb3df,2022-09-08_10h47.48.375,CGTgamblingSpanTasks,2022.2.1,Win32,138.4849744,,,,,,,,3.3401,,,,,,,,,,,,,,2,n,0.6599,25.56803059,1,4.8401,1.5,,,,,,25.56803059,0,2.543951743,,,,,,,,,,,,,0,16,16,41,1,0.499247217,1,,,,,,,,,,,,,,,,,,,,,,,,,,,,,,,,,,,,,,,,,,,,,,,,,,,,,,,,,,,,,,,,,,,,,,,,,,,,,,,,
,,60906c79f8cfd718d6dcb3df,2022-09-08_10h47.48.375,CGTgamblingSpanTasks,2022.2.1,Win32,138.4849744,,,,,,,,3.2983,,,,,,,,,,,,,,2,n,0.7017,27.76752685,1,4.7983,1.5,,,,,,27.76752685,0,0.083968035,,,,,,,,,,,,,0,17,17,13,1,0.906513967,0,,,,,,,,,,,,,,,,,,,,,,,,,,,,,,,,,,,,,,,,,,,,,,,,,,,,,,,,,,,,,,,,,,,,,,,,,,,,,,,,
,,60906c79f8cfd718d6dcb3df,2022-09-08_10h47.48.375,CGTgamblingSpanTasks,2022.2.1,Win32,138.4849744,,,,,,,,3.1791,,,,,,,,,,,,,,1,v,0.8209,0,1,4.1791,1,,,,,,17.67865084,0,11.35147481,,,,,,,,,,,,,0,18,18,91,1,0.067304606,0,,,,,,,,,,,,,,,,,,,,,,,,,,,,,,,,,,,,,,,,,,,,,,,,,,,,,,,,,,,,,,,,,,,,,,,,,,,,,,,,
,,60906c79f8cfd718d6dcb3df,2022-09-08_10h47.48.375,CGTgamblingSpanTasks,2022.2.1,Win32,138.4849744,,,,,,,,3.2978,,,,,,,,,,,,,,1,v,0.7022,8.217594828,1,4.2978,1,,,,,,8.217594828,0,0.951019374,,,,,,,,,,,,,0,19,19,87,1,0.458722936,1,,,,,,,,,,,,,,,,,,,,,,,,,,,,,,,,,,,,,,,,,,,,,,,,,,,,,,,,,,,,,,,,,,,,,,,,,,,,,,,,
,,60906c79f8cfd718d6dcb3df,2022-09-08_10h47.48.375,CGTgamblingSpanTasks,2022.2.1,Win32,138.4849744,,,,,,,,3.1599,,,,,,,,,,,,,,1,v,0.8401,20.97851654,1,4.6599,1.5,,,,,,20.97851654,0,11.39288827,,,,,,,,,,,,,0,20,20,2,1,0.088791079,0,,,,,,,,,,,,,,,,,,,,,,,,,,,,,,,,,,,,,,,,,,,,,,,,,,,,,,,,,,,,,,,,,,,,,,,,,,,,,,,,
,,60906c79f8cfd718d6dcb3df,2022-09-08_10h47.48.375,CGTgamblingSpanTasks,2022.2.1,Win32,138.4849744,,,,,,,,3.0627,,,,,,,,,,,,,,2,n,0.9373,28.94627214,1,4.0627,1,,,,,,28.94627214,0,2.701896413,,,,,,,,,,,,,0,21,21,111,1,0.515860759,1,,,,,,,,,,,,,,,,,,,,,,,,,,,,,,,,,,,,,,,,,,,,,,,,,,,,,,,,,,,,,,,,,,,,,,,,,,,,,,,,
,,60906c79f8cfd718d6dcb3df,2022-09-08_10h47.48.375,CGTgamblingSpanTasks,2022.2.1,Win32,138.4849744,,,,,,,,3.1094,,,,,,,,,,,,,,2,n,0.8906,27.39221343,1,4.1094,1,,,,,,27.39221343,0,2.743407746,,,,,,,,,,,,,0,22,22,47,1,0.49752044,1,,,,,,,,,,,,,,,,,,,,,,,,,,,,,,,,,,,,,,,,,,,,,,,,,,,,,,,,,,,,,,,,,,,,,,,,,,,,,,,,
,,60906c79f8cfd718d6dcb3df,2022-09-08_10h47.48.375,CGTgamblingSpanTasks,2022.2.1,Win32,138.4849744,,,,,,,,3.2282,,,,,,,,,,,,,,1,v,0.7718,26.36733703,1,4.7282,1.5,,,,,,26.36733703,0,2.201057101,,,,,,,,,,,,,0,23,23,90,1,0.544064207,1,,,,,,,,,,,,,,,,,,,,,,,,,,,,,,,,,,,,,,,,,,,,,,,,,,,,,,,,,,,,,,,,,,,,,,,,,,,,,,,,
,,60906c79f8cfd718d6dcb3df,2022-09-08_10h47.48.375,CGTgamblingSpanTasks,2022.2.1,Win32,138.4849744,,,,,,,,2.6116,,,,,,,,,,,,,,1,n,1.3884,5.526483034,0,4.1116,1.5,,,,,,9.725876653,0,5.526483034,,,,,,,,,,,,,0,24,24,44,1,0.082550696,0,,,,,,,,,,,,,,,,,,,,,,,,,,,,,,,,,,,,,,,,,,,,,,,,,,,,,,,,,,,,,,,,,,,,,,,,,,,,,,,,
,,60906c79f8cfd718d6dcb3df,2022-09-08_10h47.48.375,CGTgamblingSpanTasks,2022.2.1,Win32,138.4849744,,,,,,,,2.9027,,,,,,,,,,,,,,2,n,1.0973,0,1,3.9027,1,,,,,,21.46599803,0,0.059789256,,,,,,,,,,,,,0,25,25,8,1,0.909019081,0,,,,,,,,,,,,,,,,,,,,,,,,,,,,,,,,,,,,,,,,,,,,,,,,,,,,,,,,,,,,,,,,,,,,,,,,,,,,,,,,
,,60906c79f8cfd718d6dcb3df,2022-09-08_10h47.48.375,CGTgamblingSpanTasks,2022.2.1,Win32,138.4849744,,,,,,,,3.1602,,,,,,,,,,,,,,2,n,0.8398,17.23907308,1,4.1602,1,,,,,,17.23907308,0,2.055848574,,,,,,,,,,,,,0,26,26,66,1,0.450504458,1,,,,,,,,,,,,,,,,,,,,,,,,,,,,,,,,,,,,,,,,,,,,,,,,,,,,,,,,,,,,,,,,,,,,,,,,,,,,,,,,
,,60906c79f8cfd718d6dcb3df,2022-09-08_10h47.48.375,CGTgamblingSpanTasks,2022.2.1,Win32,138.4849744,,,,,,,,3.1721,,,,,,,,,,,,,,2,v,0.8279,6.781500919,0,4.1721,1,,,,,,8.363821911,0,6.781500919,,,,,,,,,,,,,0,27,27,61,1,0.044227959,0,,,,,,,,,,,,,,,,,,,,,,,,,,,,,,,,,,,,,,,,,,,,,,,,,,,,,,,,,,,,,,,,,,,,,,,,,,,,,,,,
,,60906c79f8cfd718d6dcb3df,2022-09-08_10h47.48.375,CGTgamblingSpanTasks,2022.2.1,Win32,138.4849744,,,,,,,,3.1855,,,,,,,,,,,,,,2,v,0.8145,2.810531415,0,4.1855,1,,,,,,29.75778644,0,2.810531415,,,,,,,,,,,,,0,28,28,113,1,0.512824233,1,,,,,,,,,,,,,,,,,,,,,,,,,,,,,,,,,,,,,,,,,,,,,,,,,,,,,,,,,,,,,,,,,,,,,,,,,,,,,,,,
,,60906c79f8cfd718d6dcb3df,2022-09-08_10h47.48.375,CGTgamblingSpanTasks,2022.2.1,Win32,138.4849744,,,,,,,,2.9651,,,,,,,,,,,,,,1,v,1.0349,28.9323758,1,3.9651,1,,,,,,28.9323758,0,2.893007023,,,,,,,,,,,,,0,29,29,11,1,0.497943321,1,,,,,,,,,,,,,,,,,,,,,,,,,,,,,,,,,,,,,,,,,,,,,,,,,,,,,,,,,,,,,,,,,,,,,,,,,,,,,,,,
,,60906c79f8cfd718d6dcb3df,2022-09-08_10h47.48.375,CGTgamblingSpanTasks,2022.2.1,Win32,138.4849744,,,,,,,,3.1715,,,,,,,,,,,,,,1,v,0.8285,0,1,4.6715,1.5,,,,,,27.94544945,0,2.32030209,,,,,,,,,,,,,0,30,30,115,1,0.545390564,1,,,,,,,,,,,,,,,,,,,,,,,,,,,,,,,,,,,,,,,,,,,,,,,,,,,,,,,,,,,,,,,,,,,,,,,,,,,,,,,,
,,60906c79f8cfd718d6dcb3df,2022-09-08_10h47.48.375,CGTgamblingSpanTasks,2022.2.1,Win32,138.4849744,,,,,,,,3.1664,,,,,,,,,,,,,,1,n,0.8336,8.512335864,0,4.1664,1,,,,,,10.05300841,0,8.512335864,,,,,,,,,,,,,0,31,31,74,1,0.040729225,0,,,,,,,,,,,,,,,,,,,,,,,,,,,,,,,,,,,,,,,,,,,,,,,,,,,,,,,,,,,,,,,,,,,,,,,,,,,,,,,,
,,60906c79f8cfd718d6dcb3df,2022-09-08_10h47.48.375,CGTgamblingSpanTasks,2022.2.1,Win32,138.4849744,,,,,,,,2.7352,,,,,,,,,,,,,,2,n,1.2648,25.76582409,1,3.7352,1,,,,,,25.76582409,0,2.393193076,,,,,,,,,,,,,0,32,32,46,1,0.517129855,1,,,,,,,,,,,,,,,,,,,,,,,,,,,,,,,,,,,,,,,,,,,,,,,,,,,,,,,,,,,,,,,,,,,,,,,,,,,,,,,,
,,60906c79f8cfd718d6dcb3df,2022-09-08_10h47.48.375,CGTgamblingSpanTasks,2022.2.1,Win32,138.4849744,,,,,,,,3.1384,,,,,,,,,,,,,,2,n,0.8616,27.37527992,1,4.6384,1.5,,,,,,27.37527992,0,2.860319095,,,,,,,,,,,,,0,33,33,39,1,0.486304156,1,,,,,,,,,,,,,,,,,,,,,,,,,,,,,,,,,,,,,,,,,,,,,,,,,,,,,,,,,,,,,,,,,,,,,,,,,,,,,,,,
,,60906c79f8cfd718d6dcb3df,2022-09-08_10h47.48.375,CGTgamblingSpanTasks,2022.2.1,Win32,138.4849744,,,,,,,,3.068,,,,,,,,,,,,,,1,v,0.932,27.4965044,1,4.068,1,,,,,,27.4965044,0,2.461467004,,,,,,,,,,,,,0,34,34,36,1,0.526550878,1,,,,,,,,,,,,,,,,,,,,,,,,,,,,,,,,,,,,,,,,,,,,,,,,,,,,,,,,,,,,,,,,,,,,,,,,,,,,,,,,
,,60906c79f8cfd718d6dcb3df,2022-09-08_10h47.48.375,CGTgamblingSpanTasks,2022.2.1,Win32,138.4849744,,,,,,,,3.0618,,,,,,,,,,,,,,2,n,0.9382,19.58698544,1,4.5618,1.5,,,,,,19.58698544,0,9.936178001,,,,,,,,,,,,,0,35,35,77,1,0.098812204,0,,,,,,,,,,,,,,,,,,,,,,,,,,,,,,,,,,,,,,,,,,,,,,,,,,,,,,,,,,,,,,,,,,,,,,,,,,,,,,,,
,,60906c79f8cfd718d6dcb3df,2022-09-08_10h47.48.375,CGTgamblingSpanTasks,2022.2.1,Win32,138.4849744,,,,,,,,3.3525,,,,,,,,,,,,,,1,n,0.6475,1.002188111,0,4.8525,1.5,,,,,,9.012590634,0,1.002188111,,,,,,,,,,,,,0,36,36,12,1,0.46958041,1,,,,,,,,,,,,,,,,,,,,,,,,,,,,,,,,,,,,,,,,,,,,,,,,,,,,,,,,,,,,,,,,,,,,,,,,,,,,,,,,
,,60906c79f8cfd718d6dcb3df,2022-09-08_10h47.48.375,CGTgamblingSpanTasks,2022.2.1,Win32,138.4849744,,,,,,,,3.2703,,,,,,,,,,,,,,1,v,0.7297,0,1,4.2703,1,,,,,,24.479109,0,0.089582697,,,,,,,,,,,,,0,37,37,89,1,0.900200232,0,,,,,,,,,,,,,,,,,,,,,,,,,,,,,,,,,,,,,,,,,,,,,,,,,,,,,,,,,,,,,,,,,,,,,,,,,,,,,,,,
,,60906c79f8cfd718d6dcb3df,2022-09-08_10h47.48.375,CGTgamblingSpanTasks,2022.2.1,Win32,138.4849744,,,,,,,,2.9072,,,,,,,,,,,,,,2,v,1.0928,10.41201161,0,4.4072,1.5,,,,,,6.307062696,0,10.41201161,,,,,,,,,,,,,0,38,38,23,1,0.018187109,0,,,,,,,,,,,,,,,,,,,,,,,,,,,,,,,,,,,,,,,,,,,,,,,,,,,,,,,,,,,,,,,,,,,,,,,,,,,,,,,,
,,60906c79f8cfd718d6dcb3df,2022-09-08_10h47.48.375,CGTgamblingSpanTasks,2022.2.1,Win32,138.4849744,,,,,,,,2.854,,,,,,,,,,,,,,2,v,1.146,2.738695417,0,4.354,1.5,,,,,,24.35708027,0,2.738695417,,,,,,,,,,,,,0,39,39,114,1,0.466573634,1,,,,,,,,,,,,,,,,,,,,,,,,,,,,,,,,,,,,,,,,,,,,,,,,,,,,,,,,,,,,,,,,,,,,,,,,,,,,,,,,
,,60906c79f8cfd718d6dcb3df,2022-09-08_10h47.48.375,CGTgamblingSpanTasks,2022.2.1,Win32,138.4849744,,,,,,,,3.0589,,,,,,,,,,,,,,2,n,0.9411,0,1,4.5589,1.5,,,,,,26.11188619,0,0.081942421,,,,,,,,,,,,,0,40,40,105,1,0.905343856,0,,,,,,,,,,,,,,,,,,,,,,,,,,,,,,,,,,,,,,,,,,,,,,,,,,,,,,,,,,,,,,,,,,,,,,,,,,,,,,,,
,,60906c79f8cfd718d6dcb3df,2022-09-08_10h47.48.375,CGTgamblingSpanTasks,2022.2.1,Win32,138.4849744,,,,,,,,3.1652,,,,,,,,,,,,,,2,n,0.8348,0,1,4.6652,1.5,,,,,,25.65316415,0,0.079652925,,,,,,,,,,,,,0,41,41,109,1,0.90568168,0,,,,,,,,,,,,,,,,,,,,,,,,,,,,,,,,,,,,,,,,,,,,,,,,,,,,,,,,,,,,,,,,,,,,,,,,,,,,,,,,
,,60906c79f8cfd718d6dcb3df,2022-09-08_10h47.48.375,CGTgamblingSpanTasks,2022.2.1,Win32,138.4849744,,,,,,,,3.1938,,,,,,,,,,,,,,2,n,0.8062,0,1,4.1938,1,,,,,,21.2188881,0,2.067660742,,,,,,,,,,,,,0,42,42,107,1,0.50470775,1,,,,,,,,,,,,,,,,,,,,,,,,,,,,,,,,,,,,,,,,,,,,,,,,,,,,,,,,,,,,,,,,,,,,,,,,,,,,,,,,
,,60906c79f8cfd718d6dcb3df,2022-09-08_10h47.48.375,CGTgamblingSpanTasks,2022.2.1,Win32,138.4849744,,,,,,,,3.2934,,,,,,,,,,,,,,1,v,0.7066,25.54604005,1,4.2934,1,,,,,,25.54604005,0,0.088845411,,,,,,,,,,,,,0,43,43,79,1,0.901957831,0,,,,,,,,,,,,,,,,,,,,,,,,,,,,,,,,,,,,,,,,,,,,,,,,,,,,,,,,,,,,,,,,,,,,,,,,,,,,,,,,
,,60906c79f8cfd718d6dcb3df,2022-09-08_10h47.48.375,CGTgamblingSpanTasks,2022.2.1,Win32,138.4849744,,,,,,,,3.0483,,,,,,,,,,,,,,2,v,0.9517,7.646213173,0,4.5483,1.5,,,,,,2.042350179,0,7.646213173,,,,,,,,,,,,,0,44,44,53,1,0.009522273,0,,,,,,,,,,,,,,,,,,,,,,,,,,,,,,,,,,,,,,,,,,,,,,,,,,,,,,,,,,,,,,,,,,,,,,,,,,,,,,,,
,,60906c79f8cfd718d6dcb3df,2022-09-08_10h47.48.375,CGTgamblingSpanTasks,2022.2.1,Win32,138.4849744,,,,,,,,2.9642,,,,,,,,,,,,,,2,n,1.0358,0,1,3.9642,1,,,,,,15.43649625,0,1.65459324,,,,,,,,,,,,,0,45,45,33,1,0.479480163,1,,,,,,,,,,,,,,,,,,,,,,,,,,,,,,,,,,,,,,,,,,,,,,,,,,,,,,,,,,,,,,,,,,,,,,,,,,,,,,,,
,,60906c79f8cfd718d6dcb3df,2022-09-08_10h47.48.375,CGTgamblingSpanTasks,2022.2.1,Win32,138.4849744,,,,,,,,3.0695,,,,,,,,,,,,,,2,v,0.9305,1.843597162,0,4.0695,1,,,,,,19.68065872,0,1.843597162,,,,,,,,,,,,,0,46,46,80,1,0.514941058,1,,,,,,,,,,,,,,,,,,,,,,,,,,,,,,,,,,,,,,,,,,,,,,,,,,,,,,,,,,,,,,,,,,,,,,,,,,,,,,,,
,,60906c79f8cfd718d6dcb3df,2022-09-08_10h47.48.375,CGTgamblingSpanTasks,2022.2.1,Win32,138.4849744,,,,,,,,3.2694,,,,,,,,,,,,,,2,n,0.7306,18.11029021,1,4.7694,1.5,,,,,,18.11029021,0,11.41737518,,,,,,,,,,,,,0,47,47,48,1,0.069445859,0,,,,,,,,,,,,,,,,,,,,,,,,,,,,,,,,,,,,,,,,,,,,,,,,,,,,,,,,,,,,,,,,,,,,,,,,,,,,,,,,
,,60906c79f8cfd718d6dcb3df,2022-09-08_10h47.48.375,CGTgamblingSpanTasks,2022.2.1,Win32,138.4849744,,,,,,,,3.1182,,,,,,,,,,,,,,2,v,0.8818,7.850775577,0,4.6182,1.5,,,,,,4.622707531,0,7.850775577,,,,,,,,,,,,,0,48,48,6,1,0.017737407,0,,,,,,,,,,,,,,,,,,,,,,,,,,,,,,,,,,,,,,,,,,,,,,,,,,,,,,,,,,,,,,,,,,,,,,,,,,,,,,,,
,,60906c79f8cfd718d6dcb3df,2022-09-08_10h47.48.375,CGTgamblingSpanTasks,2022.2.1,Win32,138.4849744,,,,,,,,2.9865,,,,,,,,,,,,,,2,n,1.0135,0,1,3.9865,1,,,,,,28.13634754,0,2.532806323,,,,,,,,,,,,,0,49,49,28,1,0.525136524,1,,,,,,,,,,,,,,,,,,,,,,,,,,,,,,,,,,,,,,,,,,,,,,,,,,,,,,,,,,,,,,,,,,,,,,,,,,,,,,,,
,,60906c79f8cfd718d6dcb3df,2022-09-08_10h47.48.375,CGTgamblingSpanTasks,2022.2.1,Win32,138.4849744,,,,,,,,3.0621,,,,,,,,,,,,,,1,v,0.9379,15.21435748,1,4.5621,1.5,,,,,,15.21435748,0,10.3417501,,,,,,,,,,,,,0,50,50,72,1,0.060969226,0,,,,,,,,,,,,,,,,,,,,,,,,,,,,,,,,,,,,,,,,,,,,,,,,,,,,,,,,,,,,,,,,,,,,,,,,,,,,,,,,
,,60906c79f8cfd718d6dcb3df,2022-09-08_10h47.48.375,CGTgamblingSpanTasks,2022.2.1,Win32,138.4849744,,,,,,,,3.1443,,,,,,,,,,,,,,1,n,0.8557,10.31611309,0,4.1443,1,,,,,,19.30622782,0,10.31611309,,,,,,,,,,,,,0,51,51,1,1,0.091105656,0,,,,,,,,,,,,,,,,,,,,,,,,,,,,,,,,,,,,,,,,,,,,,,,,,,,,,,,,,,,,,,,,,,,,,,,,,,,,,,,,
,,60906c79f8cfd718d6dcb3df,2022-09-08_10h47.48.375,CGTgamblingSpanTasks,2022.2.1,Win32,138.4849744,,,,,,,,3.2076,,,,,,,,,,,,,,1,v,0.7924,0,1,4.7076,1.5,,,,,,7.066129113,0,0.585581699,,,,,,,,,,,,,0,52,52,19,1,0.545860632,1,,,,,,,,,,,,,,,,,,,,,,,,,,,,,,,,,,,,,,,,,,,,,,,,,,,,,,,,,,,,,,,,,,,,,,,,,,,,,,,,
,,60906c79f8cfd718d6dcb3df,2022-09-08_10h47.48.375,CGTgamblingSpanTasks,2022.2.1,Win32,138.4849744,,,,,,,,3.0693,,,,,,,,,,,,,,1,v,0.9307,24.57684014,1,4.5693,1.5,,,,,,24.57684014,0,0.061756244,,,,,,,,,,,,,0,53,53,68,1,0.911988903,0,,,,,,,,,,,,,,,,,,,,,,,,,,,,,,,,,,,,,,,,,,,,,,,,,,,,,,,,,,,,,,,,,,,,,,,,,,,,,,,,
,,60906c79f8cfd718d6dcb3df,2022-09-08_10h47.48.375,CGTgamblingSpanTasks,2022.2.1,Win32,138.4849744,,,,,,,,2.9583,,,,,,,,,,,,,,2,v,1.0417,4.462262453,0,4.4583,1.5,,,,,,0.192759042,0,4.462262453,,,,,,,,,,,,,0,54,54,52,1,0.003553223,0,,,,,,,,,,,,,,,,,,,,,,,,,,,,,,,,,,,,,,,,,,,,,,,,,,,,,,,,,,,,,,,,,,,,,,,,,,,,,,,,
,,60906c79f8cfd718d6dcb3df,2022-09-08_10h47.48.375,CGTgamblingSpanTasks,2022.2.1,Win32,138.4849744,,,,,,,,3.0818,,,,,,,,,,,,,,1,v,0.9182,0,1,4.5818,1.5,,,,,,27.93093084,0,0.050207531,,,,,,,,,,,,,0,55,55,83,1,0.920505936,0,,,,,,,,,,,,,,,,,,,,,,,,,,,,,,,,,,,,,,,,,,,,,,,,,,,,,,,,,,,,,,,,,,,,,,,,,,,,,,,,
,,60906c79f8cfd718d6dcb3df,2022-09-08_10h47.48.375,CGTgamblingSpanTasks,2022.2.1,Win32,138.4849744,,,,,,,,2.922,,,,,,,,,,,,,,1,v,1.078,27.38828234,1,3.922,1,,,,,,27.38828234,0,0.0639233,,,,,,,,,,,,,0,56,56,43,1,0.914010176,0,,,,,,,,,,,,,,,,,,,,,,,,,,,,,,,,,,,,,,,,,,,,,,,,,,,,,,,,,,,,,,,,,,,,,,,,,,,,,,,,
,,60906c79f8cfd718d6dcb3df,2022-09-08_10h47.48.375,CGTgamblingSpanTasks,2022.2.1,Win32,138.4849744,,,,,,,,3.1936,,,,,,,,,,,,,,2,n,0.8064,0,1,4.6936,1.5,,,,,,22.87092517,0,0.059276504,,,,,,,,,,,,,0,57,57,27,1,0.911114935,0,,,,,,,,,,,,,,,,,,,,,,,,,,,,,,,,,,,,,,,,,,,,,,,,,,,,,,,,,,,,,,,,,,,,,,,,,,,,,,,,
,,60906c79f8cfd718d6dcb3df,2022-09-08_10h47.48.375,CGTgamblingSpanTasks,2022.2.1,Win32,138.4849744,,,,,,,,3.2006,,,,,,,,,,,,,,1,v,0.7994,0,1,4.2006,1,,,,,,26.4985979,0,0.051324376,,,,,,,,,,,,,0,58,58,106,1,0.918747215,0,,,,,,,,,,,,,,,,,,,,,,,,,,,,,,,,,,,,,,,,,,,,,,,,,,,,,,,,,,,,,,,,,,,,,,,,,,,,,,,,
,,60906c79f8cfd718d6dcb3df,2022-09-08_10h47.48.375,CGTgamblingSpanTasks,2022.2.1,Win32,138.4849744,,,,,,,,3.0693,,,,,,,,,,,,,,1,n,0.9307,11.93550497,0,4.5693,1.5,,,,,,14.20587264,0,11.93550497,,,,,,,,,,,,,0,59,59,21,1,0.041340301,0,,,,,,,,,,,,,,,,,,,,,,,,,,,,,,,,,,,,,,,,,,,,,,,,,,,,,,,,,,,,,,,,,,,,,,,,,,,,,,,,
,,60906c79f8cfd718d6dcb3df,2022-09-08_10h47.48.375,CGTgamblingSpanTasks,2022.2.1,Win32,138.4849744,,,,,,,,3.1806,,,,,,,,,,,,,,1,n,0.8194,2.78925142,0,4.6806,1.5,,,,,,25.26994993,0,2.78925142,,,,,,,,,,,,,0,60,60,108,1,0.471582922,1,,,,,,,,,,,,,,,,,,,,,,,,,,,,,,,,,,,,,,,,,,,,,,,,,,,,,,,,,,,,,,,,,,,,,,,,,,,,,,,,
,,60906c79f8cfd718d6dcb3df,2022-09-08_10h47.48.375,CGTgamblingSpanTasks,2022.2.1,Win32,138.4849744,,,,,,,,3.11,,,,,,,,,,,,,,2,v,0.89,3.877530383,0,4.61,1.5,,,,,,3.471484939,0,3.877530383,,,,,,,,,,,,,0,61,61,40,1,0.02623078,0,,,,,,,,,,,,,,,,,,,,,,,,,,,,,,,,,,,,,,,,,,,,,,,,,,,,,,,,,,,,,,,,,,,,,,,,,,,,,,,,
,,60906c79f8cfd718d6dcb3df,2022-09-08_10h47.48.375,CGTgamblingSpanTasks,2022.2.1,Win32,138.4849744,,,,,,,,2.6181,,,,,,,,,,,,,,1,v,1.3819,19.3050342,1,4.1181,1.5,,,,,,19.3050342,0,2.030232342,,,,,,,,,,,,,0,62,62,73,1,0.484573227,1,,,,,,,,,,,,,,,,,,,,,,,,,,,,,,,,,,,,,,,,,,,,,,,,,,,,,,,,,,,,,,,,,,,,,,,,,,,,,,,,
,,60906c79f8cfd718d6dcb3df,2022-09-08_10h47.48.375,CGTgamblingSpanTasks,2022.2.1,Win32,138.4849744,,,,,,,,3.111,,,,,,,,,,,,,,1,n,0.889,1.591282699,0,4.611,1.5,,,,,,13.96521039,0,1.591282699,,,,,,,,,,,,,0,63,63,49,1,0.462956344,1,,,,,,,,,,,,,,,,,,,,,,,,,,,,,,,,,,,,,,,,,,,,,,,,,,,,,,,,,,,,,,,,,,,,,,,,,,,,,,,,
,,60906c79f8cfd718d6dcb3df,2022-09-08_10h47.48.375,CGTgamblingSpanTasks,2022.2.1,Win32,138.4849744,,,,,,,,3.0695,,,,,,,,,,,,,,2,n,0.9305,0,1,4.0695,1,,,,,,22.25959835,0,0.065383587,,,,,,,,,,,,,0,64,64,97,1,0.907413875,0,,,,,,,,,,,,,,,,,,,,,,,,,,,,,,,,,,,,,,,,,,,,,,,,,,,,,,,,,,,,,,,,,,,,,,,,,,,,,,,,
,,60906c79f8cfd718d6dcb3df,2022-09-08_10h47.48.375,CGTgamblingSpanTasks,2022.2.1,Win32,138.4849744,,,,,,,,3.2356,,,,,,,,,,,,,,2,n,0.7644,25.0707644,1,4.7356,1.5,,,,,,25.0707644,0,0.067651625,,,,,,,,,,,,,0,65,65,70,1,0.909952349,0,,,,,,,,,,,,,,,,,,,,,,,,,,,,,,,,,,,,,,,,,,,,,,,,,,,,,,,,,,,,,,,,,,,,,,,,,,,,,,,,
,,60906c79f8cfd718d6dcb3df,2022-09-08_10h47.48.375,CGTgamblingSpanTasks,2022.2.1,Win32,138.4849744,,,,,,,,3.0271,,,,,,,,,,,,,,2,n,0.9729,0,1,4.5271,1.5,,,,,,21.17800335,0,0.059830985,,,,,,,,,,,,,0,66,66,67,1,0.908594974,0,,,,,,,,,,,,,,,,,,,,,,,,,,,,,,,,,,,,,,,,,,,,,,,,,,,,,,,,,,,,,,,,,,,,,,,,,,,,,,,,
,,60906c79f8cfd718d6dcb3df,2022-09-08_10h47.48.375,CGTgamblingSpanTasks,2022.2.1,Win32,138.4849744,,,,,,,,2.722,,,,,,,,,,,,,,2,n,1.278,19.36415485,1,3.722,1,,,,,,19.36415485,0,1.966229494,,,,,,,,,,,,,0,67,67,96,1,0.493893111,1,,,,,,,,,,,,,,,,,,,,,,,,,,,,,,,,,,,,,,,,,,,,,,,,,,,,,,,,,,,,,,,,,,,,,,,,,,,,,,,,
,,60906c79f8cfd718d6dcb3df,2022-09-08_10h47.48.375,CGTgamblingSpanTasks,2022.2.1,Win32,138.4849744,,,,,,,,3.3331,,,,,,,,,,,,,,1,v,0.6669,13.4287264,1,4.8331,1.5,,,,,,13.4287264,0,1.317368801,,,,,,,,,,,,,0,68,68,100,1,0.502953125,1,,,,,,,,,,,,,,,,,,,,,,,,,,,,,,,,,,,,,,,,,,,,,,,,,,,,,,,,,,,,,,,,,,,,,,,,,,,,,,,,
,,60906c79f8cfd718d6dcb3df,2022-09-08_10h47.48.375,CGTgamblingSpanTasks,2022.2.1,Win32,138.4849744,,,,,,,,3.153,,,,,,,,,,,,,,2,n,0.847,27.88092897,1,4.153,1,,,,,,27.88092897,0,2.771762788,,,,,,,,,,,,,0,69,69,117,1,0.499466648,1,,,,,,,,,,,,,,,,,,,,,,,,,,,,,,,,,,,,,,,,,,,,,,,,,,,,,,,,,,,,,,,,,,,,,,,,,,,,,,,,
,,60906c79f8cfd718d6dcb3df,2022-09-08_10h47.48.375,CGTgamblingSpanTasks,2022.2.1,Win32,138.4849744,,,,,,,,3.1875,,,,,,,,,,,,,,1,v,0.8125,27.60724521,1,4.6875,1.5,,,,,,27.60724521,0,0.088432325,,,,,,,,,,,,,0,70,70,17,1,0.904684186,0,,,,,,,,,,,,,,,,,,,,,,,,,,,,,,,,,,,,,,,,,,,,,,,,,,,,,,,,,,,,,,,,,,,,,,,,,,,,,,,,
,,60906c79f8cfd718d6dcb3df,2022-09-08_10h47.48.375,CGTgamblingSpanTasks,2022.2.1,Win32,138.4849744,,,,,,,,3.0899,,,,,,,,,,,,,,1,n,0.9101,2.663622024,0,4.5899,1.5,,,,,,28.9381277,0,2.663622024,,,,,,,,,,,,,0,71,71,103,1,0.519453367,1,,,,,,,,,,,,,,,,,,,,,,,,,,,,,,,,,,,,,,,,,,,,,,,,,,,,,,,,,,,,,,,,,,,,,,,,,,,,,,,,
,,60906c79f8cfd718d6dcb3df,2022-09-08_10h47.48.375,CGTgamblingSpanTasks,2022.2.1,Win32,138.4849744,,,,,,,,2.4583,,,,,,,,,,,,,,2,v,1.5417,11.19311486,0,3.9583,1.5,,,,,,8.17598802,0,11.19311486,,,,,,,,,,,,,0,72,72,110,1,0.021568003,0,,,,,,,,,,,,,,,,,,,,,,,,,,,,,,,,,,,,,,,,,,,,,,,,,,,,,,,,,,,,,,,,,,,,,,,,,,,,,,,,
,,60906c79f8cfd718d6dcb3df,2022-09-08_10h47.48.375,CGTgamblingSpanTasks,2022.2.1,Win32,138.4849744,,,,,,,,2.9097,,,,,,,,,,,,,,1,v,1.0903,27.7711693,1,4.4097,1.5,,,,,,27.7711693,0,2.320849632,,,,,,,,,,,,,0,73,73,94,1,0.543786368,1,,,,,,,,,,,,,,,,,,,,,,,,,,,,,,,,,,,,,,,,,,,,,,,,,,,,,,,,,,,,,,,,,,,,,,,,,,,,,,,,
,,60906c79f8cfd718d6dcb3df,2022-09-08_10h47.48.375,CGTgamblingSpanTasks,2022.2.1,Win32,138.4849744,,,,,,,,2.7819,,,,,,,,,,,,,,2,n,1.2181,0,1,4.2819,1.5,,,,,,27.53810185,0,0.097022401,,,,,,,,,,,,,0,74,74,50,1,0.901515865,0,,,,,,,,,,,,,,,,,,,,,,,,,,,,,,,,,,,,,,,,,,,,,,,,,,,,,,,,,,,,,,,,,,,,,,,,,,,,,,,,
,,60906c79f8cfd718d6dcb3df,2022-09-08_10h47.48.375,CGTgamblingSpanTasks,2022.2.1,Win32,138.4849744,,,,,,,,3.0894,,,,,,,,,,,,,,2,n,0.9106,14.3363647,1,4.0894,1,,,,,,14.3363647,0,1.396635362,,,,,,,,,,,,,0,75,75,78,1,0.504775474,1,,,,,,,,,,,,,,,,,,,,,,,,,,,,,,,,,,,,,,,,,,,,,,,,,,,,,,,,,,,,,,,,,,,,,,,,,,,,,,,,
,,60906c79f8cfd718d6dcb3df,2022-09-08_10h47.48.375,CGTgamblingSpanTasks,2022.2.1,Win32,138.4849744,,,,,,,,2.9728,,,,,,,,,,,,,,1,v,1.0272,0,1,3.9728,1,,,,,,18.51345298,0,1.932334278,,,,,,,,,,,,,0,76,76,31,1,0.48658696,1,,,,,,,,,,,,,,,,,,,,,,,,,,,,,,,,,,,,,,,,,,,,,,,,,,,,,,,,,,,,,,,,,,,,,,,,,,,,,,,,
,,60906c79f8cfd718d6dcb3df,2022-09-08_10h47.48.375,CGTgamblingSpanTasks,2022.2.1,Win32,138.4849744,,,,,,,,2.8118,,,,,,,,,,,,,,1,v,1.1882,17.30137174,1,4.3118,1.5,,,,,,17.30137174,0,1.716380842,,,,,,,,,,,,,0,77,77,20,1,0.500020285,1,,,,,,,,,,,,,,,,,,,,,,,,,,,,,,,,,,,,,,,,,,,,,,,,,,,,,,,,,,,,,,,,,,,,,,,,,,,,,,,,
,,60906c79f8cfd718d6dcb3df,2022-09-08_10h47.48.375,CGTgamblingSpanTasks,2022.2.1,Win32,138.4849744,,,,,,,,2.8808,,,,,,,,,,,,,,2,v,1.1192,4.251676631,0,4.3808,1.5,,,,,,3.395192929,0,4.251676631,,,,,,,,,,,,,0,78,78,7,1,0.023467153,0,,,,,,,,,,,,,,,,,,,,,,,,,,,,,,,,,,,,,,,,,,,,,,,,,,,,,,,,,,,,,,,,,,,,,,,,,,,,,,,,
,,60906c79f8cfd718d6dcb3df,2022-09-08_10h47.48.375,CGTgamblingSpanTasks,2022.2.1,Win32,138.4849744,,,,,,,,3.1313,,,,,,,,,,,,,,1,n,0.8687,2.003482335,0,4.1313,1,,,,,,23.24777057,0,2.003482335,,,,,,,,,,,,,0,79,79,59,1,0.536135174,1,,,,,,,,,,,,,,,,,,,,,,,,,,,,,,,,,,,,,,,,,,,,,,,,,,,,,,,,,,,,,,,,,,,,,,,,,,,,,,,,
,,60906c79f8cfd718d6dcb3df,2022-09-08_10h47.48.375,CGTgamblingSpanTasks,2022.2.1,Win32,138.4849744,,,,,,,,2.998,,,,,,,,,,,,,,1,v,1.002,0,1,4.498,1.5,,,,,,21.48443242,0,2.229247341,,,,,,,,,,,,,0,80,80,63,1,0.488155912,1,,,,,,,,,,,,,,,,,,,,,,,,,,,,,,,,,,,,,,,,,,,,,,,,,,,,,,,,,,,,,,,,,,,,,,,,,,,,,,,,
,,60906c79f8cfd718d6dcb3df,2022-09-08_10h47.48.375,CGTgamblingSpanTasks,2022.2.1,Win32,138.4849744,,,,,,,,3.2148,,,,,,,,,,,,,,2,n,0.7852,10.43004651,1,4.7148,1.5,,,,,,10.43004651,0,11.6744431,,,,,,,,,,,,,0,81,81,15,1,0.026176489,0,,,,,,,,,,,,,,,,,,,,,,,,,,,,,,,,,,,,,,,,,,,,,,,,,,,,,,,,,,,,,,,,,,,,,,,,,,,,,,,,
,,60906c79f8cfd718d6dcb3df,2022-09-08_10h47.48.375,CGTgamblingSpanTasks,2022.2.1,Win32,138.4849744,,,,,,,,2.4239,,,,,,,,,,,,,,1,v,1.5761,0,1,3.4239,1,,,,,,21.16780451,0,2.469465385,,,,,,,,,,,,,0,82,82,32,1,0.456531699,1,,,,,,,,,,,,,,,,,,,,,,,,,,,,,,,,,,,,,,,,,,,,,,,,,,,,,,,,,,,,,,,,,,,,,,,,,,,,,,,,
,,60906c79f8cfd718d6dcb3df,2022-09-08_10h47.48.375,CGTgamblingSpanTasks,2022.2.1,Win32,138.4849744,,,,,,,,2.9087,,,,,,,,,,,,,,1,v,1.0913,0,1,3.9087,1,,,,,,17.64114152,0,10.68505773,,,,,,,,,,,,,0,83,83,98,1,0.074299362,0,,,,,,,,,,,,,,,,,,,,,,,,,,,,,,,,,,,,,,,,,,,,,,,,,,,,,,,,,,,,,,,,,,,,,,,,,,,,,,,,
,,60906c79f8cfd718d6dcb3df,2022-09-08_10h47.48.375,CGTgamblingSpanTasks,2022.2.1,Win32,138.4849744,,,,,,,,3.0141,,,,,,,,,,,,,,1,v,0.9859,18.16238569,1,4.0141,1,,,,,,18.16238569,0,1.540604093,,,,,,,,,,,,,0,84,84,34,1,0.540092491,1,,,,,,,,,,,,,,,,,,,,,,,,,,,,,,,,,,,,,,,,,,,,,,,,,,,,,,,,,,,,,,,,,,,,,,,,,,,,,,,,
,,60906c79f8cfd718d6dcb3df,2022-09-08_10h47.48.375,CGTgamblingSpanTasks,2022.2.1,Win32,138.4849744,,,,,,,,3.1936,,,,,,,,,,,,,,2,n,0.8064,0,1,4.6936,1.5,,,,,,18.20422443,0,1.635040165,,,,,,,,,,,,,0,85,85,82,1,0.525708991,1,,,,,,,,,,,,,,,,,,,,,,,,,,,,,,,,,,,,,,,,,,,,,,,,,,,,,,,,,,,,,,,,,,,,,,,,,,,,,,,,
,,60906c79f8cfd718d6dcb3df,2022-09-08_10h47.48.375,CGTgamblingSpanTasks,2022.2.1,Win32,138.4849744,,,,,,,,3.1597,,,,,,,,,,,,,,1,n,0.8403,4.904872644,0,4.1597,1,,,,,,4.698775357,0,4.904872644,,,,,,,,,,,,,0,86,86,75,1,0.028064484,0,,,,,,,,,,,,,,,,,,,,,,,,,,,,,,,,,,,,,,,,,,,,,,,,,,,,,,,,,,,,,,,,,,,,,,,,,,,,,,,,
,,60906c79f8cfd718d6dcb3df,2022-09-08_10h47.48.375,CGTgamblingSpanTasks,2022.2.1,Win32,138.4849744,,,,,,,,2.4436,,,,,,,,,,,,,,1,v,1.5564,0,1,3.4436,1,,,,,,8.670591867,0,1.025847652,,,,,,,,,,,,,0,87,87,18,1,0.452680459,1,,,,,,,,,,,,,,,,,,,,,,,,,,,,,,,,,,,,,,,,,,,,,,,,,,,,,,,,,,,,,,,,,,,,,,,,,,,,,,,,
,,60906c79f8cfd718d6dcb3df,2022-09-08_10h47.48.375,CGTgamblingSpanTasks,2022.2.1,Win32,138.4849744,,,,,,,,2.7984,,,,,,,,,,,,,,2,v,1.2016,1.207538756,0,3.7984,1,,,,,,11.08143071,0,1.207538756,,,,,,,,,,,,,0,88,88,84,1,0.475047453,1,,,,,,,,,,,,,,,,,,,,,,,,,,,,,,,,,,,,,,,,,,,,,,,,,,,,,,,,,,,,,,,,,,,,,,,,,,,,,,,,
,,60906c79f8cfd718d6dcb3df,2022-09-08_10h47.48.375,CGTgamblingSpanTasks,2022.2.1,Win32,138.4849744,,,,,,,,3.0689,,,,,,,,,,,,,,1,v,0.9311,0,1,4.5689,1.5,,,,,,25.21882231,0,0.085746782,,,,,,,,,,,,,0,89,89,64,1,0.90272076,0,,,,,,,,,,,,,,,,,,,,,,,,,,,,,,,,,,,,,,,,,,,,,,,,,,,,,,,,,,,,,,,,,,,,,,,,,,,,,,,,
,,60906c79f8cfd718d6dcb3df,2022-09-08_10h47.48.375,CGTgamblingSpanTasks,2022.2.1,Win32,138.4849744,,,,,,,,2.639,,,,,,,,,,,,,,2,n,1.361,0,1,3.639,1,,,,,,24.66627941,0,2.765426402,,,,,,,,,,,,,0,90,90,24,1,0.467360588,1,,,,,,,,,,,,,,,,,,,,,,,,,,,,,,,,,,,,,,,,,,,,,,,,,,,,,,,,,,,,,,,,,,,,,,,,,,,,,,,,
,,60906c79f8cfd718d6dcb3df,2022-09-08_10h47.48.375,CGTgamblingSpanTasks,2022.2.1,Win32,138.4849744,,,,,,,,2.8268,,,,,,,,,,,,,,2,v,1.1732,5.683635938,0,3.8268,1,,,,,,4.941039335,0,5.683635938,,,,,,,,,,,,,0,91,91,9,1,0.025481984,0,,,,,,,,,,,,,,,,,,,,,,,,,,,,,,,,,,,,,,,,,,,,,,,,,,,,,,,,,,,,,,,,,,,,,,,,,,,,,,,,
,,60906c79f8cfd718d6dcb3df,2022-09-08_10h47.48.375,CGTgamblingSpanTasks,2022.2.1,Win32,138.4849744,,,,,,,,2.7635,,,,,,,,,,,,,,2,n,1.2365,17.85020524,1,3.7635,1,,,,,,17.85020524,0,2.058701084,,,,,,,,,,,,,0,92,92,25,1,0.459662216,1,,,,,,,,,,,,,,,,,,,,,,,,,,,,,,,,,,,,,,,,,,,,,,,,,,,,,,,,,,,,,,,,,,,,,,,,,,,,,,,,
,,60906c79f8cfd718d6dcb3df,2022-09-08_10h47.48.375,CGTgamblingSpanTasks,2022.2.1,Win32,138.4849744,,,,,,,,2.9584,,,,,,,,,,,,,,2,n,1.0416,28.68598705,1,4.4584,1.5,,,,,,28.68598705,0,0.050674956,,,,,,,,,,,,,0,93,93,62,1,0.920905497,0,,,,,,,,,,,,,,,,,,,,,,,,,,,,,,,,,,,,,,,,,,,,,,,,,,,,,,,,,,,,,,,,,,,,,,,,,,,,,,,,
,,60906c79f8cfd718d6dcb3df,2022-09-08_10h47.48.375,CGTgamblingSpanTasks,2022.2.1,Win32,138.4849744,,,,,,,,3.0147,,,,,,,,,,,,,,1,n,0.9853,11.61882862,0,4.5147,1.5,,,,,,4.022743614,0,11.61882862,,,,,,,,,,,,,0,94,94,38,1,0.011499376,0,,,,,,,,,,,,,,,,,,,,,,,,,,,,,,,,,,,,,,,,,,,,,,,,,,,,,,,,,,,,,,,,,,,,,,,,,,,,,,,,
,,60906c79f8cfd718d6dcb3df,2022-09-08_10h47.48.375,CGTgamblingSpanTasks,2022.2.1,Win32,138.4849744,,,,,,,,2.9716,,,,,,,,,,,,,,1,v,1.0284,24.8002852,1,3.9716,1,,,,,,24.8002852,0,0.071848086,,,,,,,,,,,,,0,95,95,16,1,0.90783559,0,,,,,,,,,,,,,,,,,,,,,,,,,,,,,,,,,,,,,,,,,,,,,,,,,,,,,,,,,,,,,,,,,,,,,,,,,,,,,,,,
,,60906c79f8cfd718d6dcb3df,2022-09-08_10h47.48.375,CGTgamblingSpanTasks,2022.2.1,Win32,138.4849744,,,,,,,,3.0766,,,,,,,,,,,,,,1,v,0.9234,0,1,4.0766,1,,,,,,7.534278541,0,0.747140182,,,,,,,,,,,,,0,96,96,37,1,0.50012466,1,,,,,,,,,,,,,,,,,,,,,,,,,,,,,,,,,,,,,,,,,,,,,,,,,,,,,,,,,,,,,,,,,,,,,,,,,,,,,,,,
,,60906c79f8cfd718d6dcb3df,2022-09-08_10h47.48.375,CGTgamblingSpanTasks,2022.2.1,Win32,138.4849744,,,,,,,,2.8038,,,,,,,,,,,,,,2,n,1.1962,0,1,4.3038,1.5,,,,,,17.4320197,0,1.448620949,,,,,,,,,,,,,0,97,97,30,1,0.545178213,1,,,,,,,,,,,,,,,,,,,,,,,,,,,,,,,,,,,,,,,,,,,,,,,,,,,,,,,,,,,,,,,,,,,,,,,,,,,,,,,,
,,60906c79f8cfd718d6dcb3df,2022-09-08_10h47.48.375,CGTgamblingSpanTasks,2022.2.1,Win32,138.4849744,,,,,,,,2.8824,,,,,,,,,,,,,,2,n,1.1176,0,1,4.3824,1.5,,,,,,11.16819157,0,0.941456753,,,,,,,,,,,,,0,98,98,45,1,0.54163803,1,,,,,,,,,,,,,,,,,,,,,,,,,,,,,,,,,,,,,,,,,,,,,,,,,,,,,,,,,,,,,,,,,,,,,,,,,,,,,,,,
,,60906c79f8cfd718d6dcb3df,2022-09-08_10h47.48.375,CGTgamblingSpanTasks,2022.2.1,Win32,138.4849744,,,,,,,,3.227,,,,,,,,,,,,,,2,v,0.773,8.579385201,0,4.227,1,,,,,,14.11762686,0,8.579385201,,,,,,,,,,,,,0,99,99,60,1,0.073886959,0,,,,,,,,,,,,,,,,,,,,,,,,,,,,,,,,,,,,,,,,,,,,,,,,,,,,,,,,,,,,,,,,,,,,,,,,,,,,,,,,
,,60906c79f8cfd718d6dcb3df,2022-09-08_10h47.48.375,CGTgamblingSpanTasks,2022.2.1,Win32,138.4849744,,,,,,,,2.7845,,,,,,,,,,,,,,1,v,1.2155,23.0613391,1,4.2845,1.5,,,,,,23.0613391,0,2.387726776,,,,,,,,,,,,,0,100,100,69,1,0.488727763,1,,,,,,,,,,,,,,,,,,,,,,,,,,,,,,,,,,,,,,,,,,,,,,,,,,,,,,,,,,,,,,,,,,,,,,,,,,,,,,,,
,,60906c79f8cfd718d6dcb3df,2022-09-08_10h47.48.375,CGTgamblingSpanTasks,2022.2.1,Win32,138.4849744,,,,,,,,2.9918,,,,,,,,,,,,,,1,v,1.0082,15.13999312,1,3.9918,1,,,,,,15.13999312,0,8.653432553,,,,,,,,,,,,,0,101,101,54,1,0.081767484,0,,,,,,,,,,,,,,,,,,,,,,,,,,,,,,,,,,,,,,,,,,,,,,,,,,,,,,,,,,,,,,,,,,,,,,,,,,,,,,,,
,,60906c79f8cfd718d6dcb3df,2022-09-08_10h47.48.375,CGTgamblingSpanTasks,2022.2.1,Win32,138.4849744,,,,,,,,2.9096,,,,,,,,,,,,,,2,n,1.0904,0,1,3.9096,1,,,,,,28.18900855,0,0.05384276,,,,,,,,,,,,,0,102,102,55,1,0.919081308,0,,,,,,,,,,,,,,,,,,,,,,,,,,,,,,,,,,,,,,,,,,,,,,,,,,,,,,,,,,,,,,,,,,,,,,,,,,,,,,,,
,,60906c79f8cfd718d6dcb3df,2022-09-08_10h47.48.375,CGTgamblingSpanTasks,2022.2.1,Win32,138.4849744,,,,,,,,2.7141,,,,,,,,,,,,,,1,v,1.2859,0,1,4.2141,1.5,,,,,,17.92584289,0,1.878232496,,,,,,,,,,,,,0,103,103,5,1,0.485559263,1,,,,,,,,,,,,,,,,,,,,,,,,,,,,,,,,,,,,,,,,,,,,,,,,,,,,,,,,,,,,,,,,,,,,,,,,,,,,,,,,
,,60906c79f8cfd718d6dcb3df,2022-09-08_10h47.48.375,CGTgamblingSpanTasks,2022.2.1,Win32,138.4849744,,,,,,,,3.1104,,,,,,,,,,,,,,1,v,0.8896,0,1,4.1104,1,,,,,,27.77179191,0,0.074524436,,,,,,,,,,,,,0,104,104,99,1,0.910114387,0,,,,,,,,,,,,,,,,,,,,,,,,,,,,,,,,,,,,,,,,,,,,,,,,,,,,,,,,,,,,,,,,,,,,,,,,,,,,,,,,
,,60906c79f8cfd718d6dcb3df,2022-09-08_10h47.48.375,CGTgamblingSpanTasks,2022.2.1,Win32,138.4849744,,,,,,,,2.6113,,,,,,,,,,,,,,2,n,1.3887,19.5450126,1,3.6113,1,,,,,,19.5450126,0,2.123581464,,,,,,,,,,,,,0,105,105,65,1,0.475836144,1,,,,,,,,,,,,,,,,,,,,,,,,,,,,,,,,,,,,,,,,,,,,,,,,,,,,,,,,,,,,,,,,,,,,,,,,,,,,,,,,
,,60906c79f8cfd718d6dcb3df,2022-09-08_10h47.48.375,CGTgamblingSpanTasks,2022.2.1,Win32,138.4849744,,,,,,,,3.104,,,,,,,,,,,,,,1,v,0.896,22.72923833,1,4.104,1,,,,,,22.72923833,0,0.067170781,,,,,,,,,,,,,0,106,106,86,1,0.907226703,0,,,,,,,,,,,,,,,,,,,,,,,,,,,,,,,,,,,,,,,,,,,,,,,,,,,,,,,,,,,,,,,,,,,,,,,,,,,,,,,,
,,60906c79f8cfd718d6dcb3df,2022-09-08_10h47.48.375,CGTgamblingSpanTasks,2022.2.1,Win32,138.4849744,,,,,,,,3.0828,,,,,,,,,,,,,,2,n,0.9172,0,1,4.5828,1.5,,,,,,27.57491653,0,2.99133314,,,,,,,,,,,,,0,107,107,10,1,0.47625893,1,,,,,,,,,,,,,,,,,,,,,,,,,,,,,,,,,,,,,,,,,,,,,,,,,,,,,,,,,,,,,,,,,,,,,,,,,,,,,,,,
,,60906c79f8cfd718d6dcb3df,2022-09-08_10h47.48.375,CGTgamblingSpanTasks,2022.2.1,Win32,138.4849744,,,,,,,,3.0484,,,,,,,,,,,,,,2,n,0.9516,0,1,4.5484,1.5,,,,,,29.30724159,0,3.247012935,,,,,,,,,,,,,0,108,108,71,1,0.470571125,1,,,,,,,,,,,,,,,,,,,,,,,,,,,,,,,,,,,,,,,,,,,,,,,,,,,,,,,,,,,,,,,,,,,,,,,,,,,,,,,,
,,60906c79f8cfd718d6dcb3df,2022-09-08_10h47.48.375,CGTgamblingSpanTasks,2022.2.1,Win32,138.4849744,,,,,,,,3.0125,,,,,,,,,,,,,,1,v,0.9875,0,1,4.0125,1,,,,,,23.59556381,0,2.464662219,,,,,,,,,,,,,0,109,109,22,1,0.486383205,1,,,,,,,,,,,,,,,,,,,,,,,,,,,,,,,,,,,,,,,,,,,,,,,,,,,,,,,,,,,,,,,,,,,,,,,,,,,,,,,,
,,60906c79f8cfd718d6dcb3df,2022-09-08_10h47.48.375,CGTgamblingSpanTasks,2022.2.1,Win32,138.4849744,,,,,,,,3.2975,,,,,,,,,,,,,,1,n,0.7025,2.257683666,0,4.7975,1.5,,,,,,22.0050376,0,2.257683666,,,,,,,,,,,,,0,110,110,4,1,0.491147312,1,,,,,,,,,,,,,,,,,,,,,,,,,,,,,,,,,,,,,,,,,,,,,,,,,,,,,,,,,,,,,,,,,,,,,,,,,,,,,,,,
,,60906c79f8cfd718d6dcb3df,2022-09-08_10h47.48.375,CGTgamblingSpanTasks,2022.2.1,Win32,138.4849744,,,,,,,,2.8126,,,,,,,,,,,,,,2,n,1.1874,0,1,4.3126,1.5,,,,,,28.14876717,0,3.117906378,,,,,,,,,,,,,0,111,111,76,1,0.470636736,1,,,,,,,,,,,,,,,,,,,,,,,,,,,,,,,,,,,,,,,,,,,,,,,,,,,,,,,,,,,,,,,,,,,,,,,,,,,,,,,,
,,60906c79f8cfd718d6dcb3df,2022-09-08_10h47.48.375,CGTgamblingSpanTasks,2022.2.1,Win32,138.4849744,,,,,,,,3.0348,,,,,,,,,,,,,,1,n,0.9652,8.42547829,0,4.5348,1.5,,,,,,15.87668502,0,8.42547829,,,,,,,,,,,,,0,112,112,56,1,0.092099462,0,,,,,,,,,,,,,,,,,,,,,,,,,,,,,,,,,,,,,,,,,,,,,,,,,,,,,,,,,,,,,,,,,,,,,,,,,,,,,,,,
,,60906c79f8cfd718d6dcb3df,2022-09-08_10h47.48.375,CGTgamblingSpanTasks,2022.2.1,Win32,138.4849744,,,,,,,,3.1177,,,,,,,,,,,,,,1,n,0.8823,6.833409611,0,4.1177,1,,,,,,6.325091157,0,6.833409611,,,,,,,,,,,,,0,113,113,58,1,0.027113638,0,,,,,,,,,,,,,,,,,,,,,,,,,,,,,,,,,,,,,,,,,,,,,,,,,,,,,,,,,,,,,,,,,,,,,,,,,,,,,,,,
,,60906c79f8cfd718d6dcb3df,2022-09-08_10h47.48.375,CGTgamblingSpanTasks,2022.2.1,Win32,138.4849744,,,,,,,,3.0758,,,,,,,,,,,,,,1,v,0.9242,0,1,4.0758,1,,,,,,21.39646914,0,0.072474078,,,,,,,,,,,,,0,114,114,3,1,0.902848133,0,,,,,,,,,,,,,,,,,,,,,,,,,,,,,,,,,,,,,,,,,,,,,,,,,,,,,,,,,,,,,,,,,,,,,,,,,,,,,,,,
,,60906c79f8cfd718d6dcb3df,2022-09-08_10h47.48.375,CGTgamblingSpanTasks,2022.2.1,Win32,138.4849744,,,,,,,,3.1456,,,,,,,,,,,,,,2,n,0.8544,27.12325385,1,4.1456,1,,,,,,27.12325385,0,0.080932047,,,,,,,,,,,,,0,115,115,14,1,0.906929184,0,,,,,,,,,,,,,,,,,,,,,,,,,,,,,,,,,,,,,,,,,,,,,,,,,,,,,,,,,,,,,,,,,,,,,,,,,,,,,,,,
,,60906c79f8cfd718d6dcb3df,2022-09-08_10h47.48.375,CGTgamblingSpanTasks,2022.2.1,Win32,138.4849744,,,,,,,,3.0209,,,,,,,,,,,,,,1,v,0.9791,28.33977875,1,4.0209,1,,,,,,28.33977875,0,2.768313633,,,,,,,,,,,,,0,116,116,116,1,0.50406901,1,,,,,,,,,,,,,,,,,,,,,,,,,,,,,,,,,,,,,,,,,,,,,,,,,,,,,,,,,,,,,,,,,,,,,,,,,,,,,,,,
,,60906c79f8cfd718d6dcb3df,2022-09-08_10h47.48.375,CGTgamblingSpanTasks,2022.2.1,Win32,138.4849744,,,,,,,,2.9292,,,,,,,,,,,,,,2,v,1.0708,8.830252162,0,4.4292,1.5,,,,,,15.73000491,0,8.830252162,,,,,,,,,,,,,0,117,117,95,1,0.084193143,0,,,,,,,,,,,,,,,,,,,,,,,,,,,,,,,,,,,,,,,,,,,,,,,,,,,,,,,,,,,,,,,,,,,,,,,,,,,,,,,,
,,60906c79f8cfd718d6dcb3df,2022-09-08_10h47.48.375,CGTgamblingSpanTasks,2022.2.1,Win32,138.4849744,,,,,,,,2.5187,,,,,,,,,,,,,,1,v,1.4813,21.7711579,1,3.5187,1,,,,,,21.7711579,0,2.502728921,,,,,,,,,,,,,0,118,118,101,1,0.460552621,1,,,,,,,,,,,,,,,,,,,,,,,,,,,,,,,,,,,,,,,,,,,,,,,,,,,,,,,,,,,,,,,,,,,,,,,,,,,,,,,,
,,60906c79f8cfd718d6dcb3df,2022-09-08_10h47.48.375,CGTgamblingSpanTasks,2022.2.1,Win32,138.4849744,,,,,,,,2.9163,,,,,,,,,,,,,,2,v,1.0837,7.50753835,0,3.9163,1,,,,,,2.231316635,0,7.50753835,,,,,,,,,,,,,0,119,119,29,1,0.010273427,0,,,,,,,,,,,,,,,,,,,,,,,,,,,,,,,,,,,,,,,,,,,,,,,,,,,,,,,,,,,,,,,,,,,,,,,,,,,,,,,,
,,60906c79f8cfd718d6dcb3df,2022-09-08_10h47.48.375,CGTgamblingSpanTasks,2022.2.1,Win32,138.4849744,,,,,,,,,,,,,,,,,,,,,,,,,,,,,,,,,,,,,,,,,,,,,,,,,,,,,,,,return,92.4907,,,,,,,,,,,,,,,,,,,,,,,,,,,,,,,,,,,,,,,,,,,,,,,,,,,,,,,,,,,,,,,,,,,,,,,,,,,,,,
,,60906c79f8cfd718d6dcb3df,2022-09-08_10h47.48.375,CGTgamblingSpanTasks,2022.2.1,Win32,138.4849744,,,,,,,,,,,,,,,,,,,,,,,,,,,,,,,,,,,,,,,,,,,,,,,,,,,,,,,,,,return,17.1117,,,,,,,,,,,,,,,,,,,,,,,,,,,,,,,,,,,,,,,,,,,,,,,,,,,,,,,,,,,,,,,,,,,,,,,,,,,,
,,60906c79f8cfd718d6dcb3df,2022-09-08_10h47.48.375,CGTgamblingSpanTasks,2022.2.1,Win32,138.4849744,,,,,,,,,,,,,,,,,,,,,,,,,,,,,,,,,,,,,,,,,,,,,,,,,,,,,,,,,,,,return,38.5732,,,,,,,,,,,,,,,,,,,,,,,,,,,,,,,,,,,,,,,,,,,,,,,,,,,,,,,,,,,,,,,,,,,,,,,,,,
,,60906c79f8cfd718d6dcb3df,2022-09-08_10h47.48.375,CGTgamblingSpanTasks,2022.2.1,Win32,138.4849744,,,,,,,,,,,,,,,,,,,,,,,,,,,,,,,,,,,,,,,,,,,,,,,,,,,,,,,,,,,,,,342,1,0.055555556,-0.383333333,1,0,0,cont_buttonPractice,0,0,0,0,1,3,342,24,2,42,,,,,,,,,,,,,,,,,,,,,,,,,,,,,,,,,,,,,,,,,,,,,,,,,,,,,,,,
,,60906c79f8cfd718d6dcb3df,2022-09-08_10h47.48.375,CGTgamblingSpanTasks,2022.2.1,Win32,138.4849744,,,,,,,,,,,,,,,,,,,,,,,,,,,,,,,,,,,,,,,,,,,,,,,,,,,,,,,,,,,,,,937,1,0.094444444,-0.397222222,1,0,0,cont_buttonPractice,0,1,1,1,1,3,937,73,2,37,,,,,,,,,,,,,,,,,,,,,,,,,,,,,,,,,,,,,,,,,,,,,,,,,,,,,,,,
,,60906c79f8cfd718d6dcb3df,2022-09-08_10h47.48.375,CGTgamblingSpanTasks,2022.2.1,Win32,138.4849744,,,,,,,,,,,,,,,,,,,,,,,,,,,,,,,,,,,,,,,,,,,,,,,,,,,,,,,,,,,,,,,,,,,,,,,,,,,,,,,,return,19.0128,,,,,,,,,,,,,,,,,,,,,,,,,,,,,,,,,,,,,,,,,,,,,,,,,,,,,,
,,60906c79f8cfd718d6dcb3df,2022-09-08_10h47.48.375,CGTgamblingSpanTasks,2022.2.1,Win32,138.4849744,,,,,,,,,,,,,,,,,,,,,,,,,,,,,,,,,,,,,,,,,,,,,,,,,,,,,,,,,,,,,,,,,,,,,,,,,,,,,,,,,,"[3,5,2]",0,0,0,0,1,,,,,,,,,,,,,,,,,,,,,,,,,,,,,,,,,,,,,,,,,,,,,,,,
,,60906c79f8cfd718d6dcb3df,2022-09-08_10h47.48.375,CGTgamblingSpanTasks,2022.2.1,Win32,138.4849744,,,,,,,,,,,,,,,,,,,,,,,,,,,,,,,,,,,,,,,,,,,,,,,,,,,,,,,,,,,,,,,,,,,,,,,,,,,,,,,,,,"[3,5,2]",1,0,1,0,1,,,,,,,,,,,,,,,,,,,,,,,,,,,,,,,,,,,,,,,,,,,,,,,,
,,60906c79f8cfd718d6dcb3df,2022-09-08_10h47.48.375,CGTgamblingSpanTasks,2022.2.1,Win32,138.4849744,,,,,,,,,,,,,,,,,,,,,,,,,,,,,,,,,,,,,,,,,,,,,,,,,,,,,,,,,,,,,,,,,,,,,,,,,,,,,,,,,,"[3,5,2]",2,0,2,0,1,,,,,,,,,,,,,,,,,,,,,,,,,,,,,,,,,,,,,,,,,,,,,,,,
,,60906c79f8cfd718d6dcb3df,2022-09-08_10h47.48.375,CGTgamblingSpanTasks,2022.2.1,Win32,138.4849744,,,,,,,,,,,,,,,,,,,,,,,,,,,,,,,,,,,,,,,,,,,,,,,,,,,,,,,,,,,,,,,1,,,,,,,,,,,,,,,,,,,,,,,,,352,0.038888889,-0.395833333,1,0,0,cont_button,0,0,0,0,1,1,,,,,,,,,,,,,,,,,,,,,,,,,,,,,,,,,,,
,,60906c79f8cfd718d6dcb3df,2022-09-08_10h47.48.375,CGTgamblingSpanTasks,2022.2.1,Win32,138.4849744,,,,,,,,,,,,,,,,,,,,,,,,,,,,,,,,,,,,,,,,,,,,,,,,,,,,,,,,,,,,,,,,,,,,,,,,,,,,,,,,,,"[7,3,6,5]",0,0,0,0,1,,,,,,,,,,,,,,,,,,,,,,,,,,,,,,,,,,,,,,,,,,,,,,,,
,,60906c79f8cfd718d6dcb3df,2022-09-08_10h47.48.375,CGTgamblingSpanTasks,2022.2.1,Win32,138.4849744,,,,,,,,,,,,,,,,,,,,,,,,,,,,,,,,,,,,,,,,,,,,,,,,,,,,,,,,,,,,,,,,,,,,,,,,,,,,,,,,,,"[7,3,6,5]",1,0,1,0,1,,,,,,,,,,,,,,,,,,,,,,,,,,,,,,,,,,,,,,,,,,,,,,,,
,,60906c79f8cfd718d6dcb3df,2022-09-08_10h47.48.375,CGTgamblingSpanTasks,2022.2.1,Win32,138.4849744,,,,,,,,,,,,,,,,,,,,,,,,,,,,,,,,,,,,,,,,,,,,,,,,,,,,,,,,,,,,,,,,,,,,,,,,,,,,,,,,,,"[7,3,6,5]",2,0,2,0,1,,,,,,,,,,,,,,,,,,,,,,,,,,,,,,,,,,,,,,,,,,,,,,,,
,,60906c79f8cfd718d6dcb3df,2022-09-08_10h47.48.375,CGTgamblingSpanTasks,2022.2.1,Win32,138.4849744,,,,,,,,,,,,,,,,,,,,,,,,,,,,,,,,,,,,,,,,,,,,,,,,,,,,,,,,,,,,,,,,,,,,,,,,,,,,,,,,,,"[7,3,6,5]",3,0,3,0,1,,,,,,,,,,,,,,,,,,,,,,,,,,,,,,,,,,,,,,,,,,,,,,,,
,,60906c79f8cfd718d6dcb3df,2022-09-08_10h47.48.375,CGTgamblingSpanTasks,2022.2.1,Win32,138.4849744,,,,,,,,,,,,,,,,,,,,,,,,,,,,,,,,,,,,,,,,,,,,,,,,,,,,,,,,,,,,,,,1,,,,,,,,,,,,,,,,,,,,,,,,,7365,0.0375,-0.406944444,1,0,0,cont_button,0,1,1,1,1,2,,,,,,,,,,,,,,,,,,,,,,,,,,,,,,,,,,,
,,60906c79f8cfd718d6dcb3df,2022-09-08_10h47.48.375,CGTgamblingSpanTasks,2022.2.1,Win32,138.4849744,,,,,,,,,,,,,,,,,,,,,,,,,,,,,,,,,,,,,,,,,,,,,,,,,,,,,,,,,,,,,,,,,,,,,,,,,,,,,,,,,,"[6,3,5,2,9]",0,0,0,0,1,,,,,,,,,,,,,,,,,,,,,,,,,,,,,,,,,,,,,,,,,,,,,,,,
,,60906c79f8cfd718d6dcb3df,2022-09-08_10h47.48.375,CGTgamblingSpanTasks,2022.2.1,Win32,138.4849744,,,,,,,,,,,,,,,,,,,,,,,,,,,,,,,,,,,,,,,,,,,,,,,,,,,,,,,,,,,,,,,,,,,,,,,,,,,,,,,,,,"[6,3,5,2,9]",1,0,1,0,1,,,,,,,,,,,,,,,,,,,,,,,,,,,,,,,,,,,,,,,,,,,,,,,,
,,60906c79f8cfd718d6dcb3df,2022-09-08_10h47.48.375,CGTgamblingSpanTasks,2022.2.1,Win32,138.4849744,,,,,,,,,,,,,,,,,,,,,,,,,,,,,,,,,,,,,,,,,,,,,,,,,,,,,,,,,,,,,,,,,,,,,,,,,,,,,,,,,,"[6,3,5,2,9]",2,0,2,0,1,,,,,,,,,,,,,,,,,,,,,,,,,,,,,,,,,,,,,,,,,,,,,,,,
,,60906c79f8cfd718d6dcb3df,2022-09-08_10h47.48.375,CGTgamblingSpanTasks,2022.2.1,Win32,138.4849744,,,,,,,,,,,,,,,,,,,,,,,,,,,,,,,,,,,,,,,,,,,,,,,,,,,,,,,,,,,,,,,,,,,,,,,,,,,,,,,,,,"[6,3,5,2,9]",3,0,3,0,1,,,,,,,,,,,,,,,,,,,,,,,,,,,,,,,,,,,,,,,,,,,,,,,,
,,60906c79f8cfd718d6dcb3df,2022-09-08_10h47.48.375,CGTgamblingSpanTasks,2022.2.1,Win32,138.4849744,,,,,,,,,,,,,,,,,,,,,,,,,,,,,,,,,,,,,,,,,,,,,,,,,,,,,,,,,,,,,,,,,,,,,,,,,,,,,,,,,,"[6,3,5,2,9]",4,0,4,0,1,,,,,,,,,,,,,,,,,,,,,,,,,,,,,,,,,,,,,,,,,,,,,,,,
,,60906c79f8cfd718d6dcb3df,2022-09-08_10h47.48.375,CGTgamblingSpanTasks,2022.2.1,Win32,138.4849744,,,,,,,,,,,,,,,,,,,,,,,,,,,,,,,,,,,,,,,,,,,,,,,,,,,,,,,,,,,,,,,1,,,,,,,,,,,,,,,,,,,,,,,,,63529,0.086111111,-0.398611111,1,0,0,cont_button,0,2,2,2,1,3,,,,,,,,,,,,,,,,,,,,,,,,,,,,,,,,,,,
,,60906c79f8cfd718d6dcb3df,2022-09-08_10h47.48.375,CGTgamblingSpanTasks,2022.2.1,Win32,138.4849744,,,,,,,,,,,,,,,,,,,,,,,,,,,,,,,,,,,,,,,,,,,,,,,,,,,,,,,,,,,,,,,,,,,,,,,,,,,,,,,,,,"[7,2,1,6,3,9]",0,0,0,0,1,,,,,,,,,,,,,,,,,,,,,,,,,,,,,,,,,,,,,,,,,,,,,,,,
,,60906c79f8cfd718d6dcb3df,2022-09-08_10h47.48.375,CGTgamblingSpanTasks,2022.2.1,Win32,138.4849744,,,,,,,,,,,,,,,,,,,,,,,,,,,,,,,,,,,,,,,,,,,,,,,,,,,,,,,,,,,,,,,,,,,,,,,,,,,,,,,,,,"[7,2,1,6,3,9]",1,0,1,0,1,,,,,,,,,,,,,,,,,,,,,,,,,,,,,,,,,,,,,,,,,,,,,,,,
,,60906c79f8cfd718d6dcb3df,2022-09-08_10h47.48.375,CGTgamblingSpanTasks,2022.2.1,Win32,138.4849744,,,,,,,,,,,,,,,,,,,,,,,,,,,,,,,,,,,,,,,,,,,,,,,,,,,,,,,,,,,,,,,,,,,,,,,,,,,,,,,,,,"[7,2,1,6,3,9]",2,0,2,0,1,,,,,,,,,,,,,,,,,,,,,,,,,,,,,,,,,,,,,,,,,,,,,,,,
,,60906c79f8cfd718d6dcb3df,2022-09-08_10h47.48.375,CGTgamblingSpanTasks,2022.2.1,Win32,138.4849744,,,,,,,,,,,,,,,,,,,,,,,,,,,,,,,,,,,,,,,,,,,,,,,,,,,,,,,,,,,,,,,,,,,,,,,,,,,,,,,,,,"[7,2,1,6,3,9]",3,0,3,0,1,,,,,,,,,,,,,,,,,,,,,,,,,,,,,,,,,,,,,,,,,,,,,,,,
,,60906c79f8cfd718d6dcb3df,2022-09-08_10h47.48.375,CGTgamblingSpanTasks,2022.2.1,Win32,138.4849744,,,,,,,,,,,,,,,,,,,,,,,,,,,,,,,,,,,,,,,,,,,,,,,,,,,,,,,,,,,,,,,,,,,,,,,,,,,,,,,,,,"[7,2,1,6,3,9]",4,0,4,0,1,,,,,,,,,,,,,,,,,,,,,,,,,,,,,,,,,,,,,,,,,,,,,,,,
,,60906c79f8cfd718d6dcb3df,2022-09-08_10h47.48.375,CGTgamblingSpanTasks,2022.2.1,Win32,138.4849744,,,,,,,,,,,,,,,,,,,,,,,,,,,,,,,,,,,,,,,,,,,,,,,,,,,,,,,,,,,,,,,,,,,,,,,,,,,,,,,,,,"[7,2,1,6,3,9]",5,0,5,0,1,,,,,,,,,,,,,,,,,,,,,,,,,,,,,,,,,,,,,,,,,,,,,,,,
,,60906c79f8cfd718d6dcb3df,2022-09-08_10h47.48.375,CGTgamblingSpanTasks,2022.2.1,Win32,138.4849744,,,,,,,,,,,,,,,,,,,,,,,,,,,,,,,,,,,,,,,,,,,,,,,,,,,,,,,,,,,,,,,1,,,,,,,,,,,,,,,,,,,,,,,,,721639,0.108333333,-0.397222222,1,0,0,cont_button,0,3,3,3,1,4,,,,,,,,,,,,,,,,,,,,,,,,,,,,,,,,,,,
,,60906c79f8cfd718d6dcb3df,2022-09-08_10h47.48.375,CGTgamblingSpanTasks,2022.2.1,Win32,138.4849744,,,,,,,,,,,,,,,,,,,,,,,,,,,,,,,,,,,,,,,,,,,,,,,,,,,,,,,,,,,,,,,,,,,,,,,,,,,,,,,,,,"[3,6,9,7,8,4,1]",0,0,0,0,1,,,,,,,,,,,,,,,,,,,,,,,,,,,,,,,,,,,,,,,,,,,,,,,,
,,60906c79f8cfd718d6dcb3df,2022-09-08_10h47.48.375,CGTgamblingSpanTasks,2022.2.1,Win32,138.4849744,,,,,,,,,,,,,,,,,,,,,,,,,,,,,,,,,,,,,,,,,,,,,,,,,,,,,,,,,,,,,,,,,,,,,,,,,,,,,,,,,,"[3,6,9,7,8,4,1]",1,0,1,0,1,,,,,,,,,,,,,,,,,,,,,,,,,,,,,,,,,,,,,,,,,,,,,,,,
,,60906c79f8cfd718d6dcb3df,2022-09-08_10h47.48.375,CGTgamblingSpanTasks,2022.2.1,Win32,138.4849744,,,,,,,,,,,,,,,,,,,,,,,,,,,,,,,,,,,,,,,,,,,,,,,,,,,,,,,,,,,,,,,,,,,,,,,,,,,,,,,,,,"[3,6,9,7,8,4,1]",2,0,2,0,1,,,,,,,,,,,,,,,,,,,,,,,,,,,,,,,,,,,,,,,,,,,,,,,,
,,60906c79f8cfd718d6dcb3df,2022-09-08_10h47.48.375,CGTgamblingSpanTasks,2022.2.1,Win32,138.4849744,,,,,,,,,,,,,,,,,,,,,,,,,,,,,,,,,,,,,,,,,,,,,,,,,,,,,,,,,,,,,,,,,,,,,,,,,,,,,,,,,,"[3,6,9,7,8,4,1]",3,0,3,0,1,,,,,,,,,,,,,,,,,,,,,,,,,,,,,,,,,,,,,,,,,,,,,,,,
,,60906c79f8cfd718d6dcb3df,2022-09-08_10h47.48.375,CGTgamblingSpanTasks,2022.2.1,Win32,138.4849744,,,,,,,,,,,,,,,,,,,,,,,,,,,,,,,,,,,,,,,,,,,,,,,,,,,,,,,,,,,,,,,,,,,,,,,,,,,,,,,,,,"[3,6,9,7,8,4,1]",4,0,4,0,1,,,,,,,,,,,,,,,,,,,,,,,,,,,,,,,,,,,,,,,,,,,,,,,,
,,60906c79f8cfd718d6dcb3df,2022-09-08_10h47.48.375,CGTgamblingSpanTasks,2022.2.1,Win32,138.4849744,,,,,,,,,,,,,,,,,,,,,,,,,,,,,,,,,,,,,,,,,,,,,,,,,,,,,,,,,,,,,,,,,,,,,,,,,,,,,,,,,,"[3,6,9,7,8,4,1]",5,0,5,0,1,,,,,,,,,,,,,,,,,,,,,,,,,,,,,,,,,,,,,,,,,,,,,,,,
,,60906c79f8cfd718d6dcb3df,2022-09-08_10h47.48.375,CGTgamblingSpanTasks,2022.2.1,Win32,138.4849744,,,,,,,,,,,,,,,,,,,,,,,,,,,,,,,,,,,,,,,,,,,,,,,,,,,,,,,,,,,,,,,,,,,,,,,,,,,,,,,,,,"[3,6,9,7,8,4,1]",6,0,6,0,1,,,,,,,,,,,,,,,,,,,,,,,,,,,,,,,,,,,,,,,,,,,,,,,,
,,60906c79f8cfd718d6dcb3df,2022-09-08_10h47.48.375,CGTgamblingSpanTasks,2022.2.1,Win32,138.4849744,,,,,,,,,,,,,,,,,,,,,,,,,,,,,,,,,,,,,,,,,,,,,,,,,,,,,,,,,,,,,,,1,,,,,,,,,,,,,,,,,,,,,,,,,3697841,0.113888889,-0.4,1,0,0,cont_button,0,4,4,4,1,5,,,,,,,,,,,,,,,,,,,,,,,,,,,,,,,,,,,
,,60906c79f8cfd718d6dcb3df,2022-09-08_10h47.48.375,CGTgamblingSpanTasks,2022.2.1,Win32,138.4849744,,,,,,,,,,,,,,,,,,,,,,,,,,,,,,,,,,,,,,,,,,,,,,,,,,,,,,,,,,,,,,,,,,,,,,,,,,,,,,,,,,"[7,8,6,1,9,5,2,3]",0,0,0,0,1,,,,,,,,,,,,,,,,,,,,,,,,,,,,,,,,,,,,,,,,,,,,,,,,
,,60906c79f8cfd718d6dcb3df,2022-09-08_10h47.48.375,CGTgamblingSpanTasks,2022.2.1,Win32,138.4849744,,,,,,,,,,,,,,,,,,,,,,,,,,,,,,,,,,,,,,,,,,,,,,,,,,,,,,,,,,,,,,,,,,,,,,,,,,,,,,,,,,"[7,8,6,1,9,5,2,3]",1,0,1,0,1,,,,,,,,,,,,,,,,,,,,,,,,,,,,,,,,,,,,,,,,,,,,,,,,
,,60906c79f8cfd718d6dcb3df,2022-09-08_10h47.48.375,CGTgamblingSpanTasks,2022.2.1,Win32,138.4849744,,,,,,,,,,,,,,,,,,,,,,,,,,,,,,,,,,,,,,,,,,,,,,,,,,,,,,,,,,,,,,,,,,,,,,,,,,,,,,,,,,"[7,8,6,1,9,5,2,3]",2,0,2,0,1,,,,,,,,,,,,,,,,,,,,,,,,,,,,,,,,,,,,,,,,,,,,,,,,
,,60906c79f8cfd718d6dcb3df,2022-09-08_10h47.48.375,CGTgamblingSpanTasks,2022.2.1,Win32,138.4849744,,,,,,,,,,,,,,,,,,,,,,,,,,,,,,,,,,,,,,,,,,,,,,,,,,,,,,,,,,,,,,,,,,,,,,,,,,,,,,,,,,"[7,8,6,1,9,5,2,3]",3,0,3,0,1,,,,,,,,,,,,,,,,,,,,,,,,,,,,,,,,,,,,,,,,,,,,,,,,
,,60906c79f8cfd718d6dcb3df,2022-09-08_10h47.48.375,CGTgamblingSpanTasks,2022.2.1,Win32,138.4849744,,,,,,,,,,,,,,,,,,,,,,,,,,,,,,,,,,,,,,,,,,,,,,,,,,,,,,,,,,,,,,,,,,,,,,,,,,,,,,,,,,"[7,8,6,1,9,5,2,3]",4,0,4,0,1,,,,,,,,,,,,,,,,,,,,,,,,,,,,,,,,,,,,,,,,,,,,,,,,
,,60906c79f8cfd718d6dcb3df,2022-09-08_10h47.48.375,CGTgamblingSpanTasks,2022.2.1,Win32,138.4849744,,,,,,,,,,,,,,,,,,,,,,,,,,,,,,,,,,,,,,,,,,,,,,,,,,,,,,,,,,,,,,,,,,,,,,,,,,,,,,,,,,"[7,8,6,1,9,5,2,3]",5,0,5,0,1,,,,,,,,,,,,,,,,,,,,,,,,,,,,,,,,,,,,,,,,,,,,,,,,
,,60906c79f8cfd718d6dcb3df,2022-09-08_10h47.48.375,CGTgamblingSpanTasks,2022.2.1,Win32,138.4849744,,,,,,,,,,,,,,,,,,,,,,,,,,,,,,,,,,,,,,,,,,,,,,,,,,,,,,,,,,,,,,,,,,,,,,,,,,,,,,,,,,"[7,8,6,1,9,5,2,3]",6,0,6,0,1,,,,,,,,,,,,,,,,,,,,,,,,,,,,,,,,,,,,,,,,,,,,,,,,
,,60906c79f8cfd718d6dcb3df,2022-09-08_10h47.48.375,CGTgamblingSpanTasks,2022.2.1,Win32,138.4849744,,,,,,,,,,,,,,,,,,,,,,,,,,,,,,,,,,,,,,,,,,,,,,,,,,,,,,,,,,,,,,,,,,,,,,,,,,,,,,,,,,"[7,8,6,1,9,5,2,3]",7,0,7,0,1,,,,,,,,,,,,,,,,,,,,,,,,,,,,,,,,,,,,,,,,,,,,,,,,
,,60906c79f8cfd718d6dcb3df,2022-09-08_10h47.48.375,CGTgamblingSpanTasks,2022.2.1,Win32,138.4849744,,,,,,,,,,,,,,,,,,,,,,,,,,,,,,,,,,,,,,,,,,,,,,,,,,,,,,,,,,,,,,,1,,,,,,,,,,,,,,,,,,,,,,,,,78619523,0.101388889,-0.379166667,1,0,0,cont_button,0,5,5,5,1,6,,,,,,,,,,,,,,,,,,,,,,,,,,,,,,,,,,,
,,60906c79f8cfd718d6dcb3df,2022-09-08_10h47.48.375,CGTgamblingSpanTasks,2022.2.1,Win32,138.4849744,,,,,,,,,,,,,,,,,,,,,,,,,,,,,,,,,,,,,,,,,,,,,,,,,,,,,,,,,,,,,,,,,,,,,,,,,,,,,,,,,,"[9,6,5,1,8,3,2,4,7]",0,0,0,0,1,,,,,,,,,,,,,,,,,,,,,,,,,,,,,,,,,,,,,,,,,,,,,,,,
,,60906c79f8cfd718d6dcb3df,2022-09-08_10h47.48.375,CGTgamblingSpanTasks,2022.2.1,Win32,138.4849744,,,,,,,,,,,,,,,,,,,,,,,,,,,,,,,,,,,,,,,,,,,,,,,,,,,,,,,,,,,,,,,,,,,,,,,,,,,,,,,,,,"[9,6,5,1,8,3,2,4,7]",1,0,1,0,1,,,,,,,,,,,,,,,,,,,,,,,,,,,,,,,,,,,,,,,,,,,,,,,,
,,60906c79f8cfd718d6dcb3df,2022-09-08_10h47.48.375,CGTgamblingSpanTasks,2022.2.1,Win32,138.4849744,,,,,,,,,,,,,,,,,,,,,,,,,,,,,,,,,,,,,,,,,,,,,,,,,,,,,,,,,,,,,,,,,,,,,,,,,,,,,,,,,,"[9,6,5,1,8,3,2,4,7]",2,0,2,0,1,,,,,,,,,,,,,,,,,,,,,,,,,,,,,,,,,,,,,,,,,,,,,,,,
,,60906c79f8cfd718d6dcb3df,2022-09-08_10h47.48.375,CGTgamblingSpanTasks,2022.2.1,Win32,138.4849744,,,,,,,,,,,,,,,,,,,,,,,,,,,,,,,,,,,,,,,,,,,,,,,,,,,,,,,,,,,,,,,,,,,,,,,,,,,,,,,,,,"[9,6,5,1,8,3,2,4,7]",3,0,3,0,1,,,,,,,,,,,,,,,,,,,,,,,,,,,,,,,,,,,,,,,,,,,,,,,,
,,60906c79f8cfd718d6dcb3df,2022-09-08_10h47.48.375,CGTgamblingSpanTasks,2022.2.1,Win32,138.4849744,,,,,,,,,,,,,,,,,,,,,,,,,,,,,,,,,,,,,,,,,,,,,,,,,,,,,,,,,,,,,,,,,,,,,,,,,,,,,,,,,,"[9,6,5,1,8,3,2,4,7]",4,0,4,0,1,,,,,,,,,,,,,,,,,,,,,,,,,,,,,,,,,,,,,,,,,,,,,,,,
,,60906c79f8cfd718d6dcb3df,2022-09-08_10h47.48.375,CGTgamblingSpanTasks,2022.2.1,Win32,138.4849744,,,,,,,,,,,,,,,,,,,,,,,,,,,,,,,,,,,,,,,,,,,,,,,,,,,,,,,,,,,,,,,,,,,,,,,,,,,,,,,,,,"[9,6,5,1,8,3,2,4,7]",5,0,5,0,1,,,,,,,,,,,,,,,,,,,,,,,,,,,,,,,,,,,,,,,,,,,,,,,,
,,60906c79f8cfd718d6dcb3df,2022-09-08_10h47.48.375,CGTgamblingSpanTasks,2022.2.1,Win32,138.4849744,,,,,,,,,,,,,,,,,,,,,,,,,,,,,,,,,,,,,,,,,,,,,,,,,,,,,,,,,,,,,,,,,,,,,,,,,,,,,,,,,,"[9,6,5,1,8,3,2,4,7]",6,0,6,0,1,,,,,,,,,,,,,,,,,,,,,,,,,,,,,,,,,,,,,,,,,,,,,,,,
,,60906c79f8cfd718d6dcb3df,2022-09-08_10h47.48.375,CGTgamblingSpanTasks,2022.2.1,Win32,138.4849744,,,,,,,,,,,,,,,,,,,,,,,,,,,,,,,,,,,,,,,,,,,,,,,,,,,,,,,,,,,,,,,,,,,,,,,,,,,,,,,,,,"[9,6,5,1,8,3,2,4,7]",7,0,7,0,1,,,,,,,,,,,,,,,,,,,,,,,,,,,,,,,,,,,,,,,,,,,,,,,,
,,60906c79f8cfd718d6dcb3df,2022-09-08_10h47.48.375,CGTgamblingSpanTasks,2022.2.1,Win32,138.4849744,,,,,,,,,,,,,,,,,,,,,,,,,,,,,,,,,,,,,,,,,,,,,,,,,,,,,,,,,,,,,,,,,,,,,,,,,,,,,,,,,,"[9,6,5,1,8,3,2,4,7]",8,0,8,0,1,,,,,,,,,,,,,,,,,,,,,,,,,,,,,,,,,,,,,,,,,,,,,,,,
,,60906c79f8cfd718d6dcb3df,2022-09-08_10h47.48.375,CGTgamblingSpanTasks,2022.2.1,Win32,138.4849744,,,,,,,,,,,,,,,,,,,,,,,,,,,,,,,,,,,,,,,,,,,,,,,,,,,,,,,,,,,,,,,1,,,,,,,,,,,,,,,,,,,,,,,,,965183247,-0.061111111,-0.418055556,1,0,0,cont_button,0,6,6,6,1,7,,,,,,,,,,,,,,,,,,,,,,,,,,,,,,,,,,,
,,60906c79f8cfd718d6dcb3df,2022-09-08_10h47.48.375,CGTgamblingSpanTasks,2022.2.1,Win32,138.4849744,,,,,,,,,,,,,,,,,,,,,,,,,,,,,,,,,,,,,,,,,,,,,,,,,,,,,,,,,,,,,,,,,,,,,,,,,,,,,,,,,,"[1,3,5,7,2,8,4,9,6,6]",0,0,0,0,1,,,,,,,,,,,,,,,,,,,,,,,,,,,,,,,,,,,,,,,,,,,,,,,,
,,60906c79f8cfd718d6dcb3df,2022-09-08_10h47.48.375,CGTgamblingSpanTasks,2022.2.1,Win32,138.4849744,,,,,,,,,,,,,,,,,,,,,,,,,,,,,,,,,,,,,,,,,,,,,,,,,,,,,,,,,,,,,,,,,,,,,,,,,,,,,,,,,,"[1,3,5,7,2,8,4,9,6,6]",1,0,1,0,1,,,,,,,,,,,,,,,,,,,,,,,,,,,,,,,,,,,,,,,,,,,,,,,,
,,60906c79f8cfd718d6dcb3df,2022-09-08_10h47.48.375,CGTgamblingSpanTasks,2022.2.1,Win32,138.4849744,,,,,,,,,,,,,,,,,,,,,,,,,,,,,,,,,,,,,,,,,,,,,,,,,,,,,,,,,,,,,,,,,,,,,,,,,,,,,,,,,,"[1,3,5,7,2,8,4,9,6,6]",2,0,2,0,1,,,,,,,,,,,,,,,,,,,,,,,,,,,,,,,,,,,,,,,,,,,,,,,,
,,60906c79f8cfd718d6dcb3df,2022-09-08_10h47.48.375,CGTgamblingSpanTasks,2022.2.1,Win32,138.4849744,,,,,,,,,,,,,,,,,,,,,,,,,,,,,,,,,,,,,,,,,,,,,,,,,,,,,,,,,,,,,,,,,,,,,,,,,,,,,,,,,,"[1,3,5,7,2,8,4,9,6,6]",3,0,3,0,1,,,,,,,,,,,,,,,,,,,,,,,,,,,,,,,,,,,,,,,,,,,,,,,,
,,60906c79f8cfd718d6dcb3df,2022-09-08_10h47.48.375,CGTgamblingSpanTasks,2022.2.1,Win32,138.4849744,,,,,,,,,,,,,,,,,,,,,,,,,,,,,,,,,,,,,,,,,,,,,,,,,,,,,,,,,,,,,,,,,,,,,,,,,,,,,,,,,,"[1,3,5,7,2,8,4,9,6,6]",4,0,4,0,1,,,,,,,,,,,,,,,,,,,,,,,,,,,,,,,,,,,,,,,,,,,,,,,,
,,60906c79f8cfd718d6dcb3df,2022-09-08_10h47.48.375,CGTgamblingSpanTasks,2022.2.1,Win32,138.4849744,,,,,,,,,,,,,,,,,,,,,,,,,,,,,,,,,,,,,,,,,,,,,,,,,,,,,,,,,,,,,,,,,,,,,,,,,,,,,,,,,,"[1,3,5,7,2,8,4,9,6,6]",5,0,5,0,1,,,,,,,,,,,,,,,,,,,,,,,,,,,,,,,,,,,,,,,,,,,,,,,,
,,60906c79f8cfd718d6dcb3df,2022-09-08_10h47.48.375,CGTgamblingSpanTasks,2022.2.1,Win32,138.4849744,,,,,,,,,,,,,,,,,,,,,,,,,,,,,,,,,,,,,,,,,,,,,,,,,,,,,,,,,,,,,,,,,,,,,,,,,,,,,,,,,,"[1,3,5,7,2,8,4,9,6,6]",6,0,6,0,1,,,,,,,,,,,,,,,,,,,,,,,,,,,,,,,,,,,,,,,,,,,,,,,,
,,60906c79f8cfd718d6dcb3df,2022-09-08_10h47.48.375,CGTgamblingSpanTasks,2022.2.1,Win32,138.4849744,,,,,,,,,,,,,,,,,,,,,,,,,,,,,,,,,,,,,,,,,,,,,,,,,,,,,,,,,,,,,,,,,,,,,,,,,,,,,,,,,,"[1,3,5,7,2,8,4,9,6,6]",7,0,7,0,1,,,,,,,,,,,,,,,,,,,,,,,,,,,,,,,,,,,,,,,,,,,,,,,,
,,60906c79f8cfd718d6dcb3df,2022-09-08_10h47.48.375,CGTgamblingSpanTasks,2022.2.1,Win32,138.4849744,,,,,,,,,,,,,,,,,,,,,,,,,,,,,,,,,,,,,,,,,,,,,,,,,,,,,,,,,,,,,,,,,,,,,,,,,,,,,,,,,,"[1,3,5,7,2,8,4,9,6,6]",8,0,8,0,1,,,,,,,,,,,,,,,,,,,,,,,,,,,,,,,,,,,,,,,,,,,,,,,,
,,60906c79f8cfd718d6dcb3df,2022-09-08_10h47.48.375,CGTgamblingSpanTasks,2022.2.1,Win32,138.4849744,,,,,,,,,,,,,,,,,,,,,,,,,,,,,,,,,,,,,,,,,,,,,,,,,,,,,,,,,,,,,,,,,,,,,,,,,,,,,,,,,,"[1,3,5,7,2,8,4,9,6,6]",9,0,9,0,1,,,,,,,,,,,,,,,,,,,,,,,,,,,,,,,,,,,,,,,,,,,,,,,,
,,60906c79f8cfd718d6dcb3df,2022-09-08_10h47.48.375,CGTgamblingSpanTasks,2022.2.1,Win32,138.4849744,,,,,,,,,,,,,,,,,,,,,,,,,,,,,,,,,,,,,,,,,,,,,,,,,,,,,,,,,,,,,,,1,,,,,,,,,,,,,,,,,,,,,,,,,1357284966,-0.061111111,-0.418055556,1,0,0,cont_button,0,7,7,7,1,8,,,,,,,,,,,,,,,,,,,,,,,,,,,,,,,,,,,
,,60906c79f8cfd718d6dcb3df,2022-09-08_10h47.48.375,CGTgamblingSpanTasks,2022.2.1,Win32,138.4849744,,,,,,,,,,,,,,,,,,,,,,,,,,,,,,,,,,,,,,,,,,,,,,,,,,,,,,,,,,,,,,,,,,,,,,,,,,,,,,,,,,"[7,2,5,8,1,4,9,6,3,3,2]",0,0,0,0,1,,,,,,,,,,,,,,,,,,,,,,,,,,,,,,,,,,,,,,,,,,,,,,,,
,,60906c79f8cfd718d6dcb3df,2022-09-08_10h47.48.375,CGTgamblingSpanTasks,2022.2.1,Win32,138.4849744,,,,,,,,,,,,,,,,,,,,,,,,,,,,,,,,,,,,,,,,,,,,,,,,,,,,,,,,,,,,,,,,,,,,,,,,,,,,,,,,,,"[7,2,5,8,1,4,9,6,3,3,2]",1,0,1,0,1,,,,,,,,,,,,,,,,,,,,,,,,,,,,,,,,,,,,,,,,,,,,,,,,
,,60906c79f8cfd718d6dcb3df,2022-09-08_10h47.48.375,CGTgamblingSpanTasks,2022.2.1,Win32,138.4849744,,,,,,,,,,,,,,,,,,,,,,,,,,,,,,,,,,,,,,,,,,,,,,,,,,,,,,,,,,,,,,,,,,,,,,,,,,,,,,,,,,"[7,2,5,8,1,4,9,6,3,3,2]",2,0,2,0,1,,,,,,,,,,,,,,,,,,,,,,,,,,,,,,,,,,,,,,,,,,,,,,,,
,,60906c79f8cfd718d6dcb3df,2022-09-08_10h47.48.375,CGTgamblingSpanTasks,2022.2.1,Win32,138.4849744,,,,,,,,,,,,,,,,,,,,,,,,,,,,,,,,,,,,,,,,,,,,,,,,,,,,,,,,,,,,,,,,,,,,,,,,,,,,,,,,,,"[7,2,5,8,1,4,9,6,3,3,2]",3,0,3,0,1,,,,,,,,,,,,,,,,,,,,,,,,,,,,,,,,,,,,,,,,,,,,,,,,
,,60906c79f8cfd718d6dcb3df,2022-09-08_10h47.48.375,CGTgamblingSpanTasks,2022.2.1,Win32,138.4849744,,,,,,,,,,,,,,,,,,,,,,,,,,,,,,,,,,,,,,,,,,,,,,,,,,,,,,,,,,,,,,,,,,,,,,,,,,,,,,,,,,"[7,2,5,8,1,4,9,6,3,3,2]",4,0,4,0,1,,,,,,,,,,,,,,,,,,,,,,,,,,,,,,,,,,,,,,,,,,,,,,,,
,,60906c79f8cfd718d6dcb3df,2022-09-08_10h47.48.375,CGTgamblingSpanTasks,2022.2.1,Win32,138.4849744,,,,,,,,,,,,,,,,,,,,,,,,,,,,,,,,,,,,,,,,,,,,,,,,,,,,,,,,,,,,,,,,,,,,,,,,,,,,,,,,,,"[7,2,5,8,1,4,9,6,3,3,2]",5,0,5,0,1,,,,,,,,,,,,,,,,,,,,,,,,,,,,,,,,,,,,,,,,,,,,,,,,
,,60906c79f8cfd718d6dcb3df,2022-09-08_10h47.48.375,CGTgamblingSpanTasks,2022.2.1,Win32,138.4849744,,,,,,,,,,,,,,,,,,,,,,,,,,,,,,,,,,,,,,,,,,,,,,,,,,,,,,,,,,,,,,,,,,,,,,,,,,,,,,,,,,"[7,2,5,8,1,4,9,6,3,3,2]",6,0,6,0,1,,,,,,,,,,,,,,,,,,,,,,,,,,,,,,,,,,,,,,,,,,,,,,,,
,,60906c79f8cfd718d6dcb3df,2022-09-08_10h47.48.375,CGTgamblingSpanTasks,2022.2.1,Win32,138.4849744,,,,,,,,,,,,,,,,,,,,,,,,,,,,,,,,,,,,,,,,,,,,,,,,,,,,,,,,,,,,,,,,,,,,,,,,,,,,,,,,,,"[7,2,5,8,1,4,9,6,3,3,2]",7,0,7,0,1,,,,,,,,,,,,,,,,,,,,,,,,,,,,,,,,,,,,,,,,,,,,,,,,
,,60906c79f8cfd718d6dcb3df,2022-09-08_10h47.48.375,CGTgamblingSpanTasks,2022.2.1,Win32,138.4849744,,,,,,,,,,,,,,,,,,,,,,,,,,,,,,,,,,,,,,,,,,,,,,,,,,,,,,,,,,,,,,,,,,,,,,,,,,,,,,,,,,"[7,2,5,8,1,4,9,6,3,3,2]",8,0,8,0,1,,,,,,,,,,,,,,,,,,,,,,,,,,,,,,,,,,,,,,,,,,,,,,,,
,,60906c79f8cfd718d6dcb3df,2022-09-08_10h47.48.375,CGTgamblingSpanTasks,2022.2.1,Win32,138.4849744,,,,,,,,,,,,,,,,,,,,,,,,,,,,,,,,,,,,,,,,,,,,,,,,,,,,,,,,,,,,,,,,,,,,,,,,,,,,,,,,,,"[7,2,5,8,1,4,9,6,3,3,2]",9,0,9,0,1,,,,,,,,,,,,,,,,,,,,,,,,,,,,,,,,,,,,,,,,,,,,,,,,
,,60906c79f8cfd718d6dcb3df,2022-09-08_10h47.48.375,CGTgamblingSpanTasks,2022.2.1,Win32,138.4849744,,,,,,,,,,,,,,,,,,,,,,,,,,,,,,,,,,,,,,,,,,,,,,,,,,,,,,,,,,,,,,,,,,,,,,,,,,,,,,,,,,"[7,2,5,8,1,4,9,6,3,3,2]",10,0,10,0,1,,,,,,,,,,,,,,,,,,,,,,,,,,,,,,,,,,,,,,,,,,,,,,,,
,,60906c79f8cfd718d6dcb3df,2022-09-08_10h47.48.375,CGTgamblingSpanTasks,2022.2.1,Win32,138.4849744,,,,,,,,,,,,,,,,,,,,,,,,,,,,,,,,,,,,,,,,,,,,,,,,,,,,,,,,,,,,,,,1,,,,,,,,,,,,,,,,,,,,,,,,,72581496332,-0.061111111,-0.418055556,1,0,0,cont_button,0,8,8,8,1,9,,,,,,,,,,,,,,,,,,,,,,,,,,,,,,,,,,,
,,60906c79f8cfd718d6dcb3df,2022-09-08_10h47.48.375,CGTgamblingSpanTasks,2022.2.1,Win32,138.4849744,,,,,,,,,,,,,,,,,,,,,,,,,,,,,,,,,,,,,,,,,,,,,,,,,,,,,,,,,,,,,,,,,,,,,,,,,,,,,,,,,,"[6,4,1,3,2,8,7,5,9,9,1,4]",0,0,0,0,1,,,,,,,,,,,,,,,,,,,,,,,,,,,,,,,,,,,,,,,,,,,,,,,,
,,60906c79f8cfd718d6dcb3df,2022-09-08_10h47.48.375,CGTgamblingSpanTasks,2022.2.1,Win32,138.4849744,,,,,,,,,,,,,,,,,,,,,,,,,,,,,,,,,,,,,,,,,,,,,,,,,,,,,,,,,,,,,,,,,,,,,,,,,,,,,,,,,,"[6,4,1,3,2,8,7,5,9,9,1,4]",1,0,1,0,1,,,,,,,,,,,,,,,,,,,,,,,,,,,,,,,,,,,,,,,,,,,,,,,,
,,60906c79f8cfd718d6dcb3df,2022-09-08_10h47.48.375,CGTgamblingSpanTasks,2022.2.1,Win32,138.4849744,,,,,,,,,,,,,,,,,,,,,,,,,,,,,,,,,,,,,,,,,,,,,,,,,,,,,,,,,,,,,,,,,,,,,,,,,,,,,,,,,,"[6,4,1,3,2,8,7,5,9,9,1,4]",2,0,2,0,1,,,,,,,,,,,,,,,,,,,,,,,,,,,,,,,,,,,,,,,,,,,,,,,,
,,60906c79f8cfd718d6dcb3df,2022-09-08_10h47.48.375,CGTgamblingSpanTasks,2022.2.1,Win32,138.4849744,,,,,,,,,,,,,,,,,,,,,,,,,,,,,,,,,,,,,,,,,,,,,,,,,,,,,,,,,,,,,,,,,,,,,,,,,,,,,,,,,,"[6,4,1,3,2,8,7,5,9,9,1,4]",3,0,3,0,1,,,,,,,,,,,,,,,,,,,,,,,,,,,,,,,,,,,,,,,,,,,,,,,,
,,60906c79f8cfd718d6dcb3df,2022-09-08_10h47.48.375,CGTgamblingSpanTasks,2022.2.1,Win32,138.4849744,,,,,,,,,,,,,,,,,,,,,,,,,,,,,,,,,,,,,,,,,,,,,,,,,,,,,,,,,,,,,,,,,,,,,,,,,,,,,,,,,,"[6,4,1,3,2,8,7,5,9,9,1,4]",4,0,4,0,1,,,,,,,,,,,,,,,,,,,,,,,,,,,,,,,,,,,,,,,,,,,,,,,,
,,60906c79f8cfd718d6dcb3df,2022-09-08_10h47.48.375,CGTgamblingSpanTasks,2022.2.1,Win32,138.4849744,,,,,,,,,,,,,,,,,,,,,,,,,,,,,,,,,,,,,,,,,,,,,,,,,,,,,,,,,,,,,,,,,,,,,,,,,,,,,,,,,,"[6,4,1,3,2,8,7,5,9,9,1,4]",5,0,5,0,1,,,,,,,,,,,,,,,,,,,,,,,,,,,,,,,,,,,,,,,,,,,,,,,,
,,60906c79f8cfd718d6dcb3df,2022-09-08_10h47.48.375,CGTgamblingSpanTasks,2022.2.1,Win32,138.4849744,,,,,,,,,,,,,,,,,,,,,,,,,,,,,,,,,,,,,,,,,,,,,,,,,,,,,,,,,,,,,,,,,,,,,,,,,,,,,,,,,,"[6,4,1,3,2,8,7,5,9,9,1,4]",6,0,6,0,1,,,,,,,,,,,,,,,,,,,,,,,,,,,,,,,,,,,,,,,,,,,,,,,,
,,60906c79f8cfd718d6dcb3df,2022-09-08_10h47.48.375,CGTgamblingSpanTasks,2022.2.1,Win32,138.4849744,,,,,,,,,,,,,,,,,,,,,,,,,,,,,,,,,,,,,,,,,,,,,,,,,,,,,,,,,,,,,,,,,,,,,,,,,,,,,,,,,,"[6,4,1,3,2,8,7,5,9,9,1,4]",7,0,7,0,1,,,,,,,,,,,,,,,,,,,,,,,,,,,,,,,,,,,,,,,,,,,,,,,,
,,60906c79f8cfd718d6dcb3df,2022-09-08_10h47.48.375,CGTgamblingSpanTasks,2022.2.1,Win32,138.4849744,,,,,,,,,,,,,,,,,,,,,,,,,,,,,,,,,,,,,,,,,,,,,,,,,,,,,,,,,,,,,,,,,,,,,,,,,,,,,,,,,,"[6,4,1,3,2,8,7,5,9,9,1,4]",8,0,8,0,1,,,,,,,,,,,,,,,,,,,,,,,,,,,,,,,,,,,,,,,,,,,,,,,,
,,60906c79f8cfd718d6dcb3df,2022-09-08_10h47.48.375,CGTgamblingSpanTasks,2022.2.1,Win32,138.4849744,,,,,,,,,,,,,,,,,,,,,,,,,,,,,,,,,,,,,,,,,,,,,,,,,,,,,,,,,,,,,,,,,,,,,,,,,,,,,,,,,,"[6,4,1,3,2,8,7,5,9,9,1,4]",9,0,9,0,1,,,,,,,,,,,,,,,,,,,,,,,,,,,,,,,,,,,,,,,,,,,,,,,,
,,60906c79f8cfd718d6dcb3df,2022-09-08_10h47.48.375,CGTgamblingSpanTasks,2022.2.1,Win32,138.4849744,,,,,,,,,,,,,,,,,,,,,,,,,,,,,,,,,,,,,,,,,,,,,,,,,,,,,,,,,,,,,,,,,,,,,,,,,,,,,,,,,,"[6,4,1,3,2,8,7,5,9,9,1,4]",10,0,10,0,1,,,,,,,,,,,,,,,,,,,,,,,,,,,,,,,,,,,,,,,,,,,,,,,,
,,60906c79f8cfd718d6dcb3df,2022-09-08_10h47.48.375,CGTgamblingSpanTasks,2022.2.1,Win32,138.4849744,,,,,,,,,,,,,,,,,,,,,,,,,,,,,,,,,,,,,,,,,,,,,,,,,,,,,,,,,,,,,,,,,,,,,,,,,,,,,,,,,,"[6,4,1,3,2,8,7,5,9,9,1,4]",11,0,11,0,1,,,,,,,,,,,,,,,,,,,,,,,,,,,,,,,,,,,,,,,,,,,,,,,,
,,60906c79f8cfd718d6dcb3df,2022-09-08_10h47.48.375,CGTgamblingSpanTasks,2022.2.1,Win32,138.4849744,,,,,,,,,,,,,,,,,,,,,,,,,,,,,,,,,,,,,,,,,,,,,,,,,,,,,,,,,,,,,,,1,,,,,,,,,,,,,,,,,,,,,,,,,641328759914,-0.025,-0.411111111,1,0,0,cont_button,0,9,9,9,1,10,,,,,,,,,,,,,,,,,,,,,,,,,,,,,,,,,,,
,,60906c79f8cfd718d6dcb3df,2022-09-08_10h47.48.375,CGTgamblingSpanTasks,2022.2.1,Win32,138.4849744,,,,,,,,,,,,,,,,,,,,,,,,,,,,,,,,,,,,,,,,,,,,,,,,,,,,,,,,,,,,,,,,,,,,,,,,,,,,,,,,,,"[5,7,3,8,9,2,4,6,1,1,2,6,5]",0,0,0,0,1,,,,,,,,,,,,,,,,,,,,,,,,,,,,,,,,,,,,,,,,,,,,,,,,
,,60906c79f8cfd718d6dcb3df,2022-09-08_10h47.48.375,CGTgamblingSpanTasks,2022.2.1,Win32,138.4849744,,,,,,,,,,,,,,,,,,,,,,,,,,,,,,,,,,,,,,,,,,,,,,,,,,,,,,,,,,,,,,,,,,,,,,,,,,,,,,,,,,"[5,7,3,8,9,2,4,6,1,1,2,6,5]",1,0,1,0,1,,,,,,,,,,,,,,,,,,,,,,,,,,,,,,,,,,,,,,,,,,,,,,,,
,,60906c79f8cfd718d6dcb3df,2022-09-08_10h47.48.375,CGTgamblingSpanTasks,2022.2.1,Win32,138.4849744,,,,,,,,,,,,,,,,,,,,,,,,,,,,,,,,,,,,,,,,,,,,,,,,,,,,,,,,,,,,,,,,,,,,,,,,,,,,,,,,,,"[5,7,3,8,9,2,4,6,1,1,2,6,5]",2,0,2,0,1,,,,,,,,,,,,,,,,,,,,,,,,,,,,,,,,,,,,,,,,,,,,,,,,
,,60906c79f8cfd718d6dcb3df,2022-09-08_10h47.48.375,CGTgamblingSpanTasks,2022.2.1,Win32,138.4849744,,,,,,,,,,,,,,,,,,,,,,,,,,,,,,,,,,,,,,,,,,,,,,,,,,,,,,,,,,,,,,,,,,,,,,,,,,,,,,,,,,"[5,7,3,8,9,2,4,6,1,1,2,6,5]",3,0,3,0,1,,,,,,,,,,,,,,,,,,,,,,,,,,,,,,,,,,,,,,,,,,,,,,,,
,,60906c79f8cfd718d6dcb3df,2022-09-08_10h47.48.375,CGTgamblingSpanTasks,2022.2.1,Win32,138.4849744,,,,,,,,,,,,,,,,,,,,,,,,,,,,,,,,,,,,,,,,,,,,,,,,,,,,,,,,,,,,,,,,,,,,,,,,,,,,,,,,,,"[5,7,3,8,9,2,4,6,1,1,2,6,5]",4,0,4,0,1,,,,,,,,,,,,,,,,,,,,,,,,,,,,,,,,,,,,,,,,,,,,,,,,
,,60906c79f8cfd718d6dcb3df,2022-09-08_10h47.48.375,CGTgamblingSpanTasks,2022.2.1,Win32,138.4849744,,,,,,,,,,,,,,,,,,,,,,,,,,,,,,,,,,,,,,,,,,,,,,,,,,,,,,,,,,,,,,,,,,,,,,,,,,,,,,,,,,"[5,7,3,8,9,2,4,6,1,1,2,6,5]",5,0,5,0,1,,,,,,,,,,,,,,,,,,,,,,,,,,,,,,,,,,,,,,,,,,,,,,,,
,,60906c79f8cfd718d6dcb3df,2022-09-08_10h47.48.375,CGTgamblingSpanTasks,2022.2.1,Win32,138.4849744,,,,,,,,,,,,,,,,,,,,,,,,,,,,,,,,,,,,,,,,,,,,,,,,,,,,,,,,,,,,,,,,,,,,,,,,,,,,,,,,,,"[5,7,3,8,9,2,4,6,1,1,2,6,5]",6,0,6,0,1,,,,,,,,,,,,,,,,,,,,,,,,,,,,,,,,,,,,,,,,,,,,,,,,
,,60906c79f8cfd718d6dcb3df,2022-09-08_10h47.48.375,CGTgamblingSpanTasks,2022.2.1,Win32,138.4849744,,,,,,,,,,,,,,,,,,,,,,,,,,,,,,,,,,,,,,,,,,,,,,,,,,,,,,,,,,,,,,,,,,,,,,,,,,,,,,,,,,"[5,7,3,8,9,2,4,6,1,1,2,6,5]",7,0,7,0,1,,,,,,,,,,,,,,,,,,,,,,,,,,,,,,,,,,,,,,,,,,,,,,,,
,,60906c79f8cfd718d6dcb3df,2022-09-08_10h47.48.375,CGTgamblingSpanTasks,2022.2.1,Win32,138.4849744,,,,,,,,,,,,,,,,,,,,,,,,,,,,,,,,,,,,,,,,,,,,,,,,,,,,,,,,,,,,,,,,,,,,,,,,,,,,,,,,,,"[5,7,3,8,9,2,4,6,1,1,2,6,5]",8,0,8,0,1,,,,,,,,,,,,,,,,,,,,,,,,,,,,,,,,,,,,,,,,,,,,,,,,
,,60906c79f8cfd718d6dcb3df,2022-09-08_10h47.48.375,CGTgamblingSpanTasks,2022.2.1,Win32,138.4849744,,,,,,,,,,,,,,,,,,,,,,,,,,,,,,,,,,,,,,,,,,,,,,,,,,,,,,,,,,,,,,,,,,,,,,,,,,,,,,,,,,"[5,7,3,8,9,2,4,6,1,1,2,6,5]",9,0,9,0,1,,,,,,,,,,,,,,,,,,,,,,,,,,,,,,,,,,,,,,,,,,,,,,,,
,,60906c79f8cfd718d6dcb3df,2022-09-08_10h47.48.375,CGTgamblingSpanTasks,2022.2.1,Win32,138.4849744,,,,,,,,,,,,,,,,,,,,,,,,,,,,,,,,,,,,,,,,,,,,,,,,,,,,,,,,,,,,,,,,,,,,,,,,,,,,,,,,,,"[5,7,3,8,9,2,4,6,1,1,2,6,5]",10,0,10,0,1,,,,,,,,,,,,,,,,,,,,,,,,,,,,,,,,,,,,,,,,,,,,,,,,
,,60906c79f8cfd718d6dcb3df,2022-09-08_10h47.48.375,CGTgamblingSpanTasks,2022.2.1,Win32,138.4849744,,,,,,,,,,,,,,,,,,,,,,,,,,,,,,,,,,,,,,,,,,,,,,,,,,,,,,,,,,,,,,,,,,,,,,,,,,,,,,,,,,"[5,7,3,8,9,2,4,6,1,1,2,6,5]",11,0,11,0,1,,,,,,,,,,,,,,,,,,,,,,,,,,,,,,,,,,,,,,,,,,,,,,,,
,,60906c79f8cfd718d6dcb3df,2022-09-08_10h47.48.375,CGTgamblingSpanTasks,2022.2.1,Win32,138.4849744,,,,,,,,,,,,,,,,,,,,,,,,,,,,,,,,,,,,,,,,,,,,,,,,,,,,,,,,,,,,,,,,,,,,,,,,,,,,,,,,,,"[5,7,3,8,9,2,4,6,1,1,2,6,5]",12,0,12,0,1,,,,,,,,,,,,,,,,,,,,,,,,,,,,,,,,,,,,,,,,,,,,,,,,
,,60906c79f8cfd718d6dcb3df,2022-09-08_10h47.48.375,CGTgamblingSpanTasks,2022.2.1,Win32,138.4849744,,,,,,,,,,,,,,,,,,,,,,,,,,,,,,,,,,,,,,,,,,,,,,,,,,,,,,,,,,,,,,,1,,,,,,,,,,,,,,,,,,,,,,,,,5738924611265,0.034722222,-0.406944444,1,0,0,cont_button,0,10,10,10,1,11,,,,,,,,,,,,,,,,,,,,,,,,,,,,,,,,,,,
,,60906c79f8cfd718d6dcb3df,2022-09-08_10h47.48.375,CGTgamblingSpanTasks,2022.2.1,Win32,138.4849744,,,,,,,,,,,,,,,,,,,,,,,,,,,,,,,,,,,,,,,,,,,,,,,,,,,,,,,,,,,,,,,,,,,,,,,,,,,,,,,,,,"[5,9,3,6,2,4,7,8,1,1,3,7,8,4]",0,0,0,0,1,,,,,,,,,,,,,,,,,,,,,,,,,,,,,,,,,,,,,,,,,,,,,,,,
,,60906c79f8cfd718d6dcb3df,2022-09-08_10h47.48.375,CGTgamblingSpanTasks,2022.2.1,Win32,138.4849744,,,,,,,,,,,,,,,,,,,,,,,,,,,,,,,,,,,,,,,,,,,,,,,,,,,,,,,,,,,,,,,,,,,,,,,,,,,,,,,,,,"[5,9,3,6,2,4,7,8,1,1,3,7,8,4]",1,0,1,0,1,,,,,,,,,,,,,,,,,,,,,,,,,,,,,,,,,,,,,,,,,,,,,,,,
,,60906c79f8cfd718d6dcb3df,2022-09-08_10h47.48.375,CGTgamblingSpanTasks,2022.2.1,Win32,138.4849744,,,,,,,,,,,,,,,,,,,,,,,,,,,,,,,,,,,,,,,,,,,,,,,,,,,,,,,,,,,,,,,,,,,,,,,,,,,,,,,,,,"[5,9,3,6,2,4,7,8,1,1,3,7,8,4]",2,0,2,0,1,,,,,,,,,,,,,,,,,,,,,,,,,,,,,,,,,,,,,,,,,,,,,,,,
,,60906c79f8cfd718d6dcb3df,2022-09-08_10h47.48.375,CGTgamblingSpanTasks,2022.2.1,Win32,138.4849744,,,,,,,,,,,,,,,,,,,,,,,,,,,,,,,,,,,,,,,,,,,,,,,,,,,,,,,,,,,,,,,,,,,,,,,,,,,,,,,,,,"[5,9,3,6,2,4,7,8,1,1,3,7,8,4]",3,0,3,0,1,,,,,,,,,,,,,,,,,,,,,,,,,,,,,,,,,,,,,,,,,,,,,,,,
,,60906c79f8cfd718d6dcb3df,2022-09-08_10h47.48.375,CGTgamblingSpanTasks,2022.2.1,Win32,138.4849744,,,,,,,,,,,,,,,,,,,,,,,,,,,,,,,,,,,,,,,,,,,,,,,,,,,,,,,,,,,,,,,,,,,,,,,,,,,,,,,,,,"[5,9,3,6,2,4,7,8,1,1,3,7,8,4]",4,0,4,0,1,,,,,,,,,,,,,,,,,,,,,,,,,,,,,,,,,,,,,,,,,,,,,,,,
,,60906c79f8cfd718d6dcb3df,2022-09-08_10h47.48.375,CGTgamblingSpanTasks,2022.2.1,Win32,138.4849744,,,,,,,,,,,,,,,,,,,,,,,,,,,,,,,,,,,,,,,,,,,,,,,,,,,,,,,,,,,,,,,,,,,,,,,,,,,,,,,,,,"[5,9,3,6,2,4,7,8,1,1,3,7,8,4]",5,0,5,0,1,,,,,,,,,,,,,,,,,,,,,,,,,,,,,,,,,,,,,,,,,,,,,,,,
,,60906c79f8cfd718d6dcb3df,2022-09-08_10h47.48.375,CGTgamblingSpanTasks,2022.2.1,Win32,138.4849744,,,,,,,,,,,,,,,,,,,,,,,,,,,,,,,,,,,,,,,,,,,,,,,,,,,,,,,,,,,,,,,,,,,,,,,,,,,,,,,,,,"[5,9,3,6,2,4,7,8,1,1,3,7,8,4]",6,0,6,0,1,,,,,,,,,,,,,,,,,,,,,,,,,,,,,,,,,,,,,,,,,,,,,,,,
,,60906c79f8cfd718d6dcb3df,2022-09-08_10h47.48.375,CGTgamblingSpanTasks,2022.2.1,Win32,138.4849744,,,,,,,,,,,,,,,,,,,,,,,,,,,,,,,,,,,,,,,,,,,,,,,,,,,,,,,,,,,,,,,,,,,,,,,,,,,,,,,,,,"[5,9,3,6,2,4,7,8,1,1,3,7,8,4]",7,0,7,0,1,,,,,,,,,,,,,,,,,,,,,,,,,,,,,,,,,,,,,,,,,,,,,,,,
,,60906c79f8cfd718d6dcb3df,2022-09-08_10h47.48.375,CGTgamblingSpanTasks,2022.2.1,Win32,138.4849744,,,,,,,,,,,,,,,,,,,,,,,,,,,,,,,,,,,,,,,,,,,,,,,,,,,,,,,,,,,,,,,,,,,,,,,,,,,,,,,,,,"[5,9,3,6,2,4,7,8,1,1,3,7,8,4]",8,0,8,0,1,,,,,,,,,,,,,,,,,,,,,,,,,,,,,,,,,,,,,,,,,,,,,,,,
,,60906c79f8cfd718d6dcb3df,2022-09-08_10h47.48.375,CGTgamblingSpanTasks,2022.2.1,Win32,138.4849744,,,,,,,,,,,,,,,,,,,,,,,,,,,,,,,,,,,,,,,,,,,,,,,,,,,,,,,,,,,,,,,,,,,,,,,,,,,,,,,,,,"[5,9,3,6,2,4,7,8,1,1,3,7,8,4]",9,0,9,0,1,,,,,,,,,,,,,,,,,,,,,,,,,,,,,,,,,,,,,,,,,,,,,,,,
,,60906c79f8cfd718d6dcb3df,2022-09-08_10h47.48.375,CGTgamblingSpanTasks,2022.2.1,Win32,138.4849744,,,,,,,,,,,,,,,,,,,,,,,,,,,,,,,,,,,,,,,,,,,,,,,,,,,,,,,,,,,,,,,,,,,,,,,,,,,,,,,,,,"[5,9,3,6,2,4,7,8,1,1,3,7,8,4]",10,0,10,0,1,,,,,,,,,,,,,,,,,,,,,,,,,,,,,,,,,,,,,,,,,,,,,,,,
,,60906c79f8cfd718d6dcb3df,2022-09-08_10h47.48.375,CGTgamblingSpanTasks,2022.2.1,Win32,138.4849744,,,,,,,,,,,,,,,,,,,,,,,,,,,,,,,,,,,,,,,,,,,,,,,,,,,,,,,,,,,,,,,,,,,,,,,,,,,,,,,,,,"[5,9,3,6,2,4,7,8,1,1,3,7,8,4]",11,0,11,0,1,,,,,,,,,,,,,,,,,,,,,,,,,,,,,,,,,,,,,,,,,,,,,,,,
,,60906c79f8cfd718d6dcb3df,2022-09-08_10h47.48.375,CGTgamblingSpanTasks,2022.2.1,Win32,138.4849744,,,,,,,,,,,,,,,,,,,,,,,,,,,,,,,,,,,,,,,,,,,,,,,,,,,,,,,,,,,,,,,,,,,,,,,,,,,,,,,,,,"[5,9,3,6,2,4,7,8,1,1,3,7,8,4]",12,0,12,0,1,,,,,,,,,,,,,,,,,,,,,,,,,,,,,,,,,,,,,,,,,,,,,,,,
,,60906c79f8cfd718d6dcb3df,2022-09-08_10h47.48.375,CGTgamblingSpanTasks,2022.2.1,Win32,138.4849744,,,,,,,,,,,,,,,,,,,,,,,,,,,,,,,,,,,,,,,,,,,,,,,,,,,,,,,,,,,,,,,,,,,,,,,,,,,,,,,,,,"[5,9,3,6,2,4,7,8,1,1,3,7,8,4]",13,0,13,0,1,,,,,,,,,,,,,,,,,,,,,,,,,,,,,,,,,,,,,,,,,,,,,,,,
,,60906c79f8cfd718d6dcb3df,2022-09-08_10h47.48.375,CGTgamblingSpanTasks,2022.2.1,Win32,138.4849744,,,,,,,,,,,,,,,,,,,,,,,,,,,,,,,,,,,,,,,,,,,,,,,,,,,,,,,,,,,,,,,1,,,,,,,,,,,,,,,,,,,,,,,,,59362478113784,-0.009722222,-0.4,1,0,0,cont_button,0,11,11,11,1,12,,,,,,,,,,,,,,,,,,,,,,,,,,,,,,,,,,,
,,60906c79f8cfd718d6dcb3df,2022-09-08_10h47.48.375,CGTgamblingSpanTasks,2022.2.1,Win32,138.4849744,,,,,,,,,,,,,,,,,,,,,,,,,,,,,,,,,,,,,,,,,,,,,,,,,,,,,,,,,,,,,,,,,,,,,,,,,,,,,,,,,,"[6,2,4,9,3,5,7,1,8,8,7,1,5,4,9]",0,0,0,0,1,,,,,,,,,,,,,,,,,,,,,,,,,,,,,,,,,,,,,,,,,,,,,,,,
,,60906c79f8cfd718d6dcb3df,2022-09-08_10h47.48.375,CGTgamblingSpanTasks,2022.2.1,Win32,138.4849744,,,,,,,,,,,,,,,,,,,,,,,,,,,,,,,,,,,,,,,,,,,,,,,,,,,,,,,,,,,,,,,,,,,,,,,,,,,,,,,,,,"[6,2,4,9,3,5,7,1,8,8,7,1,5,4,9]",1,0,1,0,1,,,,,,,,,,,,,,,,,,,,,,,,,,,,,,,,,,,,,,,,,,,,,,,,
,,60906c79f8cfd718d6dcb3df,2022-09-08_10h47.48.375,CGTgamblingSpanTasks,2022.2.1,Win32,138.4849744,,,,,,,,,,,,,,,,,,,,,,,,,,,,,,,,,,,,,,,,,,,,,,,,,,,,,,,,,,,,,,,,,,,,,,,,,,,,,,,,,,"[6,2,4,9,3,5,7,1,8,8,7,1,5,4,9]",2,0,2,0,1,,,,,,,,,,,,,,,,,,,,,,,,,,,,,,,,,,,,,,,,,,,,,,,,
,,60906c79f8cfd718d6dcb3df,2022-09-08_10h47.48.375,CGTgamblingSpanTasks,2022.2.1,Win32,138.4849744,,,,,,,,,,,,,,,,,,,,,,,,,,,,,,,,,,,,,,,,,,,,,,,,,,,,,,,,,,,,,,,,,,,,,,,,,,,,,,,,,,"[6,2,4,9,3,5,7,1,8,8,7,1,5,4,9]",3,0,3,0,1,,,,,,,,,,,,,,,,,,,,,,,,,,,,,,,,,,,,,,,,,,,,,,,,
,,60906c79f8cfd718d6dcb3df,2022-09-08_10h47.48.375,CGTgamblingSpanTasks,2022.2.1,Win32,138.4849744,,,,,,,,,,,,,,,,,,,,,,,,,,,,,,,,,,,,,,,,,,,,,,,,,,,,,,,,,,,,,,,,,,,,,,,,,,,,,,,,,,"[6,2,4,9,3,5,7,1,8,8,7,1,5,4,9]",4,0,4,0,1,,,,,,,,,,,,,,,,,,,,,,,,,,,,,,,,,,,,,,,,,,,,,,,,
,,60906c79f8cfd718d6dcb3df,2022-09-08_10h47.48.375,CGTgamblingSpanTasks,2022.2.1,Win32,138.4849744,,,,,,,,,,,,,,,,,,,,,,,,,,,,,,,,,,,,,,,,,,,,,,,,,,,,,,,,,,,,,,,,,,,,,,,,,,,,,,,,,,"[6,2,4,9,3,5,7,1,8,8,7,1,5,4,9]",5,0,5,0,1,,,,,,,,,,,,,,,,,,,,,,,,,,,,,,,,,,,,,,,,,,,,,,,,
,,60906c79f8cfd718d6dcb3df,2022-09-08_10h47.48.375,CGTgamblingSpanTasks,2022.2.1,Win32,138.4849744,,,,,,,,,,,,,,,,,,,,,,,,,,,,,,,,,,,,,,,,,,,,,,,,,,,,,,,,,,,,,,,,,,,,,,,,,,,,,,,,,,"[6,2,4,9,3,5,7,1,8,8,7,1,5,4,9]",6,0,6,0,1,,,,,,,,,,,,,,,,,,,,,,,,,,,,,,,,,,,,,,,,,,,,,,,,
,,60906c79f8cfd718d6dcb3df,2022-09-08_10h47.48.375,CGTgamblingSpanTasks,2022.2.1,Win32,138.4849744,,,,,,,,,,,,,,,,,,,,,,,,,,,,,,,,,,,,,,,,,,,,,,,,,,,,,,,,,,,,,,,,,,,,,,,,,,,,,,,,,,"[6,2,4,9,3,5,7,1,8,8,7,1,5,4,9]",7,0,7,0,1,,,,,,,,,,,,,,,,,,,,,,,,,,,,,,,,,,,,,,,,,,,,,,,,
,,60906c79f8cfd718d6dcb3df,2022-09-08_10h47.48.375,CGTgamblingSpanTasks,2022.2.1,Win32,138.4849744,,,,,,,,,,,,,,,,,,,,,,,,,,,,,,,,,,,,,,,,,,,,,,,,,,,,,,,,,,,,,,,,,,,,,,,,,,,,,,,,,,"[6,2,4,9,3,5,7,1,8,8,7,1,5,4,9]",8,0,8,0,1,,,,,,,,,,,,,,,,,,,,,,,,,,,,,,,,,,,,,,,,,,,,,,,,
,,60906c79f8cfd718d6dcb3df,2022-09-08_10h47.48.375,CGTgamblingSpanTasks,2022.2.1,Win32,138.4849744,,,,,,,,,,,,,,,,,,,,,,,,,,,,,,,,,,,,,,,,,,,,,,,,,,,,,,,,,,,,,,,,,,,,,,,,,,,,,,,,,,"[6,2,4,9,3,5,7,1,8,8,7,1,5,4,9]",9,0,9,0,1,,,,,,,,,,,,,,,,,,,,,,,,,,,,,,,,,,,,,,,,,,,,,,,,
,,60906c79f8cfd718d6dcb3df,2022-09-08_10h47.48.375,CGTgamblingSpanTasks,2022.2.1,Win32,138.4849744,,,,,,,,,,,,,,,,,,,,,,,,,,,,,,,,,,,,,,,,,,,,,,,,,,,,,,,,,,,,,,,,,,,,,,,,,,,,,,,,,,"[6,2,4,9,3,5,7,1,8,8,7,1,5,4,9]",10,0,10,0,1,,,,,,,,,,,,,,,,,,,,,,,,,,,,,,,,,,,,,,,,,,,,,,,,
,,60906c79f8cfd718d6dcb3df,2022-09-08_10h47.48.375,CGTgamblingSpanTasks,2022.2.1,Win32,138.4849744,,,,,,,,,,,,,,,,,,,,,,,,,,,,,,,,,,,,,,,,,,,,,,,,,,,,,,,,,,,,,,,,,,,,,,,,,,,,,,,,,,"[6,2,4,9,3,5,7,1,8,8,7,1,5,4,9]",11,0,11,0,1,,,,,,,,,,,,,,,,,,,,,,,,,,,,,,,,,,,,,,,,,,,,,,,,
,,60906c79f8cfd718d6dcb3df,2022-09-08_10h47.48.375,CGTgamblingSpanTasks,2022.2.1,Win32,138.4849744,,,,,,,,,,,,,,,,,,,,,,,,,,,,,,,,,,,,,,,,,,,,,,,,,,,,,,,,,,,,,,,,,,,,,,,,,,,,,,,,,,"[6,2,4,9,3,5,7,1,8,8,7,1,5,4,9]",12,0,12,0,1,,,,,,,,,,,,,,,,,,,,,,,,,,,,,,,,,,,,,,,,,,,,,,,,
,,60906c79f8cfd718d6dcb3df,2022-09-08_10h47.48.375,CGTgamblingSpanTasks,2022.2.1,Win32,138.4849744,,,,,,,,,,,,,,,,,,,,,,,,,,,,,,,,,,,,,,,,,,,,,,,,,,,,,,,,,,,,,,,,,,,,,,,,,,,,,,,,,,"[6,2,4,9,3,5,7,1,8,8,7,1,5,4,9]",13,0,13,0,1,,,,,,,,,,,,,,,,,,,,,,,,,,,,,,,,,,,,,,,,,,,,,,,,
,,60906c79f8cfd718d6dcb3df,2022-09-08_10h47.48.375,CGTgamblingSpanTasks,2022.2.1,Win32,138.4849744,,,,,,,,,,,,,,,,,,,,,,,,,,,,,,,,,,,,,,,,,,,,,,,,,,,,,,,,,,,,,,,,,,,,,,,,,,,,,,,,,,"[6,2,4,9,3,5,7,1,8,8,7,1,5,4,9]",14,0,14,0,1,,,,,,,,,,,,,,,,,,,,,,,,,,,,,,,,,,,,,,,,,,,,,,,,
,,60906c79f8cfd718d6dcb3df,2022-09-08_10h47.48.375,CGTgamblingSpanTasks,2022.2.1,Win32,138.4849744,,,,,,,,,,,,,,,,,,,,,,,,,,,,,,,,,,,,,,,,,,,,,,,,,,,,,,,,,,,,,,,1,,,,,,,,,,,,,,,,,,,,,,,,,624935718871549,0.002777778,-0.4125,1,0,0,cont_button,0,12,12,12,1,13,,,,,,,,,,,,,,,,,,,,,,,,,,,,,,,,,,,
,,60906c79f8cfd718d6dcb3df,2022-09-08_10h47.48.375,CGTgamblingSpanTasks,2022.2.1,Win32,138.4849744,,,,,,,,,,,,,,,,,,,,,,,,,,,,,,,,,,,,,,,,,,,,,,,,,,,,,,,,,,,,,,,,,,,,,,,,,,,,,,,,,,"[9,8,2,5,4,1,3,7,6,6,8,3,9,5,1,2]",0,0,0,0,1,,,,,,,,,,,,,,,,,,,,,,,,,,,,,,,,,,,,,,,,,,,,,,,,
,,60906c79f8cfd718d6dcb3df,2022-09-08_10h47.48.375,CGTgamblingSpanTasks,2022.2.1,Win32,138.4849744,,,,,,,,,,,,,,,,,,,,,,,,,,,,,,,,,,,,,,,,,,,,,,,,,,,,,,,,,,,,,,,,,,,,,,,,,,,,,,,,,,"[9,8,2,5,4,1,3,7,6,6,8,3,9,5,1,2]",1,0,1,0,1,,,,,,,,,,,,,,,,,,,,,,,,,,,,,,,,,,,,,,,,,,,,,,,,
,,60906c79f8cfd718d6dcb3df,2022-09-08_10h47.48.375,CGTgamblingSpanTasks,2022.2.1,Win32,138.4849744,,,,,,,,,,,,,,,,,,,,,,,,,,,,,,,,,,,,,,,,,,,,,,,,,,,,,,,,,,,,,,,,,,,,,,,,,,,,,,,,,,"[9,8,2,5,4,1,3,7,6,6,8,3,9,5,1,2]",2,0,2,0,1,,,,,,,,,,,,,,,,,,,,,,,,,,,,,,,,,,,,,,,,,,,,,,,,
,,60906c79f8cfd718d6dcb3df,2022-09-08_10h47.48.375,CGTgamblingSpanTasks,2022.2.1,Win32,138.4849744,,,,,,,,,,,,,,,,,,,,,,,,,,,,,,,,,,,,,,,,,,,,,,,,,,,,,,,,,,,,,,,,,,,,,,,,,,,,,,,,,,"[9,8,2,5,4,1,3,7,6,6,8,3,9,5,1,2]",3,0,3,0,1,,,,,,,,,,,,,,,,,,,,,,,,,,,,,,,,,,,,,,,,,,,,,,,,
,,60906c79f8cfd718d6dcb3df,2022-09-08_10h47.48.375,CGTgamblingSpanTasks,2022.2.1,Win32,138.4849744,,,,,,,,,,,,,,,,,,,,,,,,,,,,,,,,,,,,,,,,,,,,,,,,,,,,,,,,,,,,,,,,,,,,,,,,,,,,,,,,,,"[9,8,2,5,4,1,3,7,6,6,8,3,9,5,1,2]",4,0,4,0,1,,,,,,,,,,,,,,,,,,,,,,,,,,,,,,,,,,,,,,,,,,,,,,,,
,,60906c79f8cfd718d6dcb3df,2022-09-08_10h47.48.375,CGTgamblingSpanTasks,2022.2.1,Win32,138.4849744,,,,,,,,,,,,,,,,,,,,,,,,,,,,,,,,,,,,,,,,,,,,,,,,,,,,,,,,,,,,,,,,,,,,,,,,,,,,,,,,,,"[9,8,2,5,4,1,3,7,6,6,8,3,9,5,1,2]",5,0,5,0,1,,,,,,,,,,,,,,,,,,,,,,,,,,,,,,,,,,,,,,,,,,,,,,,,
,,60906c79f8cfd718d6dcb3df,2022-09-08_10h47.48.375,CGTgamblingSpanTasks,2022.2.1,Win32,138.4849744,,,,,,,,,,,,,,,,,,,,,,,,,,,,,,,,,,,,,,,,,,,,,,,,,,,,,,,,,,,,,,,,,,,,,,,,,,,,,,,,,,"[9,8,2,5,4,1,3,7,6,6,8,3,9,5,1,2]",6,0,6,0,1,,,,,,,,,,,,,,,,,,,,,,,,,,,,,,,,,,,,,,,,,,,,,,,,
,,60906c79f8cfd718d6dcb3df,2022-09-08_10h47.48.375,CGTgamblingSpanTasks,2022.2.1,Win32,138.4849744,,,,,,,,,,,,,,,,,,,,,,,,,,,,,,,,,,,,,,,,,,,,,,,,,,,,,,,,,,,,,,,,,,,,,,,,,,,,,,,,,,"[9,8,2,5,4,1,3,7,6,6,8,3,9,5,1,2]",7,0,7,0,1,,,,,,,,,,,,,,,,,,,,,,,,,,,,,,,,,,,,,,,,,,,,,,,,
,,60906c79f8cfd718d6dcb3df,2022-09-08_10h47.48.375,CGTgamblingSpanTasks,2022.2.1,Win32,138.4849744,,,,,,,,,,,,,,,,,,,,,,,,,,,,,,,,,,,,,,,,,,,,,,,,,,,,,,,,,,,,,,,,,,,,,,,,,,,,,,,,,,"[9,8,2,5,4,1,3,7,6,6,8,3,9,5,1,2]",8,0,8,0,1,,,,,,,,,,,,,,,,,,,,,,,,,,,,,,,,,,,,,,,,,,,,,,,,
,,60906c79f8cfd718d6dcb3df,2022-09-08_10h47.48.375,CGTgamblingSpanTasks,2022.2.1,Win32,138.4849744,,,,,,,,,,,,,,,,,,,,,,,,,,,,,,,,,,,,,,,,,,,,,,,,,,,,,,,,,,,,,,,,,,,,,,,,,,,,,,,,,,"[9,8,2,5,4,1,3,7,6,6,8,3,9,5,1,2]",9,0,9,0,1,,,,,,,,,,,,,,,,,,,,,,,,,,,,,,,,,,,,,,,,,,,,,,,,
,,60906c79f8cfd718d6dcb3df,2022-09-08_10h47.48.375,CGTgamblingSpanTasks,2022.2.1,Win32,138.4849744,,,,,,,,,,,,,,,,,,,,,,,,,,,,,,,,,,,,,,,,,,,,,,,,,,,,,,,,,,,,,,,,,,,,,,,,,,,,,,,,,,"[9,8,2,5,4,1,3,7,6,6,8,3,9,5,1,2]",10,0,10,0,1,,,,,,,,,,,,,,,,,,,,,,,,,,,,,,,,,,,,,,,,,,,,,,,,
,,60906c79f8cfd718d6dcb3df,2022-09-08_10h47.48.375,CGTgamblingSpanTasks,2022.2.1,Win32,138.4849744,,,,,,,,,,,,,,,,,,,,,,,,,,,,,,,,,,,,,,,,,,,,,,,,,,,,,,,,,,,,,,,,,,,,,,,,,,,,,,,,,,"[9,8,2,5,4,1,3,7,6,6,8,3,9,5,1,2]",11,0,11,0,1,,,,,,,,,,,,,,,,,,,,,,,,,,,,,,,,,,,,,,,,,,,,,,,,
,,60906c79f8cfd718d6dcb3df,2022-09-08_10h47.48.375,CGTgamblingSpanTasks,2022.2.1,Win32,138.4849744,,,,,,,,,,,,,,,,,,,,,,,,,,,,,,,,,,,,,,,,,,,,,,,,,,,,,,,,,,,,,,,,,,,,,,,,,,,,,,,,,,"[9,8,2,5,4,1,3,7,6,6,8,3,9,5,1,2]",12,0,12,0,1,,,,,,,,,,,,,,,,,,,,,,,,,,,,,,,,,,,,,,,,,,,,,,,,
,,60906c79f8cfd718d6dcb3df,2022-09-08_10h47.48.375,CGTgamblingSpanTasks,2022.2.1,Win32,138.4849744,,,,,,,,,,,,,,,,,,,,,,,,,,,,,,,,,,,,,,,,,,,,,,,,,,,,,,,,,,,,,,,,,,,,,,,,,,,,,,,,,,"[9,8,2,5,4,1,3,7,6,6,8,3,9,5,1,2]",13,0,13,0,1,,,,,,,,,,,,,,,,,,,,,,,,,,,,,,,,,,,,,,,,,,,,,,,,
,,60906c79f8cfd718d6dcb3df,2022-09-08_10h47.48.375,CGTgamblingSpanTasks,2022.2.1,Win32,138.4849744,,,,,,,,,,,,,,,,,,,,,,,,,,,,,,,,,,,,,,,,,,,,,,,,,,,,,,,,,,,,,,,,,,,,,,,,,,,,,,,,,,"[9,8,2,5,4,1,3,7,6,6,8,3,9,5,1,2]",14,0,14,0,1,,,,,,,,,,,,,,,,,,,,,,,,,,,,,,,,,,,,,,,,,,,,,,,,
,,60906c79f8cfd718d6dcb3df,2022-09-08_10h47.48.375,CGTgamblingSpanTasks,2022.2.1,Win32,138.4849744,,,,,,,,,,,,,,,,,,,,,,,,,,,,,,,,,,,,,,,,,,,,,,,,,,,,,,,,,,,,,,,,,,,,,,,,,,,,,,,,,,"[9,8,2,5,4,1,3,7,6,6,8,3,9,5,1,2]",15,0,15,0,1,,,,,,,,,,,,,,,,,,,,,,,,,,,,,,,,,,,,,,,,,,,,,,,,
,,60906c79f8cfd718d6dcb3df,2022-09-08_10h47.48.375,CGTgamblingSpanTasks,2022.2.1,Win32,138.4849744,,,,,,,,,,,,,,,,,,,,,,,,,,,,,,,,,,,,,,,,,,,,,,,,,,,,,,,,,,,,,,,0,,,,,,,,,,,,,,,,,,,,,,,,,982541376683998,0.061111111,-0.390277778,1,0,0,cont_button,0,13,13,13,1,14,,,,,,,,,,,,,,,,,,,,,,,,,,,,,,,,,,,
,,60906c79f8cfd718d6dcb3df,2022-09-08_10h47.48.375,CGTgamblingSpanTasks,2022.2.1,Win32,138.4849744,,,,,,,,,,,,,,,,,,,,,,,,,,,,,,,,,,,,,,,,,,,,,,,,,,,,,,,,,,,,,,,,,,,,,,,,,,,,,,,,,,,,,,,,,,,,,,,,,,,,,return,7.9798,,,,,,,,,,,,,,,,,,,,,,,,,,,,,,,,,
,,60906c79f8cfd718d6dcb3df,2022-09-08_10h47.48.375,CGTgamblingSpanTasks,2022.2.1,Win32,138.4849744,,,,,,,,,,,,,,,,,,,,,,,,,,,,,,,,,,,,,,,,,,,,,,,,,,,,,,,,,,,,,,,,,,,,,,,,,,,,,,,,,,,,,,,,,,,,,,,,,,,,,,,return,18.0146,,,,,,,,,,,,,,,,,,,,,,,,,,,,,,,
,,60906c79f8cfd718d6dcb3df,2022-09-08_10h47.48.375,CGTgamblingSpanTasks,2022.2.1,Win32,138.4849744,,,,,,,,,,,,,,,,,,,,,,,,,,,,,,,,,,,,,,,,,,,,,,,,,,,,,,,,,,,,,,,1,,,,,,,,,,,,3,342,24,2,42,,,,,,,,,,,,,,,,,,,,,,,,,,42,0.088888889,-0.401388889,1,0,0,cont_buttonPractice_2,0,0,0,0,1,,,,,,,,,,,,,,,,,,,
,,60906c79f8cfd718d6dcb3df,2022-09-08_10h47.48.375,CGTgamblingSpanTasks,2022.2.1,Win32,138.4849744,,,,,,,,,,,,,,,,,,,,,,,,,,,,,,,,,,,,,,,,,,,,,,,,,,,,,,,,,,,,,,,1,,,,,,,,,,,,3,937,73,2,37,,,,,,,,,,,,,,,,,,,,,,,,,,37,0.034722222,-0.406944444,1,0,0,cont_buttonPractice_2,0,1,1,1,1,,,,,,,,,,,,,,,,,,,
,,60906c79f8cfd718d6dcb3df,2022-09-08_10h47.48.375,CGTgamblingSpanTasks,2022.2.1,Win32,138.4849744,,,,,,,,,,,,,,,,,,,,,,,,,,,,,,,,,,,,,,,,,,,,,,,,,,,,,,,,,,,,,,,,,,,,,,,,,,,,,,,,,,,,,,,,,,,,,,,,,,,,,,,,,,,,,,,,,,,,,return,2.3543,,,,,,,,,,,,,,,,,
,,60906c79f8cfd718d6dcb3df,2022-09-08_10h47.48.375,CGTgamblingSpanTasks,2022.2.1,Win32,138.4849744,,,,,,,,,,,,,,,,,,,,,,,,,,,,,,,,,,,,,,,,,,,,,,,,,,,,,,,,,,,,,,,,,,,,,,,,,,,,,,,,,,"[9,1]",,,,,,,,,,,,,,,,,,,,,,,,,,,,,,,,,,,,,0,0,0,0,1,,,,,,,,,,,,
,,60906c79f8cfd718d6dcb3df,2022-09-08_10h47.48.375,CGTgamblingSpanTasks,2022.2.1,Win32,138.4849744,,,,,,,,,,,,,,,,,,,,,,,,,,,,,,,,,,,,,,,,,,,,,,,,,,,,,,,,,,,,,,,,,,,,,,,,,,,,,,,,,,"[9,1]",,,,,,,,,,,,,,,,,,,,,,,,,,,,,,,,,,,,,1,0,1,0,1,,,,,,,,,,,,
,,60906c79f8cfd718d6dcb3df,2022-09-08_10h47.48.375,CGTgamblingSpanTasks,2022.2.1,Win32,138.4849744,,,,,,,,,,,,,,,,,,,,,,,,,,,,,,,,,,,,,,,,,,,,,,,,,,,,,,,,,,,,,,,1,,,,,,,,,,,,,,,,,,,,,,,,,,,,,,,,,,,,,1,,,,,,,,,,,,,,,,,,,,,,,,19,0.105555556,-0.384722222,1,0,0,cont_buttonBS,0,0,0,0,1
