initITIstatic,initITIdynamic,participant,date,expName,psychopyVersion,OS,frameRate,inst1.keys,inst1.rt,startPracResp.keys,startPracResp.rt,choice1.keys,choice1.rt,outcome,extraITI,trials.thisRepN,trials.thisTrialN,trials.thisN,trials.thisIndex,trials.ran,riskyGain,riskyLoss,alternative,isi,iti,loc,postPractResp.keys,postPractResp.rt,realloc,realChoice.keys,realChoice.rt,outcomes,choices,actualITI,init ITI,staticRDM.thisRepN,staticRDM.thisTrialN,staticRDM.thisN,staticRDM.thisIndex,staticRDM.ran,riskyoption1,riskyoption2,safeoption,ischecktrial,dynamicChoiceSetName,dynamicChoiceSetPath,bestRho,bestMu,trials_2.thisRepN,trials_2.thisTrialN,trials_2.thisN,trials_2.thisIndex,trials_2.ran,key_resp.keys,key_resp.rt,dynamicRDM.thisRepN,dynamicRDM.thisTrialN,dynamicRDM.thisN,dynamicRDM.thisIndex,dynamicRDM.ran,choiceP,easy0difficult1,stopBreak.keys,stopBreak.rt,movealong.keys,movealong.rt,startPractice.keys,startPractice.rt,textboxPractice.text,correct,mousePractice.x,mousePractice.y,mousePractice.leftButton,mousePractice.midButton,mousePractice.rightButton,mousePractice.clicked_name,trialFSPractice.thisRepN,trialFSPractice.thisTrialN,trialFSPractice.thisN,trialFSPractice.thisIndex,trialFSPractice.ran,digitSpanForward,digits,digitsReverse,digitSpanReverse,digitsReverseCorrAnswer,startFSreal.keys,startFSreal.rt,digitsForTrial,digitLoop.thisRepN,digitLoop.thisTrialN,digitLoop.thisN,digitLoop.thisIndex,digitLoop.ran,textbox.text,mouse_3.x,mouse_3.y,mouse_3.leftButton,mouse_3.midButton,mouse_3.rightButton,mouse_3.clicked_name,trialsFS.thisRepN,trialsFS.thisTrialN,trialsFS.thisN,trialsFS.thisIndex,trialsFS.ran,trialNumber,moveToBS.keys,moveToBS.rt,startBSprac.keys,startBSprac.rt,textboxPractice_2.text,mousePractice_2.x,mousePractice_2.y,mousePractice_2.leftButton,mousePractice_2.midButton,mousePractice_2.rightButton,mousePractice_2.clicked_name,trialsPracticeBS.thisRepN,trialsPracticeBS.thisTrialN,trialsPracticeBS.thisN,trialsPracticeBS.thisIndex,trialsPracticeBS.ran,startBSreal.keys,startBSreal.rt,digitLoopBS.thisRepN,digitLoopBS.thisTrialN,digitLoopBS.thisN,digitLoopBS.thisIndex,digitLoopBS.ran,textboxBS.text,mouseBS.x,mouseBS.y,mouseBS.leftButton,mouseBS.midButton,mouseBS.rightButton,mouseBS.clicked_name,trialsBS.thisRepN,trialsBS.thisTrialN,trialsBS.thisN,trialsBS.thisIndex,trialsBS.ran
"[1.5,1.5,1,1,1.5,1.5,1.5,1,1.5,1,1.5,1,1,1,1.5,1,1.5,1.5,1.5,1.5,1.5,1.5,1,1.5,1,1,1,1,1,1,1.5,1.5,1,1,1,1,1,1.5,1,1,1.5,1.5,1.5,1.5,1,1.5,1.5,1,1.5,1]","[1,1,1,1,1,1.5,1.5,1,1.5,1.5,1.5,1.5,1,1.5,1,1,1.5,1,1.5,1,1,1,1,1,1.5,1.5,1.5,1,1,1,1,1.5,1,1.5,1.5,1.5,1.5,1,1.5,1,1,1,1,1,1.5,1.5,1.5,1,1.5,1,1.5,1,1.5,1.5,1.5,1.5,1,1,1,1,1.5,1.5,1.5,1,1.5,1.5,1,1,1,1,1,1.5,1.5,1.5,1,1,1,1,1,1,1,1.5,1,1,1.5,1.5,1.5,1.5,1,1,1.5,1.5,1,1,1.5,1.5,1.5,1,1.5,1.5,1,1,1.5,1.5,1.5,1.5,1,1.5,1,1.5,1.5,1.5,1.5,1.5,1,1,1.5,1.5,1,1.5]",6296f6b50fbeeb28c63800df,2022-09-08_13h39.01.289,CGTgamblingSpanTasks,2022.2.1,MacIntel,60.04202942,,,,,,,,,,,,,,,,,,,,,,,,,,,,,,,,,,,,,,,,,,,,,,,,,,,,,,,,,,,,,,,,,,,,,,,,,,,,,,,,,,,,,,,,,,,,,,,,,,,,,,,,,,,,,,,,,,,,,,,,,,,,,,,,,,,,,,,
,,6296f6b50fbeeb28c63800df,2022-09-08_13h39.01.289,CGTgamblingSpanTasks,2022.2.1,MacIntel,60.04202942,return,1.9701,,,,,,,,,,,,,,,,,,,,,,,,,,,,,,,,,,,,,,,,,,,,,,,,,,,,,,,,,,,,,,,,,,,,,,,,,,,,,,,,,,,,,,,,,,,,,,,,,,,,,,,,,,,,,,,,,,,,,,,,,,,,,,,,,,,,,
,,6296f6b50fbeeb28c63800df,2022-09-08_13h39.01.289,CGTgamblingSpanTasks,2022.2.1,MacIntel,60.04202942,,,v,2.1526,,,,,,,,,,,,,,,,,,,,,,,,,,,,,,,,,,,,,,,,,,,,,,,,,,,,,,,,,,,,,,,,,,,,,,,,,,,,,,,,,,,,,,,,,,,,,,,,,,,,,,,,,,,,,,,,,,,,,,,,,,,,,,,,,,,
,,6296f6b50fbeeb28c63800df,2022-09-08_13h39.01.289,CGTgamblingSpanTasks,2022.2.1,MacIntel,60.04202942,,,,,n,1.2076,9.45,2.7924,0,0,0,0,1,18.23,0,9.45,2,1,1,,,,,,,,,,,,,,,,,,,,,,,,,,,,,,,,,,,,,,,,,,,,,,,,,,,,,,,,,,,,,,,,,,,,,,,,,,,,,,,,,,,,,,,,,,,,,,,,,,,,,,,,,,,,,,,,,,,,
,,6296f6b50fbeeb28c63800df,2022-09-08_13h39.01.289,CGTgamblingSpanTasks,2022.2.1,MacIntel,60.04202942,,,,,n,1.2309,35.16,2.7691,0,1,1,1,1,53.27,0,35.16,1,1.5,1,,,,,,,,,,,,,,,,,,,,,,,,,,,,,,,,,,,,,,,,,,,,,,,,,,,,,,,,,,,,,,,,,,,,,,,,,,,,,,,,,,,,,,,,,,,,,,,,,,,,,,,,,,,,,,,,,,,,
,,6296f6b50fbeeb28c63800df,2022-09-08_13h39.01.289,CGTgamblingSpanTasks,2022.2.1,MacIntel,60.04202942,,,,,n,1.2776,8.27,2.7224,0,2,2,2,1,8.27,0,1.15,1,1.5,2,,,,,,,,,,,,,,,,,,,,,,,,,,,,,,,,,,,,,,,,,,,,,,,,,,,,,,,,,,,,,,,,,,,,,,,,,,,,,,,,,,,,,,,,,,,,,,,,,,,,,,,,,,,,,,,,,,,,
,,6296f6b50fbeeb28c63800df,2022-09-08_13h39.01.289,CGTgamblingSpanTasks,2022.2.1,MacIntel,60.04202942,,,,,n,1.5272,40.41,2.4728,0,3,3,3,1,45.88,0,40.41,3,1,1,,,,,,,,,,,,,,,,,,,,,,,,,,,,,,,,,,,,,,,,,,,,,,,,,,,,,,,,,,,,,,,,,,,,,,,,,,,,,,,,,,,,,,,,,,,,,,,,,,,,,,,,,,,,,,,,,,,,
,,6296f6b50fbeeb28c63800df,2022-09-08_13h39.01.289,CGTgamblingSpanTasks,2022.2.1,MacIntel,60.04202942,,,,,n,1.8074,0,2.1926,0,4,4,4,1,21.56,0,11.96,1,1.5,2,,,,,,,,,,,,,,,,,,,,,,,,,,,,,,,,,,,,,,,,,,,,,,,,,,,,,,,,,,,,,,,,,,,,,,,,,,,,,,,,,,,,,,,,,,,,,,,,,,,,,,,,,,,,,,,,,,,,
,,6296f6b50fbeeb28c63800df,2022-09-08_13h39.01.289,CGTgamblingSpanTasks,2022.2.1,MacIntel,60.04202942,,,,,,,,,,,,,,,,,,,,n,1.8108,,,,,,,,,,,,,,,,,,,,,,,,,,,,,,,,,,,,,,,,,,,,,,,,,,,,,,,,,,,,,,,,,,,,,,,,,,,,,,,,,,,,,,,,,,,,,,,,,,,,,,,,,,,,,,,,,,
,,6296f6b50fbeeb28c63800df,2022-09-08_13h39.01.289,CGTgamblingSpanTasks,2022.2.1,MacIntel,60.04202942,,,,,,,,2.7201,,,,,,,,,,,,,,1,n,1.2799,6.4,0,4.2201,1.5,0,0,0,26,1,11.2,0,6.4,0,,,,,,,,,,,,,,,,,,,,,,,,,,,,,,,,,,,,,,,,,,,,,,,,,,,,,,,,,,,,,,,,,,,,,,,,,,,,,,,,,,,,,,,,,,,,,,,,,,
,,6296f6b50fbeeb28c63800df,2022-09-08_13h39.01.289,CGTgamblingSpanTasks,2022.2.1,MacIntel,60.04202942,,,,,,,,2.8439,,,,,,,,,,,,,,1,n,1.1561,10.68,0,4.3439,1.5,0,1,1,48,1,10.68,0,10.68,1,,,,,,,,,,,,,,,,,,,,,,,,,,,,,,,,,,,,,,,,,,,,,,,,,,,,,,,,,,,,,,,,,,,,,,,,,,,,,,,,,,,,,,,,,,,,,,,,,,
,,6296f6b50fbeeb28c63800df,2022-09-08_13h39.01.289,CGTgamblingSpanTasks,2022.2.1,MacIntel,60.04202942,,,,,,,,2.4928,,,,,,,,,,,,,,1,v,1.5072,10.35,1,3.4928,1,0,2,2,40,1,10.35,0,0,1,,,,,,,,,,,,,,,,,,,,,,,,,,,,,,,,,,,,,,,,,,,,,,,,,,,,,,,,,,,,,,,,,,,,,,,,,,,,,,,,,,,,,,,,,,,,,,,,,,
,,6296f6b50fbeeb28c63800df,2022-09-08_13h39.01.289,CGTgamblingSpanTasks,2022.2.1,MacIntel,60.04202942,,,,,,,,2.3209,,,,,,,,,,,,,,2,n,1.6791,0,1,3.3209,1,0,3,3,19,1,17.94,0,9.03,0,,,,,,,,,,,,,,,,,,,,,,,,,,,,,,,,,,,,,,,,,,,,,,,,,,,,,,,,,,,,,,,,,,,,,,,,,,,,,,,,,,,,,,,,,,,,,,,,,,
,,6296f6b50fbeeb28c63800df,2022-09-08_13h39.01.289,CGTgamblingSpanTasks,2022.2.1,MacIntel,60.04202942,,,,,,,,2.4579,,,,,,,,,,,,,,1,v,1.5421,0,1,3.9579,1.5,0,4,4,7,1,21.32,0,7.34,0,,,,,,,,,,,,,,,,,,,,,,,,,,,,,,,,,,,,,,,,,,,,,,,,,,,,,,,,,,,,,,,,,,,,,,,,,,,,,,,,,,,,,,,,,,,,,,,,,,
,,6296f6b50fbeeb28c63800df,2022-09-08_13h39.01.289,CGTgamblingSpanTasks,2022.2.1,MacIntel,60.04202942,,,,,,,,3.008,,,,,,,,,,,,,,1,n,0.992,10.27,0,4.508,1.5,0,5,5,35,1,15.47,0,10.27,0,,,,,,,,,,,,,,,,,,,,,,,,,,,,,,,,,,,,,,,,,,,,,,,,,,,,,,,,,,,,,,,,,,,,,,,,,,,,,,,,,,,,,,,,,,,,,,,,,,
,,6296f6b50fbeeb28c63800df,2022-09-08_13h39.01.289,CGTgamblingSpanTasks,2022.2.1,MacIntel,60.04202942,,,,,,,,2.7747,,,,,,,,,,,,,,1,v,1.2253,0,1,4.2747,1.5,0,6,6,5,1,22.97,0,6.51,0,,,,,,,,,,,,,,,,,,,,,,,,,,,,,,,,,,,,,,,,,,,,,,,,,,,,,,,,,,,,,,,,,,,,,,,,,,,,,,,,,,,,,,,,,,,,,,,,,,
,,6296f6b50fbeeb28c63800df,2022-09-08_13h39.01.289,CGTgamblingSpanTasks,2022.2.1,MacIntel,60.04202942,,,,,,,,2.728,,,,,,,,,,,,,,1,n,1.272,5.27,0,3.728,1,0,7,7,10,1,13.45,0,5.27,0,,,,,,,,,,,,,,,,,,,,,,,,,,,,,,,,,,,,,,,,,,,,,,,,,,,,,,,,,,,,,,,,,,,,,,,,,,,,,,,,,,,,,,,,,,,,,,,,,,
,,6296f6b50fbeeb28c63800df,2022-09-08_13h39.01.289,CGTgamblingSpanTasks,2022.2.1,MacIntel,60.04202942,,,,,,,,2.8064,,,,,,,,,,,,,,2,v,1.1936,10.15,0,4.3064,1.5,0,8,8,33,1,15.7,0,10.15,0,,,,,,,,,,,,,,,,,,,,,,,,,,,,,,,,,,,,,,,,,,,,,,,,,,,,,,,,,,,,,,,,,,,,,,,,,,,,,,,,,,,,,,,,,,,,,,,,,,
,,6296f6b50fbeeb28c63800df,2022-09-08_13h39.01.289,CGTgamblingSpanTasks,2022.2.1,MacIntel,60.04202942,,,,,,,,3.059,,,,,,,,,,,,,,2,n,0.941,0,1,4.059,1,0,9,9,27,1,16.6,0,9.7,0,,,,,,,,,,,,,,,,,,,,,,,,,,,,,,,,,,,,,,,,,,,,,,,,,,,,,,,,,,,,,,,,,,,,,,,,,,,,,,,,,,,,,,,,,,,,,,,,,,
,,6296f6b50fbeeb28c63800df,2022-09-08_13h39.01.289,CGTgamblingSpanTasks,2022.2.1,MacIntel,60.04202942,,,,,,,,2.9112,,,,,,,,,,,,,,1,n,1.0888,9.92,0,4.4112,1.5,0,10,10,49,1,6.79,0,9.92,1,,,,,,,,,,,,,,,,,,,,,,,,,,,,,,,,,,,,,,,,,,,,,,,,,,,,,,,,,,,,,,,,,,,,,,,,,,,,,,,,,,,,,,,,,,,,,,,,,,
,,6296f6b50fbeeb28c63800df,2022-09-08_13h39.01.289,CGTgamblingSpanTasks,2022.2.1,MacIntel,60.04202942,,,,,,,,2.7866,,,,,,,,,,,,,,1,v,1.2134,19.86,1,3.7866,1,0,11,11,42,1,19.86,0,0,1,,,,,,,,,,,,,,,,,,,,,,,,,,,,,,,,,,,,,,,,,,,,,,,,,,,,,,,,,,,,,,,,,,,,,,,,,,,,,,,,,,,,,,,,,,,,,,,,,,
,,6296f6b50fbeeb28c63800df,2022-09-08_13h39.01.289,CGTgamblingSpanTasks,2022.2.1,MacIntel,60.04202942,,,,,,,,2.9727,,,,,,,,,,,,,,1,v,1.0273,0,1,3.9727,1,0,12,12,23,1,17.28,0,9.36,0,,,,,,,,,,,,,,,,,,,,,,,,,,,,,,,,,,,,,,,,,,,,,,,,,,,,,,,,,,,,,,,,,,,,,,,,,,,,,,,,,,,,,,,,,,,,,,,,,,
,,6296f6b50fbeeb28c63800df,2022-09-08_13h39.01.289,CGTgamblingSpanTasks,2022.2.1,MacIntel,60.04202942,,,,,,,,2.7534,,,,,,,,,,,,,,2,n,1.2466,14.26,1,3.7534,1,0,13,13,41,1,14.26,0,0,1,,,,,,,,,,,,,,,,,,,,,,,,,,,,,,,,,,,,,,,,,,,,,,,,,,,,,,,,,,,,,,,,,,,,,,,,,,,,,,,,,,,,,,,,,,,,,,,,,,
,,6296f6b50fbeeb28c63800df,2022-09-08_13h39.01.289,CGTgamblingSpanTasks,2022.2.1,MacIntel,60.04202942,,,,,,,,2.824,,,,,,,,,,,,,,1,v,1.176,18.33,1,4.324,1.5,0,14,14,17,1,18.33,0,8.84,0,,,,,,,,,,,,,,,,,,,,,,,,,,,,,,,,,,,,,,,,,,,,,,,,,,,,,,,,,,,,,,,,,,,,,,,,,,,,,,,,,,,,,,,,,,,,,,,,,,
,,6296f6b50fbeeb28c63800df,2022-09-08_13h39.01.289,CGTgamblingSpanTasks,2022.2.1,MacIntel,60.04202942,,,,,,,,2.8113,,,,,,,,,,,,,,2,n,1.1887,13.1,1,3.8113,1,0,15,15,44,1,13.1,7.73,4.68,1,,,,,,,,,,,,,,,,,,,,,,,,,,,,,,,,,,,,,,,,,,,,,,,,,,,,,,,,,,,,,,,,,,,,,,,,,,,,,,,,,,,,,,,,,,,,,,,,,,
,,6296f6b50fbeeb28c63800df,2022-09-08_13h39.01.289,CGTgamblingSpanTasks,2022.2.1,MacIntel,60.04202942,,,,,,,,2.9446,,,,,,,,,,,,,,2,v,1.0554,10.46,0,4.4446,1.5,0,16,16,39,1,15.09,0,10.46,0,,,,,,,,,,,,,,,,,,,,,,,,,,,,,,,,,,,,,,,,,,,,,,,,,,,,,,,,,,,,,,,,,,,,,,,,,,,,,,,,,,,,,,,,,,,,,,,,,,
,,6296f6b50fbeeb28c63800df,2022-09-08_13h39.01.289,CGTgamblingSpanTasks,2022.2.1,MacIntel,60.04202942,,,,,,,,2.9405,,,,,,,,,,,,,,2,n,1.0595,0,1,4.4405,1.5,0,17,17,2,1,17.73,0,3.13,0,,,,,,,,,,,,,,,,,,,,,,,,,,,,,,,,,,,,,,,,,,,,,,,,,,,,,,,,,,,,,,,,,,,,,,,,,,,,,,,,,,,,,,,,,,,,,,,,,,
,,6296f6b50fbeeb28c63800df,2022-09-08_13h39.01.289,CGTgamblingSpanTasks,2022.2.1,MacIntel,60.04202942,,,,,,,,2.9694,,,,,,,,,,,,,,1,v,1.0306,13.04,1,4.4694,1.5,0,18,18,12,1,13.04,0,5.48,0,,,,,,,,,,,,,,,,,,,,,,,,,,,,,,,,,,,,,,,,,,,,,,,,,,,,,,,,,,,,,,,,,,,,,,,,,,,,,,,,,,,,,,,,,,,,,,,,,,
,,6296f6b50fbeeb28c63800df,2022-09-08_13h39.01.289,CGTgamblingSpanTasks,2022.2.1,MacIntel,60.04202942,,,,,,,,3.1074,,,,,,,,,,,,,,2,n,0.8926,0,1,4.6074,1.5,0,19,19,28,1,10.95,0,6.53,0,,,,,,,,,,,,,,,,,,,,,,,,,,,,,,,,,,,,,,,,,,,,,,,,,,,,,,,,,,,,,,,,,,,,,,,,,,,,,,,,,,,,,,,,,,,,,,,,,,
,,6296f6b50fbeeb28c63800df,2022-09-08_13h39.01.289,CGTgamblingSpanTasks,2022.2.1,MacIntel,60.04202942,,,,,,,,2.8909,,,,,,,,,,,,,,2,n,1.1091,10.55,1,4.3909,1.5,0,20,20,32,1,10.55,0,6.73,0,,,,,,,,,,,,,,,,,,,,,,,,,,,,,,,,,,,,,,,,,,,,,,,,,,,,,,,,,,,,,,,,,,,,,,,,,,,,,,,,,,,,,,,,,,,,,,,,,,
,,6296f6b50fbeeb28c63800df,2022-09-08_13h39.01.289,CGTgamblingSpanTasks,2022.2.1,MacIntel,60.04202942,,,,,,,,2.8712,,,,,,,,,,,,,,2,n,1.1288,10.12,1,4.3712,1.5,0,21,21,38,1,10.12,0,6.94,0,,,,,,,,,,,,,,,,,,,,,,,,,,,,,,,,,,,,,,,,,,,,,,,,,,,,,,,,,,,,,,,,,,,,,,,,,,,,,,,,,,,,,,,,,,,,,,,,,,
,,6296f6b50fbeeb28c63800df,2022-09-08_13h39.01.289,CGTgamblingSpanTasks,2022.2.1,MacIntel,60.04202942,,,,,,,,2.7387,,,,,,,,,,,,,,1,v,1.2613,18.77,1,3.7387,1,0,22,22,15,1,18.77,0,8.61,0,,,,,,,,,,,,,,,,,,,,,,,,,,,,,,,,,,,,,,,,,,,,,,,,,,,,,,,,,,,,,,,,,,,,,,,,,,,,,,,,,,,,,,,,,,,,,,,,,,
,,6296f6b50fbeeb28c63800df,2022-09-08_13h39.01.289,CGTgamblingSpanTasks,2022.2.1,MacIntel,60.04202942,,,,,,,,3.0069,,,,,,,,,,,,,,1,v,0.9931,28.21,1,4.5069,1.5,0,23,23,1,1,28.21,0,3.89,0,,,,,,,,,,,,,,,,,,,,,,,,,,,,,,,,,,,,,,,,,,,,,,,,,,,,,,,,,,,,,,,,,,,,,,,,,,,,,,,,,,,,,,,,,,,,,,,,,,
,,6296f6b50fbeeb28c63800df,2022-09-08_13h39.01.289,CGTgamblingSpanTasks,2022.2.1,MacIntel,60.04202942,,,,,,,,3.074,,,,,,,,,,,,,,2,n,0.926,0,1,4.074,1,0,24,24,34,1,10.39,0,6.81,0,,,,,,,,,,,,,,,,,,,,,,,,,,,,,,,,,,,,,,,,,,,,,,,,,,,,,,,,,,,,,,,,,,,,,,,,,,,,,,,,,,,,,,,,,,,,,,,,,,
,,6296f6b50fbeeb28c63800df,2022-09-08_13h39.01.289,CGTgamblingSpanTasks,2022.2.1,MacIntel,60.04202942,,,,,,,,3.0039,,,,,,,,,,,,,,1,n,0.9961,10.25,0,4.0039,1,0,25,25,46,1,0,0,10.25,1,,,,,,,,,,,,,,,,,,,,,,,,,,,,,,,,,,,,,,,,,,,,,,,,,,,,,,,,,,,,,,,,,,,,,,,,,,,,,,,,,,,,,,,,,,,,,,,,,,
,,6296f6b50fbeeb28c63800df,2022-09-08_13h39.01.289,CGTgamblingSpanTasks,2022.2.1,MacIntel,60.04202942,,,,,,,,2.5773,,,,,,,,,,,,,,2,v,1.4227,10.37,0,3.5773,1,0,26,26,37,1,15.27,0,10.37,0,,,,,,,,,,,,,,,,,,,,,,,,,,,,,,,,,,,,,,,,,,,,,,,,,,,,,,,,,,,,,,,,,,,,,,,,,,,,,,,,,,,,,,,,,,,,,,,,,,
,,6296f6b50fbeeb28c63800df,2022-09-08_13h39.01.289,CGTgamblingSpanTasks,2022.2.1,MacIntel,60.04202942,,,,,,,,2.8103,,,,,,,,,,,,,,1,v,1.1897,20.53,1,3.8103,1,0,27,27,9,1,20.53,0,7.73,0,,,,,,,,,,,,,,,,,,,,,,,,,,,,,,,,,,,,,,,,,,,,,,,,,,,,,,,,,,,,,,,,,,,,,,,,,,,,,,,,,,,,,,,,,,,,,,,,,,
,,6296f6b50fbeeb28c63800df,2022-09-08_13h39.01.289,CGTgamblingSpanTasks,2022.2.1,MacIntel,60.04202942,,,,,,,,2.9933,,,,,,,,,,,,,,2,n,1.0067,0,1,3.9933,1,0,28,28,21,1,17.59,0,9.2,0,,,,,,,,,,,,,,,,,,,,,,,,,,,,,,,,,,,,,,,,,,,,,,,,,,,,,,,,,,,,,,,,,,,,,,,,,,,,,,,,,,,,,,,,,,,,,,,,,,
,,6296f6b50fbeeb28c63800df,2022-09-08_13h39.01.289,CGTgamblingSpanTasks,2022.2.1,MacIntel,60.04202942,,,,,,,,3.0409,,,,,,,,,,,,,,1,n,0.9591,3.13,0,4.0409,1,0,29,29,47,1,0,0,3.13,1,,,,,,,,,,,,,,,,,,,,,,,,,,,,,,,,,,,,,,,,,,,,,,,,,,,,,,,,,,,,,,,,,,,,,,,,,,,,,,,,,,,,,,,,,,,,,,,,,,
,,6296f6b50fbeeb28c63800df,2022-09-08_13h39.01.289,CGTgamblingSpanTasks,2022.2.1,MacIntel,60.04202942,,,,,,,,3.2206,,,,,,,,,,,,,,2,n,0.7794,0,1,4.7206,1.5,0,30,30,0,1,20.03,0,1.99,0,,,,,,,,,,,,,,,,,,,,,,,,,,,,,,,,,,,,,,,,,,,,,,,,,,,,,,,,,,,,,,,,,,,,,,,,,,,,,,,,,,,,,,,,,,,,,,,,,,
,,6296f6b50fbeeb28c63800df,2022-09-08_13h39.01.289,CGTgamblingSpanTasks,2022.2.1,MacIntel,60.04202942,,,,,,,,3.0279,,,,,,,,,,,,,,2,n,0.9721,25.2,1,4.5279,1.5,0,31,31,3,1,25.2,0,5.4,0,,,,,,,,,,,,,,,,,,,,,,,,,,,,,,,,,,,,,,,,,,,,,,,,,,,,,,,,,,,,,,,,,,,,,,,,,,,,,,,,,,,,,,,,,,,,,,,,,,
,,6296f6b50fbeeb28c63800df,2022-09-08_13h39.01.289,CGTgamblingSpanTasks,2022.2.1,MacIntel,60.04202942,,,,,,,,3.0108,,,,,,,,,,,,,,1,v,0.9892,0,1,4.0108,1,0,32,32,36,1,10.24,0,6.88,0,,,,,,,,,,,,,,,,,,,,,,,,,,,,,,,,,,,,,,,,,,,,,,,,,,,,,,,,,,,,,,,,,,,,,,,,,,,,,,,,,,,,,,,,,,,,,,,,,,
,,6296f6b50fbeeb28c63800df,2022-09-08_13h39.01.289,CGTgamblingSpanTasks,2022.2.1,MacIntel,60.04202942,,,,,,,,3.3197,,,,,,,,,,,,,,2,n,0.6803,11.84,1,4.3197,1,0,33,33,20,1,11.84,0,6.08,0,,,,,,,,,,,,,,,,,,,,,,,,,,,,,,,,,,,,,,,,,,,,,,,,,,,,,,,,,,,,,,,,,,,,,,,,,,,,,,,,,,,,,,,,,,,,,,,,,,
,,6296f6b50fbeeb28c63800df,2022-09-08_13h39.01.289,CGTgamblingSpanTasks,2022.2.1,MacIntel,60.04202942,,,,,,,,3.1774,,,,,,,,,,,,,,1,v,0.8226,19.86,1,4.1774,1,0,34,34,11,1,19.86,0,8.07,0,,,,,,,,,,,,,,,,,,,,,,,,,,,,,,,,,,,,,,,,,,,,,,,,,,,,,,,,,,,,,,,,,,,,,,,,,,,,,,,,,,,,,,,,,,,,,,,,,,
,,6296f6b50fbeeb28c63800df,2022-09-08_13h39.01.289,CGTgamblingSpanTasks,2022.2.1,MacIntel,60.04202942,,,,,,,,3.0252,,,,,,,,,,,,,,1,v,0.9748,12.68,1,4.0252,1,0,35,35,14,1,12.68,0,5.66,0,,,,,,,,,,,,,,,,,,,,,,,,,,,,,,,,,,,,,,,,,,,,,,,,,,,,,,,,,,,,,,,,,,,,,,,,,,,,,,,,,,,,,,,,,,,,,,,,,,
,,6296f6b50fbeeb28c63800df,2022-09-08_13h39.01.289,CGTgamblingSpanTasks,2022.2.1,MacIntel,60.04202942,,,,,,,,3.1977,,,,,,,,,,,,,,1,v,0.8023,14.72,1,4.1977,1,0,36,36,6,1,14.72,0,4.64,0,,,,,,,,,,,,,,,,,,,,,,,,,,,,,,,,,,,,,,,,,,,,,,,,,,,,,,,,,,,,,,,,,,,,,,,,,,,,,,,,,,,,,,,,,,,,,,,,,,
,,6296f6b50fbeeb28c63800df,2022-09-08_13h39.01.289,CGTgamblingSpanTasks,2022.2.1,MacIntel,60.04202942,,,,,,,,3.2835,,,,,,,,,,,,,,1,v,0.7165,11.43,1,4.7835,1.5,0,37,37,24,1,11.43,0,6.29,0,,,,,,,,,,,,,,,,,,,,,,,,,,,,,,,,,,,,,,,,,,,,,,,,,,,,,,,,,,,,,,,,,,,,,,,,,,,,,,,,,,,,,,,,,,,,,,,,,,
,,6296f6b50fbeeb28c63800df,2022-09-08_13h39.01.289,CGTgamblingSpanTasks,2022.2.1,MacIntel,60.04202942,,,,,,,,3.0773,,,,,,,,,,,,,,2,n,0.9227,6.99,1,4.0773,1,0,38,38,43,1,16.11,6.99,6.99,1,,,,,,,,,,,,,,,,,,,,,,,,,,,,,,,,,,,,,,,,,,,,,,,,,,,,,,,,,,,,,,,,,,,,,,,,,,,,,,,,,,,,,,,,,,,,,,,,,,
,,6296f6b50fbeeb28c63800df,2022-09-08_13h39.01.289,CGTgamblingSpanTasks,2022.2.1,MacIntel,60.04202942,,,,,,,,2.7826,,,,,,,,,,,,,,1,v,1.2174,17,1,3.7826,1,0,39,39,25,1,17,0,9.5,0,,,,,,,,,,,,,,,,,,,,,,,,,,,,,,,,,,,,,,,,,,,,,,,,,,,,,,,,,,,,,,,,,,,,,,,,,,,,,,,,,,,,,,,,,,,,,,,,,,
,,6296f6b50fbeeb28c63800df,2022-09-08_13h39.01.289,CGTgamblingSpanTasks,2022.2.1,MacIntel,60.04202942,,,,,,,,2.9653,,,,,,,,,,,,,,2,n,1.0347,0,1,4.4653,1.5,0,40,40,31,1,15.96,0,10.02,0,,,,,,,,,,,,,,,,,,,,,,,,,,,,,,,,,,,,,,,,,,,,,,,,,,,,,,,,,,,,,,,,,,,,,,,,,,,,,,,,,,,,,,,,,,,,,,,,,,
,,6296f6b50fbeeb28c63800df,2022-09-08_13h39.01.289,CGTgamblingSpanTasks,2022.2.1,MacIntel,60.04202942,,,,,,,,3.0166,,,,,,,,,,,,,,2,n,0.9834,0,1,4.5166,1.5,0,41,41,13,1,19.28,0,8.36,0,,,,,,,,,,,,,,,,,,,,,,,,,,,,,,,,,,,,,,,,,,,,,,,,,,,,,,,,,,,,,,,,,,,,,,,,,,,,,,,,,,,,,,,,,,,,,,,,,,
,,6296f6b50fbeeb28c63800df,2022-09-08_13h39.01.289,CGTgamblingSpanTasks,2022.2.1,MacIntel,60.04202942,,,,,,,,3.1631,,,,,,,,,,,,,,1,v,0.8369,10.73,1,4.6631,1.5,0,42,42,30,1,10.73,0,6.63,0,,,,,,,,,,,,,,,,,,,,,,,,,,,,,,,,,,,,,,,,,,,,,,,,,,,,,,,,,,,,,,,,,,,,,,,,,,,,,,,,,,,,,,,,,,,,,,,,,,
,,6296f6b50fbeeb28c63800df,2022-09-08_13h39.01.289,CGTgamblingSpanTasks,2022.2.1,MacIntel,60.04202942,,,,,,,,2.8256,,,,,,,,,,,,,,2,n,1.1744,12.36,1,4.3256,1.5,0,43,43,16,1,12.36,0,5.82,0,,,,,,,,,,,,,,,,,,,,,,,,,,,,,,,,,,,,,,,,,,,,,,,,,,,,,,,,,,,,,,,,,,,,,,,,,,,,,,,,,,,,,,,,,,,,,,,,,,
,,6296f6b50fbeeb28c63800df,2022-09-08_13h39.01.289,CGTgamblingSpanTasks,2022.2.1,MacIntel,60.04202942,,,,,,,,3.1274,,,,,,,,,,,,,,1,n,0.8726,7.55,0,4.1274,1,0,44,44,45,1,0,0,7.55,1,,,,,,,,,,,,,,,,,,,,,,,,,,,,,,,,,,,,,,,,,,,,,,,,,,,,,,,,,,,,,,,,,,,,,,,,,,,,,,,,,,,,,,,,,,,,,,,,,,
,,6296f6b50fbeeb28c63800df,2022-09-08_13h39.01.289,CGTgamblingSpanTasks,2022.2.1,MacIntel,60.04202942,,,,,,,,3.1695,,,,,,,,,,,,,,1,v,0.8305,0,1,4.6695,1.5,0,45,45,29,1,16.26,0,9.87,0,,,,,,,,,,,,,,,,,,,,,,,,,,,,,,,,,,,,,,,,,,,,,,,,,,,,,,,,,,,,,,,,,,,,,,,,,,,,,,,,,,,,,,,,,,,,,,,,,,
,,6296f6b50fbeeb28c63800df,2022-09-08_13h39.01.289,CGTgamblingSpanTasks,2022.2.1,MacIntel,60.04202942,,,,,,,,2.9279,,,,,,,,,,,,,,1,v,1.0721,0,1,4.4279,1.5,0,46,46,4,1,16,0,4,0,,,,,,,,,,,,,,,,,,,,,,,,,,,,,,,,,,,,,,,,,,,,,,,,,,,,,,,,,,,,,,,,,,,,,,,,,,,,,,,,,,,,,,,,,,,,,,,,,,
,,6296f6b50fbeeb28c63800df,2022-09-08_13h39.01.289,CGTgamblingSpanTasks,2022.2.1,MacIntel,60.04202942,,,,,,,,3.0241,,,,,,,,,,,,,,2,n,0.9759,11.62,1,4.0241,1,0,47,47,22,1,11.62,0,6.19,0,,,,,,,,,,,,,,,,,,,,,,,,,,,,,,,,,,,,,,,,,,,,,,,,,,,,,,,,,,,,,,,,,,,,,,,,,,,,,,,,,,,,,,,,,,,,,,,,,,
,,6296f6b50fbeeb28c63800df,2022-09-08_13h39.01.289,CGTgamblingSpanTasks,2022.2.1,MacIntel,60.04202942,,,,,,,,3.0355,,,,,,,,,,,,,,2,n,0.9645,12.08,1,4.5355,1.5,0,48,48,18,1,12.08,0,5.96,0,,,,,,,,,,,,,,,,,,,,,,,,,,,,,,,,,,,,,,,,,,,,,,,,,,,,,,,,,,,,,,,,,,,,,,,,,,,,,,,,,,,,,,,,,,,,,,,,,,
,,6296f6b50fbeeb28c63800df,2022-09-08_13h39.01.289,CGTgamblingSpanTasks,2022.2.1,MacIntel,60.04202942,,,,,,,,3.215,,,,,,,,,,,,,,1,v,0.785,0,1,4.215,1,0,49,49,8,1,13.94,0,5.03,0,,,,,,,,,,,,,,,,,,,,,,,,,,,,,,,,,,,,,,,,,,,,,,,,,,,,,,,,,,,,,,,,,,,,,,,,,,,,,,,,,,,,,,,,,,,,,,,,,,
,,6296f6b50fbeeb28c63800df,2022-09-08_13h39.01.289,CGTgamblingSpanTasks,2022.2.1,MacIntel,60.04202942,,,,,,,,,,,,,,,,,,,,,,,,,,,,,,,,,,,,,,bespoke_choiceset_rhoInd147_muInd099.csv,bespoke_choicesets/bespoke_choiceset_rhoInd147_muInd099.csv,147,99,0,0,0,0,1,,,,,,,,,,,,,,,,,,,,,,,,,,,,,,,,,,,,,,,,,,,,,,,,,,,,,,,,,,,,,,,,,,,,,,,,,,,,,,,,,,,,,,,,,
,,6296f6b50fbeeb28c63800df,2022-09-08_13h39.01.289,CGTgamblingSpanTasks,2022.2.1,MacIntel,60.04202942,,,,,,,,,,,,,,,,,,,,,,,,,,,,,,,,,,,,,,,,,,,,,,,,,,,,,,,,,,,,,,,,,,,,,,,,,,,,,,,,,,,,,,,,,,,,,,,,,,,,,,,,,,,,,,,,,,,,,,,,,,,,,,,,,,,,,,,
,,6296f6b50fbeeb28c63800df,2022-09-08_13h39.01.289,CGTgamblingSpanTasks,2022.2.1,MacIntel,60.04202942,,,,,,,,,,,,,,,,,,,,,,,,,,,,,,,,,,,,,,,,,,,,,,,v,149.8495,,,,,,,,,,,,,,,,,,,,,,,,,,,,,,,,,,,,,,,,,,,,,,,,,,,,,,,,,,,,,,,,,,,,,,,,,,,,,,,,,,,,,,,
,,6296f6b50fbeeb28c63800df,2022-09-08_13h39.01.289,CGTgamblingSpanTasks,2022.2.1,MacIntel,60.04202942,,,,,,,,2.9021,,,,,,,,,,,,,,2,n,1.0979,0,1,3.9021,1,,,,,,24.35708027,0,2.738695417,,,,,,,,,,,,,0,0,0,114,1,0.466573634,1,,,,,,,,,,,,,,,,,,,,,,,,,,,,,,,,,,,,,,,,,,,,,,,,,,,,,,,,,,,,,,,,,,,,,,,,,,,,,,,,
,,6296f6b50fbeeb28c63800df,2022-09-08_13h39.01.289,CGTgamblingSpanTasks,2022.2.1,MacIntel,60.04202942,,,,,,,,2.7422,,,,,,,,,,,,,,2,n,1.2578,0,1,3.7422,1,,,,,,15.87668502,0,8.42547829,,,,,,,,,,,,,0,1,1,56,1,0.092099462,0,,,,,,,,,,,,,,,,,,,,,,,,,,,,,,,,,,,,,,,,,,,,,,,,,,,,,,,,,,,,,,,,,,,,,,,,,,,,,,,,
,,6296f6b50fbeeb28c63800df,2022-09-08_13h39.01.289,CGTgamblingSpanTasks,2022.2.1,MacIntel,60.04202942,,,,,,,,2.9925,,,,,,,,,,,,,,2,v,1.0075,11.42134125,0,3.9925,1,,,,,,12.9904115,0,11.42134125,,,,,,,,,,,,,0,2,2,118,1,0.037876033,0,,,,,,,,,,,,,,,,,,,,,,,,,,,,,,,,,,,,,,,,,,,,,,,,,,,,,,,,,,,,,,,,,,,,,,,,,,,,,,,,
,,6296f6b50fbeeb28c63800df,2022-09-08_13h39.01.289,CGTgamblingSpanTasks,2022.2.1,MacIntel,60.04202942,,,,,,,,3.0275,,,,,,,,,,,,,,1,v,0.9725,19.58698544,1,4.0275,1,,,,,,19.58698544,0,9.936178001,,,,,,,,,,,,,0,3,3,77,1,0.098812204,0,,,,,,,,,,,,,,,,,,,,,,,,,,,,,,,,,,,,,,,,,,,,,,,,,,,,,,,,,,,,,,,,,,,,,,,,,,,,,,,,
,,6296f6b50fbeeb28c63800df,2022-09-08_13h39.01.289,CGTgamblingSpanTasks,2022.2.1,MacIntel,60.04202942,,,,,,,,3.0148,,,,,,,,,,,,,,2,n,0.9852,29.30724159,1,4.0148,1,,,,,,29.30724159,0,3.247012935,,,,,,,,,,,,,0,4,4,71,1,0.470571125,1,,,,,,,,,,,,,,,,,,,,,,,,,,,,,,,,,,,,,,,,,,,,,,,,,,,,,,,,,,,,,,,,,,,,,,,,,,,,,,,,
,,6296f6b50fbeeb28c63800df,2022-09-08_13h39.01.289,CGTgamblingSpanTasks,2022.2.1,MacIntel,60.04202942,,,,,,,,3.2886,,,,,,,,,,,,,,2,n,0.7114,0,1,4.7886,1.5,,,,,,19.36415485,0,1.966229494,,,,,,,,,,,,,0,5,5,96,1,0.493893111,1,,,,,,,,,,,,,,,,,,,,,,,,,,,,,,,,,,,,,,,,,,,,,,,,,,,,,,,,,,,,,,,,,,,,,,,,,,,,,,,,
,,6296f6b50fbeeb28c63800df,2022-09-08_13h39.01.289,CGTgamblingSpanTasks,2022.2.1,MacIntel,60.04202942,,,,,,,,3.1256,,,,,,,,,,,,,,2,n,0.8744,0,1,4.6256,1.5,,,,,,21.39646914,0,0.072474078,,,,,,,,,,,,,0,6,6,3,1,0.902848133,0,,,,,,,,,,,,,,,,,,,,,,,,,,,,,,,,,,,,,,,,,,,,,,,,,,,,,,,,,,,,,,,,,,,,,,,,,,,,,,,,
,,6296f6b50fbeeb28c63800df,2022-09-08_13h39.01.289,CGTgamblingSpanTasks,2022.2.1,MacIntel,60.04202942,,,,,,,,3.24,,,,,,,,,,,,,,1,v,0.76,0,1,4.24,1,,,,,,28.9323758,0,2.893007023,,,,,,,,,,,,,0,7,7,11,1,0.497943321,1,,,,,,,,,,,,,,,,,,,,,,,,,,,,,,,,,,,,,,,,,,,,,,,,,,,,,,,,,,,,,,,,,,,,,,,,,,,,,,,,
,,6296f6b50fbeeb28c63800df,2022-09-08_13h39.01.289,CGTgamblingSpanTasks,2022.2.1,MacIntel,60.04202942,,,,,,,,3.1815,,,,,,,,,,,,,,1,v,0.8185,13.96521039,1,4.6815,1.5,,,,,,13.96521039,0,1.591282699,,,,,,,,,,,,,0,8,8,49,1,0.462956344,1,,,,,,,,,,,,,,,,,,,,,,,,,,,,,,,,,,,,,,,,,,,,,,,,,,,,,,,,,,,,,,,,,,,,,,,,,,,,,,,,
,,6296f6b50fbeeb28c63800df,2022-09-08_13h39.01.289,CGTgamblingSpanTasks,2022.2.1,MacIntel,60.04202942,,,,,,,,3.086,,,,,,,,,,,,,,1,v,0.914,27.77179191,1,4.586,1.5,,,,,,27.77179191,0,0.074524436,,,,,,,,,,,,,0,9,9,99,1,0.910114387,0,,,,,,,,,,,,,,,,,,,,,,,,,,,,,,,,,,,,,,,,,,,,,,,,,,,,,,,,,,,,,,,,,,,,,,,,,,,,,,,,
,,6296f6b50fbeeb28c63800df,2022-09-08_13h39.01.289,CGTgamblingSpanTasks,2022.2.1,MacIntel,60.04202942,,,,,,,,3.2598,,,,,,,,,,,,,,2,n,0.7402,21.03408097,1,4.7598,1.5,,,,,,21.03408097,0,2.208275162,,,,,,,,,,,,,0,10,10,0,1,0.485031246,1,,,,,,,,,,,,,,,,,,,,,,,,,,,,,,,,,,,,,,,,,,,,,,,,,,,,,,,,,,,,,,,,,,,,,,,,,,,,,,,,
,,6296f6b50fbeeb28c63800df,2022-09-08_13h39.01.289,CGTgamblingSpanTasks,2022.2.1,MacIntel,60.04202942,,,,,,,,3.3418,,,,,,,,,,,,,,1,v,0.6582,17.23907308,1,4.8418,1.5,,,,,,17.23907308,0,2.055848574,,,,,,,,,,,,,0,11,11,66,1,0.450504458,1,,,,,,,,,,,,,,,,,,,,,,,,,,,,,,,,,,,,,,,,,,,,,,,,,,,,,,,,,,,,,,,,,,,,,,,,,,,,,,,,
,,6296f6b50fbeeb28c63800df,2022-09-08_13h39.01.289,CGTgamblingSpanTasks,2022.2.1,MacIntel,60.04202942,,,,,,,,2.7888,,,,,,,,,,,,,,2,n,1.2112,0,1,3.7888,1,,,,,,17.64114152,0,10.68505773,,,,,,,,,,,,,0,12,12,98,1,0.074299362,0,,,,,,,,,,,,,,,,,,,,,,,,,,,,,,,,,,,,,,,,,,,,,,,,,,,,,,,,,,,,,,,,,,,,,,,,,,,,,,,,
,,6296f6b50fbeeb28c63800df,2022-09-08_13h39.01.289,CGTgamblingSpanTasks,2022.2.1,MacIntel,60.04202942,,,,,,,,3.0262,,,,,,,,,,,,,,1,v,0.9738,22.62475578,1,4.5262,1.5,,,,,,22.62475578,0,2.397643354,,,,,,,,,,,,,0,13,13,93,1,0.482527609,1,,,,,,,,,,,,,,,,,,,,,,,,,,,,,,,,,,,,,,,,,,,,,,,,,,,,,,,,,,,,,,,,,,,,,,,,,,,,,,,,
,,6296f6b50fbeeb28c63800df,2022-09-08_13h39.01.289,CGTgamblingSpanTasks,2022.2.1,MacIntel,60.04202942,,,,,,,,2.8571,,,,,,,,,,,,,,1,v,1.1429,0,1,3.8571,1,,,,,,18.11029021,0,11.41737518,,,,,,,,,,,,,0,14,14,48,1,0.069445859,0,,,,,,,,,,,,,,,,,,,,,,,,,,,,,,,,,,,,,,,,,,,,,,,,,,,,,,,,,,,,,,,,,,,,,,,,,,,,,,,,
,,6296f6b50fbeeb28c63800df,2022-09-08_13h39.01.289,CGTgamblingSpanTasks,2022.2.1,MacIntel,60.04202942,,,,,,,,2.9398,,,,,,,,,,,,,,1,n,1.0602,11.19311486,0,3.9398,1,,,,,,8.17598802,0,11.19311486,,,,,,,,,,,,,0,15,15,110,1,0.021568003,0,,,,,,,,,,,,,,,,,,,,,,,,,,,,,,,,,,,,,,,,,,,,,,,,,,,,,,,,,,,,,,,,,,,,,,,,,,,,,,,,
,,6296f6b50fbeeb28c63800df,2022-09-08_13h39.01.289,CGTgamblingSpanTasks,2022.2.1,MacIntel,60.04202942,,,,,,,,2.9936,,,,,,,,,,,,,,2,n,1.0064,0,1,4.4936,1.5,,,,,,27.7711693,0,2.320849632,,,,,,,,,,,,,0,16,16,94,1,0.543786368,1,,,,,,,,,,,,,,,,,,,,,,,,,,,,,,,,,,,,,,,,,,,,,,,,,,,,,,,,,,,,,,,,,,,,,,,,,,,,,,,,
,,6296f6b50fbeeb28c63800df,2022-09-08_13h39.01.289,CGTgamblingSpanTasks,2022.2.1,MacIntel,60.04202942,,,,,,,,3.1695,,,,,,,,,,,,,,2,n,0.8305,0,1,4.1695,1,,,,,,15.73000491,0,8.830252162,,,,,,,,,,,,,0,17,17,95,1,0.084193143,0,,,,,,,,,,,,,,,,,,,,,,,,,,,,,,,,,,,,,,,,,,,,,,,,,,,,,,,,,,,,,,,,,,,,,,,,,,,,,,,,
,,6296f6b50fbeeb28c63800df,2022-09-08_13h39.01.289,CGTgamblingSpanTasks,2022.2.1,MacIntel,60.04202942,,,,,,,,2.8878,,,,,,,,,,,,,,2,v,1.1122,11.6744431,0,4.3878,1.5,,,,,,10.43004651,0,11.6744431,,,,,,,,,,,,,0,18,18,15,1,0.026176489,0,,,,,,,,,,,,,,,,,,,,,,,,,,,,,,,,,,,,,,,,,,,,,,,,,,,,,,,,,,,,,,,,,,,,,,,,,,,,,,,,
,,6296f6b50fbeeb28c63800df,2022-09-08_13h39.01.289,CGTgamblingSpanTasks,2022.2.1,MacIntel,60.04202942,,,,,,,,2.6387,,,,,,,,,,,,,,2,n,1.3613,0,1,3.6387,1,,,,,,17.67865084,0,11.35147481,,,,,,,,,,,,,0,19,19,91,1,0.067304606,0,,,,,,,,,,,,,,,,,,,,,,,,,,,,,,,,,,,,,,,,,,,,,,,,,,,,,,,,,,,,,,,,,,,,,,,,,,,,,,,,
,,6296f6b50fbeeb28c63800df,2022-09-08_13h39.01.289,CGTgamblingSpanTasks,2022.2.1,MacIntel,60.04202942,,,,,,,,2.6851,,,,,,,,,,,,,,1,v,1.3149,17.92584289,1,3.6851,1,,,,,,17.92584289,0,1.878232496,,,,,,,,,,,,,0,20,20,5,1,0.485559263,1,,,,,,,,,,,,,,,,,,,,,,,,,,,,,,,,,,,,,,,,,,,,,,,,,,,,,,,,,,,,,,,,,,,,,,,,,,,,,,,,
,,6296f6b50fbeeb28c63800df,2022-09-08_13h39.01.289,CGTgamblingSpanTasks,2022.2.1,MacIntel,60.04202942,,,,,,,,2.6899,,,,,,,,,,,,,,2,n,1.3101,0,1,3.6899,1,,,,,,27.38828234,0,0.0639233,,,,,,,,,,,,,0,21,21,43,1,0.914010176,0,,,,,,,,,,,,,,,,,,,,,,,,,,,,,,,,,,,,,,,,,,,,,,,,,,,,,,,,,,,,,,,,,,,,,,,,,,,,,,,,
,,6296f6b50fbeeb28c63800df,2022-09-08_13h39.01.289,CGTgamblingSpanTasks,2022.2.1,MacIntel,60.04202942,,,,,,,,2.8713,,,,,,,,,,,,,,1,v,1.1287,8.217594828,1,3.8713,1,,,,,,8.217594828,0,0.951019374,,,,,,,,,,,,,0,22,22,87,1,0.458722936,1,,,,,,,,,,,,,,,,,,,,,,,,,,,,,,,,,,,,,,,,,,,,,,,,,,,,,,,,,,,,,,,,,,,,,,,,,,,,,,,,
,,6296f6b50fbeeb28c63800df,2022-09-08_13h39.01.289,CGTgamblingSpanTasks,2022.2.1,MacIntel,60.04202942,,,,,,,,2.9393,,,,,,,,,,,,,,2,n,1.0607,0,1,3.9393,1,,,,,,17.5608285,0,1.825111303,,,,,,,,,,,,,0,23,23,104,1,0.487721116,1,,,,,,,,,,,,,,,,,,,,,,,,,,,,,,,,,,,,,,,,,,,,,,,,,,,,,,,,,,,,,,,,,,,,,,,,,,,,,,,,
,,6296f6b50fbeeb28c63800df,2022-09-08_13h39.01.289,CGTgamblingSpanTasks,2022.2.1,MacIntel,60.04202942,,,,,,,,2.9234,,,,,,,,,,,,,,1,v,1.0766,0,1,4.4234,1.5,,,,,,28.33977875,0,2.768313633,,,,,,,,,,,,,0,24,24,116,1,0.50406901,1,,,,,,,,,,,,,,,,,,,,,,,,,,,,,,,,,,,,,,,,,,,,,,,,,,,,,,,,,,,,,,,,,,,,,,,,,,,,,,,,
,,6296f6b50fbeeb28c63800df,2022-09-08_13h39.01.289,CGTgamblingSpanTasks,2022.2.1,MacIntel,60.04202942,,,,,,,,2.8551,,,,,,,,,,,,,,1,v,1.1449,19.30622782,1,4.3551,1.5,,,,,,19.30622782,0,10.31611309,,,,,,,,,,,,,0,25,25,1,1,0.091105656,0,,,,,,,,,,,,,,,,,,,,,,,,,,,,,,,,,,,,,,,,,,,,,,,,,,,,,,,,,,,,,,,,,,,,,,,,,,,,,,,,
,,6296f6b50fbeeb28c63800df,2022-09-08_13h39.01.289,CGTgamblingSpanTasks,2022.2.1,MacIntel,60.04202942,,,,,,,,3.1346,,,,,,,,,,,,,,1,n,0.8654,10.41201161,0,4.6346,1.5,,,,,,6.307062696,0,10.41201161,,,,,,,,,,,,,0,26,26,23,1,0.018187109,0,,,,,,,,,,,,,,,,,,,,,,,,,,,,,,,,,,,,,,,,,,,,,,,,,,,,,,,,,,,,,,,,,,,,,,,,,,,,,,,,
,,6296f6b50fbeeb28c63800df,2022-09-08_13h39.01.289,CGTgamblingSpanTasks,2022.2.1,MacIntel,60.04202942,,,,,,,,2.8528,,,,,,,,,,,,,,2,n,1.1472,22.25959835,1,3.8528,1,,,,,,22.25959835,0,0.065383587,,,,,,,,,,,,,0,27,27,97,1,0.907413875,0,,,,,,,,,,,,,,,,,,,,,,,,,,,,,,,,,,,,,,,,,,,,,,,,,,,,,,,,,,,,,,,,,,,,,,,,,,,,,,,,
,,6296f6b50fbeeb28c63800df,2022-09-08_13h39.01.289,CGTgamblingSpanTasks,2022.2.1,MacIntel,60.04202942,,,,,,,,3.2724,,,,,,,,,,,,,,1,v,0.7276,28.18900855,1,4.2724,1,,,,,,28.18900855,0,0.05384276,,,,,,,,,,,,,0,28,28,55,1,0.919081308,0,,,,,,,,,,,,,,,,,,,,,,,,,,,,,,,,,,,,,,,,,,,,,,,,,,,,,,,,,,,,,,,,,,,,,,,,,,,,,,,,
,,6296f6b50fbeeb28c63800df,2022-09-08_13h39.01.289,CGTgamblingSpanTasks,2022.2.1,MacIntel,60.04202942,,,,,,,,3.3375,,,,,,,,,,,,,,1,v,0.6625,27.93093084,1,4.3375,1,,,,,,27.93093084,0,0.050207531,,,,,,,,,,,,,0,29,29,83,1,0.920505936,0,,,,,,,,,,,,,,,,,,,,,,,,,,,,,,,,,,,,,,,,,,,,,,,,,,,,,,,,,,,,,,,,,,,,,,,,,,,,,,,,
,,6296f6b50fbeeb28c63800df,2022-09-08_13h39.01.289,CGTgamblingSpanTasks,2022.2.1,MacIntel,60.04202942,,,,,,,,3.3266,,,,,,,,,,,,,,1,v,0.6734,0,1,4.3266,1,,,,,,23.59556381,0,2.464662219,,,,,,,,,,,,,0,30,30,22,1,0.486383205,1,,,,,,,,,,,,,,,,,,,,,,,,,,,,,,,,,,,,,,,,,,,,,,,,,,,,,,,,,,,,,,,,,,,,,,,,,,,,,,,,
,,6296f6b50fbeeb28c63800df,2022-09-08_13h39.01.289,CGTgamblingSpanTasks,2022.2.1,MacIntel,60.04202942,,,,,,,,2.9578,,,,,,,,,,,,,,1,v,1.0422,22.0050376,1,4.4578,1.5,,,,,,22.0050376,0,2.257683666,,,,,,,,,,,,,0,31,31,4,1,0.491147312,1,,,,,,,,,,,,,,,,,,,,,,,,,,,,,,,,,,,,,,,,,,,,,,,,,,,,,,,,,,,,,,,,,,,,,,,,,,,,,,,,
,,6296f6b50fbeeb28c63800df,2022-09-08_13h39.01.289,CGTgamblingSpanTasks,2022.2.1,MacIntel,60.04202942,,,,,,,,3.3064,,,,,,,,,,,,,,1,v,0.6936,0,1,4.3064,1,,,,,,29.77342428,0,2.838865588,,,,,,,,,,,,,0,32,32,57,1,0.510363415,1,,,,,,,,,,,,,,,,,,,,,,,,,,,,,,,,,,,,,,,,,,,,,,,,,,,,,,,,,,,,,,,,,,,,,,,,,,,,,,,,
,,6296f6b50fbeeb28c63800df,2022-09-08_13h39.01.289,CGTgamblingSpanTasks,2022.2.1,MacIntel,60.04202942,,,,,,,,3.4251,,,,,,,,,,,,,,1,v,0.5749,0,1,4.9251,1.5,,,,,,21.2188881,0,2.067660742,,,,,,,,,,,,,0,33,33,107,1,0.50470775,1,,,,,,,,,,,,,,,,,,,,,,,,,,,,,,,,,,,,,,,,,,,,,,,,,,,,,,,,,,,,,,,,,,,,,,,,,,,,,,,,
,,6296f6b50fbeeb28c63800df,2022-09-08_13h39.01.289,CGTgamblingSpanTasks,2022.2.1,MacIntel,60.04202942,,,,,,,,3.107,,,,,,,,,,,,,,2,n,0.893,0,1,4.607,1.5,,,,,,28.9381277,0,2.663622024,,,,,,,,,,,,,0,34,34,103,1,0.519453367,1,,,,,,,,,,,,,,,,,,,,,,,,,,,,,,,,,,,,,,,,,,,,,,,,,,,,,,,,,,,,,,,,,,,,,,,,,,,,,,,,
,,6296f6b50fbeeb28c63800df,2022-09-08_13h39.01.289,CGTgamblingSpanTasks,2022.2.1,MacIntel,60.04202942,,,,,,,,3.27,,,,,,,,,,,,,,2,n,0.73,7.534278541,1,4.77,1.5,,,,,,7.534278541,0,0.747140182,,,,,,,,,,,,,0,35,35,37,1,0.50012466,1,,,,,,,,,,,,,,,,,,,,,,,,,,,,,,,,,,,,,,,,,,,,,,,,,,,,,,,,,,,,,,,,,,,,,,,,,,,,,,,,
,,6296f6b50fbeeb28c63800df,2022-09-08_13h39.01.289,CGTgamblingSpanTasks,2022.2.1,MacIntel,60.04202942,,,,,,,,3.0902,,,,,,,,,,,,,,2,n,0.9098,0,1,4.5902,1.5,,,,,,4.698775357,0,4.904872644,,,,,,,,,,,,,0,36,36,75,1,0.028064484,0,,,,,,,,,,,,,,,,,,,,,,,,,,,,,,,,,,,,,,,,,,,,,,,,,,,,,,,,,,,,,,,,,,,,,,,,,,,,,,,,
,,6296f6b50fbeeb28c63800df,2022-09-08_13h39.01.289,CGTgamblingSpanTasks,2022.2.1,MacIntel,60.04202942,,,,,,,,2.8365,,,,,,,,,,,,,,2,n,1.1635,0,1,3.8365,1,,,,,,23.0613391,0,2.387726776,,,,,,,,,,,,,0,37,37,69,1,0.488727763,1,,,,,,,,,,,,,,,,,,,,,,,,,,,,,,,,,,,,,,,,,,,,,,,,,,,,,,,,,,,,,,,,,,,,,,,,,,,,,,,,
,,6296f6b50fbeeb28c63800df,2022-09-08_13h39.01.289,CGTgamblingSpanTasks,2022.2.1,MacIntel,60.04202942,,,,,,,,3.0038,,,,,,,,,,,,,,1,v,0.9962,0,1,4.5038,1.5,,,,,,18.20422443,0,1.635040165,,,,,,,,,,,,,0,38,38,82,1,0.525708991,1,,,,,,,,,,,,,,,,,,,,,,,,,,,,,,,,,,,,,,,,,,,,,,,,,,,,,,,,,,,,,,,,,,,,,,,,,,,,,,,,
,,6296f6b50fbeeb28c63800df,2022-09-08_13h39.01.289,CGTgamblingSpanTasks,2022.2.1,MacIntel,60.04202942,,,,,,,,3.01,,,,,,,,,,,,,,1,v,0.99,15.13999312,1,4.01,1,,,,,,15.13999312,0,8.653432553,,,,,,,,,,,,,0,39,39,54,1,0.081767484,0,,,,,,,,,,,,,,,,,,,,,,,,,,,,,,,,,,,,,,,,,,,,,,,,,,,,,,,,,,,,,,,,,,,,,,,,,,,,,,,,
,,6296f6b50fbeeb28c63800df,2022-09-08_13h39.01.289,CGTgamblingSpanTasks,2022.2.1,MacIntel,60.04202942,,,,,,,,2.7567,,,,,,,,,,,,,,1,v,1.2433,0,1,3.7567,1,,,,,,27.53810185,0,0.097022401,,,,,,,,,,,,,0,40,40,50,1,0.901515865,0,,,,,,,,,,,,,,,,,,,,,,,,,,,,,,,,,,,,,,,,,,,,,,,,,,,,,,,,,,,,,,,,,,,,,,,,,,,,,,,,
,,6296f6b50fbeeb28c63800df,2022-09-08_13h39.01.289,CGTgamblingSpanTasks,2022.2.1,MacIntel,60.04202942,,,,,,,,3.0022,,,,,,,,,,,,,,1,v,0.9978,22.87092517,1,4.0022,1,,,,,,22.87092517,0,0.059276504,,,,,,,,,,,,,0,41,41,27,1,0.911114935,0,,,,,,,,,,,,,,,,,,,,,,,,,,,,,,,,,,,,,,,,,,,,,,,,,,,,,,,,,,,,,,,,,,,,,,,,,,,,,,,,
,,6296f6b50fbeeb28c63800df,2022-09-08_13h39.01.289,CGTgamblingSpanTasks,2022.2.1,MacIntel,60.04202942,,,,,,,,2.8364,,,,,,,,,,,,,,1,v,1.1636,0,1,3.8364,1,,,,,,9.012590634,0,1.002188111,,,,,,,,,,,,,0,42,42,12,1,0.46958041,1,,,,,,,,,,,,,,,,,,,,,,,,,,,,,,,,,,,,,,,,,,,,,,,,,,,,,,,,,,,,,,,,,,,,,,,,,,,,,,,,
,,6296f6b50fbeeb28c63800df,2022-09-08_13h39.01.289,CGTgamblingSpanTasks,2022.2.1,MacIntel,60.04202942,,,,,,,,3.2534,,,,,,,,,,,,,,2,n,0.7466,0,1,4.2534,1,,,,,,25.26994993,0,2.78925142,,,,,,,,,,,,,0,43,43,108,1,0.471582922,1,,,,,,,,,,,,,,,,,,,,,,,,,,,,,,,,,,,,,,,,,,,,,,,,,,,,,,,,,,,,,,,,,,,,,,,,,,,,,,,,
,,6296f6b50fbeeb28c63800df,2022-09-08_13h39.01.289,CGTgamblingSpanTasks,2022.2.1,MacIntel,60.04202942,,,,,,,,3.2083,,,,,,,,,,,,,,1,v,0.7917,0,1,4.7083,1.5,,,,,,29.75778644,0,2.810531415,,,,,,,,,,,,,0,44,44,113,1,0.512824233,1,,,,,,,,,,,,,,,,,,,,,,,,,,,,,,,,,,,,,,,,,,,,,,,,,,,,,,,,,,,,,,,,,,,,,,,,,,,,,,,,
,,6296f6b50fbeeb28c63800df,2022-09-08_13h39.01.289,CGTgamblingSpanTasks,2022.2.1,MacIntel,60.04202942,,,,,,,,2.7942,,,,,,,,,,,,,,1,n,1.2058,7.646213173,0,4.2942,1.5,,,,,,2.042350179,0,7.646213173,,,,,,,,,,,,,0,45,45,53,1,0.009522273,0,,,,,,,,,,,,,,,,,,,,,,,,,,,,,,,,,,,,,,,,,,,,,,,,,,,,,,,,,,,,,,,,,,,,,,,,,,,,,,,,
,,6296f6b50fbeeb28c63800df,2022-09-08_13h39.01.289,CGTgamblingSpanTasks,2022.2.1,MacIntel,60.04202942,,,,,,,,2.9759,,,,,,,,,,,,,,1,v,1.0241,0,1,4.4759,1.5,,,,,,24.57684014,0,0.061756244,,,,,,,,,,,,,0,46,46,68,1,0.911988903,0,,,,,,,,,,,,,,,,,,,,,,,,,,,,,,,,,,,,,,,,,,,,,,,,,,,,,,,,,,,,,,,,,,,,,,,,,,,,,,,,
,,6296f6b50fbeeb28c63800df,2022-09-08_13h39.01.289,CGTgamblingSpanTasks,2022.2.1,MacIntel,60.04202942,,,,,,,,2.8779,,,,,,,,,,,,,,1,v,1.1221,24.479109,1,3.8779,1,,,,,,24.479109,0,0.089582697,,,,,,,,,,,,,0,47,47,89,1,0.900200232,0,,,,,,,,,,,,,,,,,,,,,,,,,,,,,,,,,,,,,,,,,,,,,,,,,,,,,,,,,,,,,,,,,,,,,,,,,,,,,,,,
,,6296f6b50fbeeb28c63800df,2022-09-08_13h39.01.289,CGTgamblingSpanTasks,2022.2.1,MacIntel,60.04202942,,,,,,,,3.168,,,,,,,,,,,,,,2,v,0.832,7.850775577,0,4.668,1.5,,,,,,4.622707531,0,7.850775577,,,,,,,,,,,,,0,48,48,6,1,0.017737407,0,,,,,,,,,,,,,,,,,,,,,,,,,,,,,,,,,,,,,,,,,,,,,,,,,,,,,,,,,,,,,,,,,,,,,,,,,,,,,,,,
,,6296f6b50fbeeb28c63800df,2022-09-08_13h39.01.289,CGTgamblingSpanTasks,2022.2.1,MacIntel,60.04202942,,,,,,,,3.2533,,,,,,,,,,,,,,2,n,0.7467,0,1,4.2533,1,,,,,,27.94544945,0,2.32030209,,,,,,,,,,,,,0,49,49,115,1,0.545390564,1,,,,,,,,,,,,,,,,,,,,,,,,,,,,,,,,,,,,,,,,,,,,,,,,,,,,,,,,,,,,,,,,,,,,,,,,,,,,,,,,
,,6296f6b50fbeeb28c63800df,2022-09-08_13h39.01.289,CGTgamblingSpanTasks,2022.2.1,MacIntel,60.04202942,,,,,,,,2.9586,,,,,,,,,,,,,,2,n,1.0414,0,1,4.4586,1.5,,,,,,21.48443242,0,2.229247341,,,,,,,,,,,,,0,50,50,63,1,0.488155912,1,,,,,,,,,,,,,,,,,,,,,,,,,,,,,,,,,,,,,,,,,,,,,,,,,,,,,,,,,,,,,,,,,,,,,,,,,,,,,,,,
,,6296f6b50fbeeb28c63800df,2022-09-08_13h39.01.289,CGTgamblingSpanTasks,2022.2.1,MacIntel,60.04202942,,,,,,,,2.8786,,,,,,,,,,,,,,2,n,1.1214,0,1,3.8786,1,,,,,,20.31034258,0,1.870404296,,,,,,,,,,,,,0,51,51,85,1,0.519325853,1,,,,,,,,,,,,,,,,,,,,,,,,,,,,,,,,,,,,,,,,,,,,,,,,,,,,,,,,,,,,,,,,,,,,,,,,,,,,,,,,
,,6296f6b50fbeeb28c63800df,2022-09-08_13h39.01.289,CGTgamblingSpanTasks,2022.2.1,MacIntel,60.04202942,,,,,,,,3.1107,,,,,,,,,,,,,,2,n,0.8893,0,1,4.6107,1.5,,,,,,19.3050342,0,2.030232342,,,,,,,,,,,,,0,52,52,73,1,0.484573227,1,,,,,,,,,,,,,,,,,,,,,,,,,,,,,,,,,,,,,,,,,,,,,,,,,,,,,,,,,,,,,,,,,,,,,,,,,,,,,,,,
,,6296f6b50fbeeb28c63800df,2022-09-08_13h39.01.289,CGTgamblingSpanTasks,2022.2.1,MacIntel,60.04202942,,,,,,,,3.1216,,,,,,,,,,,,,,1,v,0.8784,28.68598705,1,4.6216,1.5,,,,,,28.68598705,0,0.050674956,,,,,,,,,,,,,0,53,53,62,1,0.920905497,0,,,,,,,,,,,,,,,,,,,,,,,,,,,,,,,,,,,,,,,,,,,,,,,,,,,,,,,,,,,,,,,,,,,,,,,,,,,,,,,,
,,6296f6b50fbeeb28c63800df,2022-09-08_13h39.01.289,CGTgamblingSpanTasks,2022.2.1,MacIntel,60.04202942,,,,,,,,2.719,,,,,,,,,,,,,,1,v,1.281,6.662965216,1,4.219,1.5,,,,,,6.662965216,0,6.091504705,,,,,,,,,,,,,0,54,54,102,1,0.035087099,0,,,,,,,,,,,,,,,,,,,,,,,,,,,,,,,,,,,,,,,,,,,,,,,,,,,,,,,,,,,,,,,,,,,,,,,,,,,,,,,,
,,6296f6b50fbeeb28c63800df,2022-09-08_13h39.01.289,CGTgamblingSpanTasks,2022.2.1,MacIntel,60.04202942,,,,,,,,2.9077,,,,,,,,,,,,,,2,n,1.0923,10.05300841,1,4.4077,1.5,,,,,,10.05300841,0,8.512335864,,,,,,,,,,,,,0,55,55,74,1,0.040729225,0,,,,,,,,,,,,,,,,,,,,,,,,,,,,,,,,,,,,,,,,,,,,,,,,,,,,,,,,,,,,,,,,,,,,,,,,,,,,,,,,
,,6296f6b50fbeeb28c63800df,2022-09-08_13h39.01.289,CGTgamblingSpanTasks,2022.2.1,MacIntel,60.04202942,,,,,,,,2.9571,,,,,,,,,,,,,,2,n,1.0429,19.5450126,1,3.9571,1,,,,,,19.5450126,0,2.123581464,,,,,,,,,,,,,0,56,56,65,1,0.475836144,1,,,,,,,,,,,,,,,,,,,,,,,,,,,,,,,,,,,,,,,,,,,,,,,,,,,,,,,,,,,,,,,,,,,,,,,,,,,,,,,,
,,6296f6b50fbeeb28c63800df,2022-09-08_13h39.01.289,CGTgamblingSpanTasks,2022.2.1,MacIntel,60.04202942,,,,,,,,3.2434,,,,,,,,,,,,,,1,v,0.7566,0,1,4.2434,1,,,,,,18.16238569,0,1.540604093,,,,,,,,,,,,,0,57,57,34,1,0.540092491,1,,,,,,,,,,,,,,,,,,,,,,,,,,,,,,,,,,,,,,,,,,,,,,,,,,,,,,,,,,,,,,,,,,,,,,,,,,,,,,,,
,,6296f6b50fbeeb28c63800df,2022-09-08_13h39.01.289,CGTgamblingSpanTasks,2022.2.1,MacIntel,60.04202942,,,,,,,,3.2002,,,,,,,,,,,,,,2,n,0.7998,0,1,4.2002,1,,,,,,14.11762686,0,8.579385201,,,,,,,,,,,,,0,58,58,60,1,0.073886959,0,,,,,,,,,,,,,,,,,,,,,,,,,,,,,,,,,,,,,,,,,,,,,,,,,,,,,,,,,,,,,,,,,,,,,,,,,,,,,,,,
,,6296f6b50fbeeb28c63800df,2022-09-08_13h39.01.289,CGTgamblingSpanTasks,2022.2.1,MacIntel,60.04202942,,,,,,,,3.2077,,,,,,,,,,,,,,2,n,0.7923,25.54604005,1,4.2077,1,,,,,,25.54604005,0,0.088845411,,,,,,,,,,,,,0,59,59,79,1,0.901957831,0,,,,,,,,,,,,,,,,,,,,,,,,,,,,,,,,,,,,,,,,,,,,,,,,,,,,,,,,,,,,,,,,,,,,,,,,,,,,,,,,
,,6296f6b50fbeeb28c63800df,2022-09-08_13h39.01.289,CGTgamblingSpanTasks,2022.2.1,MacIntel,60.04202942,,,,,,,,3.0725,,,,,,,,,,,,,,1,v,0.9275,18.51345298,1,4.5725,1.5,,,,,,18.51345298,0,1.932334278,,,,,,,,,,,,,0,60,60,31,1,0.48658696,1,,,,,,,,,,,,,,,,,,,,,,,,,,,,,,,,,,,,,,,,,,,,,,,,,,,,,,,,,,,,,,,,,,,,,,,,,,,,,,,,
,,6296f6b50fbeeb28c63800df,2022-09-08_13h39.01.289,CGTgamblingSpanTasks,2022.2.1,MacIntel,60.04202942,,,,,,,,3.252,,,,,,,,,,,,,,1,v,0.748,27.12325385,1,4.752,1.5,,,,,,27.12325385,0,0.080932047,,,,,,,,,,,,,0,61,61,14,1,0.906929184,0,,,,,,,,,,,,,,,,,,,,,,,,,,,,,,,,,,,,,,,,,,,,,,,,,,,,,,,,,,,,,,,,,,,,,,,,,,,,,,,,
,,6296f6b50fbeeb28c63800df,2022-09-08_13h39.01.289,CGTgamblingSpanTasks,2022.2.1,MacIntel,60.04202942,,,,,,,,2.8757,,,,,,,,,,,,,,1,v,1.1243,25.0707644,1,4.3757,1.5,,,,,,25.0707644,0,0.067651625,,,,,,,,,,,,,0,62,62,70,1,0.909952349,0,,,,,,,,,,,,,,,,,,,,,,,,,,,,,,,,,,,,,,,,,,,,,,,,,,,,,,,,,,,,,,,,,,,,,,,,,,,,,,,,
,,6296f6b50fbeeb28c63800df,2022-09-08_13h39.01.289,CGTgamblingSpanTasks,2022.2.1,MacIntel,60.04202942,,,,,,,,3.3708,,,,,,,,,,,,,,1,v,0.6292,0,1,4.3708,1,,,,,,14.3363647,0,1.396635362,,,,,,,,,,,,,0,63,63,78,1,0.504775474,1,,,,,,,,,,,,,,,,,,,,,,,,,,,,,,,,,,,,,,,,,,,,,,,,,,,,,,,,,,,,,,,,,,,,,,,,,,,,,,,,
,,6296f6b50fbeeb28c63800df,2022-09-08_13h39.01.289,CGTgamblingSpanTasks,2022.2.1,MacIntel,60.04202942,,,,,,,,2.6199,,,,,,,,,,,,,,2,v,1.3801,3.877530383,0,4.1199,1.5,,,,,,3.471484939,0,3.877530383,,,,,,,,,,,,,0,64,64,40,1,0.02623078,0,,,,,,,,,,,,,,,,,,,,,,,,,,,,,,,,,,,,,,,,,,,,,,,,,,,,,,,,,,,,,,,,,,,,,,,,,,,,,,,,
,,6296f6b50fbeeb28c63800df,2022-09-08_13h39.01.289,CGTgamblingSpanTasks,2022.2.1,MacIntel,60.04202942,,,,,,,,3.2434,,,,,,,,,,,,,,1,v,0.7566,0,1,4.7434,1.5,,,,,,27.4965044,0,2.461467004,,,,,,,,,,,,,0,65,65,36,1,0.526550878,1,,,,,,,,,,,,,,,,,,,,,,,,,,,,,,,,,,,,,,,,,,,,,,,,,,,,,,,,,,,,,,,,,,,,,,,,,,,,,,,,
,,6296f6b50fbeeb28c63800df,2022-09-08_13h39.01.289,CGTgamblingSpanTasks,2022.2.1,MacIntel,60.04202942,,,,,,,,3.3398,,,,,,,,,,,,,,1,v,0.6602,0,1,4.3398,1,,,,,,27.39221343,0,2.743407746,,,,,,,,,,,,,0,66,66,47,1,0.49752044,1,,,,,,,,,,,,,,,,,,,,,,,,,,,,,,,,,,,,,,,,,,,,,,,,,,,,,,,,,,,,,,,,,,,,,,,,,,,,,,,,
,,6296f6b50fbeeb28c63800df,2022-09-08_13h39.01.289,CGTgamblingSpanTasks,2022.2.1,MacIntel,60.04202942,,,,,,,,2.9899,,,,,,,,,,,,,,2,v,1.0101,4.251676631,0,3.9899,1,,,,,,3.395192929,0,4.251676631,,,,,,,,,,,,,0,67,67,7,1,0.023467153,0,,,,,,,,,,,,,,,,,,,,,,,,,,,,,,,,,,,,,,,,,,,,,,,,,,,,,,,,,,,,,,,,,,,,,,,,,,,,,,,,
,,6296f6b50fbeeb28c63800df,2022-09-08_13h39.01.289,CGTgamblingSpanTasks,2022.2.1,MacIntel,60.04202942,,,,,,,,2.9557,,,,,,,,,,,,,,2,n,1.0443,0,1,3.9557,1,,,,,,22.86604061,0,2.293289792,,,,,,,,,,,,,0,68,68,51,1,0.49715382,1,,,,,,,,,,,,,,,,,,,,,,,,,,,,,,,,,,,,,,,,,,,,,,,,,,,,,,,,,,,,,,,,,,,,,,,,,,,,,,,,
,,6296f6b50fbeeb28c63800df,2022-09-08_13h39.01.289,CGTgamblingSpanTasks,2022.2.1,MacIntel,60.04202942,,,,,,,,3.1237,,,,,,,,,,,,,,1,v,0.8763,27.88092897,1,4.1237,1,,,,,,27.88092897,0,2.771762788,,,,,,,,,,,,,0,69,69,117,1,0.499466648,1,,,,,,,,,,,,,,,,,,,,,,,,,,,,,,,,,,,,,,,,,,,,,,,,,,,,,,,,,,,,,,,,,,,,,,,,,,,,,,,,
,,6296f6b50fbeeb28c63800df,2022-09-08_13h39.01.289,CGTgamblingSpanTasks,2022.2.1,MacIntel,60.04202942,,,,,,,,2.7714,,,,,,,,,,,,,,1,v,1.2286,0,1,3.7714,1,,,,,,8.363821911,0,6.781500919,,,,,,,,,,,,,0,70,70,61,1,0.044227959,0,,,,,,,,,,,,,,,,,,,,,,,,,,,,,,,,,,,,,,,,,,,,,,,,,,,,,,,,,,,,,,,,,,,,,,,,,,,,,,,,
,,6296f6b50fbeeb28c63800df,2022-09-08_13h39.01.289,CGTgamblingSpanTasks,2022.2.1,MacIntel,60.04202942,,,,,,,,2.8871,,,,,,,,,,,,,,2,n,1.1129,0,1,4.3871,1.5,,,,,,26.4985979,0,0.051324376,,,,,,,,,,,,,0,71,71,106,1,0.918747215,0,,,,,,,,,,,,,,,,,,,,,,,,,,,,,,,,,,,,,,,,,,,,,,,,,,,,,,,,,,,,,,,,,,,,,,,,,,,,,,,,
,,6296f6b50fbeeb28c63800df,2022-09-08_13h39.01.289,CGTgamblingSpanTasks,2022.2.1,MacIntel,60.04202942,,,,,,,,3.1565,,,,,,,,,,,,,,1,v,0.8435,0,1,4.6565,1.5,,,,,,20.5726842,0,0.073558523,,,,,,,,,,,,,0,72,72,26,1,0.901008565,0,,,,,,,,,,,,,,,,,,,,,,,,,,,,,,,,,,,,,,,,,,,,,,,,,,,,,,,,,,,,,,,,,,,,,,,,,,,,,,,,
,,6296f6b50fbeeb28c63800df,2022-09-08_13h39.01.289,CGTgamblingSpanTasks,2022.2.1,MacIntel,60.04202942,,,,,,,,3.3032,,,,,,,,,,,,,,1,v,0.6968,0,1,4.8032,1.5,,,,,,25.56803059,0,2.543951743,,,,,,,,,,,,,0,73,73,41,1,0.499247217,1,,,,,,,,,,,,,,,,,,,,,,,,,,,,,,,,,,,,,,,,,,,,,,,,,,,,,,,,,,,,,,,,,,,,,,,,,,,,,,,,
,,6296f6b50fbeeb28c63800df,2022-09-08_13h39.01.289,CGTgamblingSpanTasks,2022.2.1,MacIntel,60.04202942,,,,,,,,3.2403,,,,,,,,,,,,,,2,n,0.7597,0,1,4.2403,1,,,,,,21.00799273,0,0.067969053,,,,,,,,,,,,,0,74,74,92,1,0.904360262,0,,,,,,,,,,,,,,,,,,,,,,,,,,,,,,,,,,,,,,,,,,,,,,,,,,,,,,,,,,,,,,,,,,,,,,,,,,,,,,,,
,,6296f6b50fbeeb28c63800df,2022-09-08_13h39.01.289,CGTgamblingSpanTasks,2022.2.1,MacIntel,60.04202942,,,,,,,,2.843,,,,,,,,,,,,,,2,n,1.157,0,1,3.843,1,,,,,,19.68065872,0,1.843597162,,,,,,,,,,,,,0,75,75,80,1,0.514941058,1,,,,,,,,,,,,,,,,,,,,,,,,,,,,,,,,,,,,,,,,,,,,,,,,,,,,,,,,,,,,,,,,,,,,,,,,,,,,,,,,
,,6296f6b50fbeeb28c63800df,2022-09-08_13h39.01.289,CGTgamblingSpanTasks,2022.2.1,MacIntel,60.04202942,,,,,,,,3.0025,,,,,,,,,,,,,,2,n,0.9975,0,1,4.0025,1,,,,,,23.4214135,0,2.485985001,,,,,,,,,,,,,0,76,76,81,1,0.482105905,1,,,,,,,,,,,,,,,,,,,,,,,,,,,,,,,,,,,,,,,,,,,,,,,,,,,,,,,,,,,,,,,,,,,,,,,,,,,,,,,,
,,6296f6b50fbeeb28c63800df,2022-09-08_13h39.01.289,CGTgamblingSpanTasks,2022.2.1,MacIntel,60.04202942,,,,,,,,3.3229,,,,,,,,,,,,,,1,v,0.6771,17.30137174,1,4.3229,1,,,,,,17.30137174,0,1.716380842,,,,,,,,,,,,,0,77,77,20,1,0.500020285,1,,,,,,,,,,,,,,,,,,,,,,,,,,,,,,,,,,,,,,,,,,,,,,,,,,,,,,,,,,,,,,,,,,,,,,,,,,,,,,,,
,,6296f6b50fbeeb28c63800df,2022-09-08_13h39.01.289,CGTgamblingSpanTasks,2022.2.1,MacIntel,60.04202942,,,,,,,,3.3662,,,,,,,,,,,,,,2,n,0.6338,0,1,4.3662,1,,,,,,21.17800335,0,0.059830985,,,,,,,,,,,,,0,78,78,67,1,0.908594974,0,,,,,,,,,,,,,,,,,,,,,,,,,,,,,,,,,,,,,,,,,,,,,,,,,,,,,,,,,,,,,,,,,,,,,,,,,,,,,,,,
,,6296f6b50fbeeb28c63800df,2022-09-08_13h39.01.289,CGTgamblingSpanTasks,2022.2.1,MacIntel,60.04202942,,,,,,,,3.2849,,,,,,,,,,,,,,1,v,0.7151,11.16819157,1,4.2849,1,,,,,,11.16819157,0,0.941456753,,,,,,,,,,,,,0,79,79,45,1,0.54163803,1,,,,,,,,,,,,,,,,,,,,,,,,,,,,,,,,,,,,,,,,,,,,,,,,,,,,,,,,,,,,,,,,,,,,,,,,,,,,,,,,
,,6296f6b50fbeeb28c63800df,2022-09-08_13h39.01.289,CGTgamblingSpanTasks,2022.2.1,MacIntel,60.04202942,,,,,,,,3.0617,,,,,,,,,,,,,,1,v,0.9383,21.16780451,1,4.0617,1,,,,,,21.16780451,0,2.469465385,,,,,,,,,,,,,0,80,80,32,1,0.456531699,1,,,,,,,,,,,,,,,,,,,,,,,,,,,,,,,,,,,,,,,,,,,,,,,,,,,,,,,,,,,,,,,,,,,,,,,,,,,,,,,,
,,6296f6b50fbeeb28c63800df,2022-09-08_13h39.01.289,CGTgamblingSpanTasks,2022.2.1,MacIntel,60.04202942,,,,,,,,2.8116,,,,,,,,,,,,,,2,v,1.1884,5.683635938,0,4.3116,1.5,,,,,,4.941039335,0,5.683635938,,,,,,,,,,,,,0,81,81,9,1,0.025481984,0,,,,,,,,,,,,,,,,,,,,,,,,,,,,,,,,,,,,,,,,,,,,,,,,,,,,,,,,,,,,,,,,,,,,,,,,,,,,,,,,
,,6296f6b50fbeeb28c63800df,2022-09-08_13h39.01.289,CGTgamblingSpanTasks,2022.2.1,MacIntel,60.04202942,,,,,,,,2.9591,,,,,,,,,,,,,,2,n,1.0409,0,1,3.9591,1,,,,,,25.76582409,0,2.393193076,,,,,,,,,,,,,0,82,82,46,1,0.517129855,1,,,,,,,,,,,,,,,,,,,,,,,,,,,,,,,,,,,,,,,,,,,,,,,,,,,,,,,,,,,,,,,,,,,,,,,,,,,,,,,,
,,6296f6b50fbeeb28c63800df,2022-09-08_13h39.01.289,CGTgamblingSpanTasks,2022.2.1,MacIntel,60.04202942,,,,,,,,3.1417,,,,,,,,,,,,,,2,n,0.8583,0,1,4.1417,1,,,,,,29.76099779,0,0.095763086,,,,,,,,,,,,,0,83,83,35,1,0.904537896,0,,,,,,,,,,,,,,,,,,,,,,,,,,,,,,,,,,,,,,,,,,,,,,,,,,,,,,,,,,,,,,,,,,,,,,,,,,,,,,,,
,,6296f6b50fbeeb28c63800df,2022-09-08_13h39.01.289,CGTgamblingSpanTasks,2022.2.1,MacIntel,60.04202942,,,,,,,,3.1917,,,,,,,,,,,,,,2,n,0.8083,0,1,4.6917,1.5,,,,,,28.13634754,0,2.532806323,,,,,,,,,,,,,0,84,84,28,1,0.525136524,1,,,,,,,,,,,,,,,,,,,,,,,,,,,,,,,,,,,,,,,,,,,,,,,,,,,,,,,,,,,,,,,,,,,,,,,,,,,,,,,,
,,6296f6b50fbeeb28c63800df,2022-09-08_13h39.01.289,CGTgamblingSpanTasks,2022.2.1,MacIntel,60.04202942,,,,,,,,3.335,,,,,,,,,,,,,,2,n,0.665,0,1,4.835,1.5,,,,,,20.97851654,0,11.39288827,,,,,,,,,,,,,0,85,85,2,1,0.088791079,0,,,,,,,,,,,,,,,,,,,,,,,,,,,,,,,,,,,,,,,,,,,,,,,,,,,,,,,,,,,,,,,,,,,,,,,,,,,,,,,,
,,6296f6b50fbeeb28c63800df,2022-09-08_13h39.01.289,CGTgamblingSpanTasks,2022.2.1,MacIntel,60.04202942,,,,,,,,2.7435,,,,,,,,,,,,,,1,v,1.2565,0,1,4.2435,1.5,,,,,,11.08143071,0,1.207538756,,,,,,,,,,,,,0,86,86,84,1,0.475047453,1,,,,,,,,,,,,,,,,,,,,,,,,,,,,,,,,,,,,,,,,,,,,,,,,,,,,,,,,,,,,,,,,,,,,,,,,,,,,,,,,
,,6296f6b50fbeeb28c63800df,2022-09-08_13h39.01.289,CGTgamblingSpanTasks,2022.2.1,MacIntel,60.04202942,,,,,,,,2.8293,,,,,,,,,,,,,,2,n,1.1707,0,1,4.3293,1.5,,,,,,7.066129113,0,0.585581699,,,,,,,,,,,,,0,87,87,19,1,0.545860632,1,,,,,,,,,,,,,,,,,,,,,,,,,,,,,,,,,,,,,,,,,,,,,,,,,,,,,,,,,,,,,,,,,,,,,,,,,,,,,,,,
,,6296f6b50fbeeb28c63800df,2022-09-08_13h39.01.289,CGTgamblingSpanTasks,2022.2.1,MacIntel,60.04202942,,,,,,,,2.7032,,,,,,,,,,,,,,1,n,1.2968,10.3417501,0,3.7032,1,,,,,,15.21435748,0,10.3417501,,,,,,,,,,,,,0,88,88,72,1,0.060969226,0,,,,,,,,,,,,,,,,,,,,,,,,,,,,,,,,,,,,,,,,,,,,,,,,,,,,,,,,,,,,,,,,,,,,,,,,,,,,,,,,
,,6296f6b50fbeeb28c63800df,2022-09-08_13h39.01.289,CGTgamblingSpanTasks,2022.2.1,MacIntel,60.04202942,,,,,,,,3.1408,,,,,,,,,,,,,,1,v,0.8592,27.37527992,1,4.1408,1,,,,,,27.37527992,0,2.860319095,,,,,,,,,,,,,0,89,89,39,1,0.486304156,1,,,,,,,,,,,,,,,,,,,,,,,,,,,,,,,,,,,,,,,,,,,,,,,,,,,,,,,,,,,,,,,,,,,,,,,,,,,,,,,,
,,6296f6b50fbeeb28c63800df,2022-09-08_13h39.01.289,CGTgamblingSpanTasks,2022.2.1,MacIntel,60.04202942,,,,,,,,2.9913,,,,,,,,,,,,,,2,n,1.0087,0,1,4.4913,1.5,,,,,,24.66627941,0,2.765426402,,,,,,,,,,,,,0,90,90,24,1,0.467360588,1,,,,,,,,,,,,,,,,,,,,,,,,,,,,,,,,,,,,,,,,,,,,,,,,,,,,,,,,,,,,,,,,,,,,,,,,,,,,,,,,
,,6296f6b50fbeeb28c63800df,2022-09-08_13h39.01.289,CGTgamblingSpanTasks,2022.2.1,MacIntel,60.04202942,,,,,,,,3.0761,,,,,,,,,,,,,,1,v,0.9239,0,1,4.5761,1.5,,,,,,17.85020524,0,2.058701084,,,,,,,,,,,,,0,91,91,25,1,0.459662216,1,,,,,,,,,,,,,,,,,,,,,,,,,,,,,,,,,,,,,,,,,,,,,,,,,,,,,,,,,,,,,,,,,,,,,,,,,,,,,,,,
,,6296f6b50fbeeb28c63800df,2022-09-08_13h39.01.289,CGTgamblingSpanTasks,2022.2.1,MacIntel,60.04202942,,,,,,,,3.1915,,,,,,,,,,,,,,1,v,0.8085,0,1,4.1915,1,,,,,,21.7711579,0,2.502728921,,,,,,,,,,,,,0,92,92,101,1,0.460552621,1,,,,,,,,,,,,,,,,,,,,,,,,,,,,,,,,,,,,,,,,,,,,,,,,,,,,,,,,,,,,,,,,,,,,,,,,,,,,,,,,
,,6296f6b50fbeeb28c63800df,2022-09-08_13h39.01.289,CGTgamblingSpanTasks,2022.2.1,MacIntel,60.04202942,,,,,,,,3.0091,,,,,,,,,,,,,,1,n,0.9909,4.462262453,0,4.0091,1,,,,,,0.192759042,0,4.462262453,,,,,,,,,,,,,0,93,93,52,1,0.003553223,0,,,,,,,,,,,,,,,,,,,,,,,,,,,,,,,,,,,,,,,,,,,,,,,,,,,,,,,,,,,,,,,,,,,,,,,,,,,,,,,,
,,6296f6b50fbeeb28c63800df,2022-09-08_13h39.01.289,CGTgamblingSpanTasks,2022.2.1,MacIntel,60.04202942,,,,,,,,3.0867,,,,,,,,,,,,,,2,n,0.9133,0,1,4.5867,1.5,,,,,,13.4287264,0,1.317368801,,,,,,,,,,,,,0,94,94,100,1,0.502953125,1,,,,,,,,,,,,,,,,,,,,,,,,,,,,,,,,,,,,,,,,,,,,,,,,,,,,,,,,,,,,,,,,,,,,,,,,,,,,,,,,
,,6296f6b50fbeeb28c63800df,2022-09-08_13h39.01.289,CGTgamblingSpanTasks,2022.2.1,MacIntel,60.04202942,,,,,,,,3.1559,,,,,,,,,,,,,,2,n,0.8441,18.50662664,1,4.6559,1.5,,,,,,18.50662664,0,0.052546026,,,,,,,,,,,,,0,95,95,112,1,0.908444837,0,,,,,,,,,,,,,,,,,,,,,,,,,,,,,,,,,,,,,,,,,,,,,,,,,,,,,,,,,,,,,,,,,,,,,,,,,,,,,,,,
,,6296f6b50fbeeb28c63800df,2022-09-08_13h39.01.289,CGTgamblingSpanTasks,2022.2.1,MacIntel,60.04202942,,,,,,,,3.1198,,,,,,,,,,,,,,2,n,0.8802,0,1,4.6198,1.5,,,,,,8.670591867,0,1.025847652,,,,,,,,,,,,,0,96,96,18,1,0.452680459,1,,,,,,,,,,,,,,,,,,,,,,,,,,,,,,,,,,,,,,,,,,,,,,,,,,,,,,,,,,,,,,,,,,,,,,,,,,,,,,,,
,,6296f6b50fbeeb28c63800df,2022-09-08_13h39.01.289,CGTgamblingSpanTasks,2022.2.1,MacIntel,60.04202942,,,,,,,,2.8733,,,,,,,,,,,,,,2,n,1.1267,0,1,3.8733,1,,,,,,25.21882231,0,0.085746782,,,,,,,,,,,,,0,97,97,64,1,0.90272076,0,,,,,,,,,,,,,,,,,,,,,,,,,,,,,,,,,,,,,,,,,,,,,,,,,,,,,,,,,,,,,,,,,,,,,,,,,,,,,,,,
,,6296f6b50fbeeb28c63800df,2022-09-08_13h39.01.289,CGTgamblingSpanTasks,2022.2.1,MacIntel,60.04202942,,,,,,,,2.9381,,,,,,,,,,,,,,2,n,1.0619,0,1,4.4381,1.5,,,,,,22.72923833,0,0.067170781,,,,,,,,,,,,,0,98,98,86,1,0.907226703,0,,,,,,,,,,,,,,,,,,,,,,,,,,,,,,,,,,,,,,,,,,,,,,,,,,,,,,,,,,,,,,,,,,,,,,,,,,,,,,,,
,,6296f6b50fbeeb28c63800df,2022-09-08_13h39.01.289,CGTgamblingSpanTasks,2022.2.1,MacIntel,60.04202942,,,,,,,,3.1757,,,,,,,,,,,,,,1,v,0.8243,0,1,4.6757,1.5,,,,,,13.84410806,0,1.535873964,,,,,,,,,,,,,0,99,99,88,1,0.470209002,1,,,,,,,,,,,,,,,,,,,,,,,,,,,,,,,,,,,,,,,,,,,,,,,,,,,,,,,,,,,,,,,,,,,,,,,,,,,,,,,,
,,6296f6b50fbeeb28c63800df,2022-09-08_13h39.01.289,CGTgamblingSpanTasks,2022.2.1,MacIntel,60.04202942,,,,,,,,3.2094,,,,,,,,,,,,,,2,n,0.7906,27.2532142,1,4.2094,1,,,,,,27.2532142,0,0.08089327,,,,,,,,,,,,,0,100,100,119,1,0.907091845,0,,,,,,,,,,,,,,,,,,,,,,,,,,,,,,,,,,,,,,,,,,,,,,,,,,,,,,,,,,,,,,,,,,,,,,,,,,,,,,,,
,,6296f6b50fbeeb28c63800df,2022-09-08_13h39.01.289,CGTgamblingSpanTasks,2022.2.1,MacIntel,60.04202942,,,,,,,,3.1066,,,,,,,,,,,,,,1,v,0.8934,0,1,4.1066,1,,,,,,25.65316415,0,0.079652925,,,,,,,,,,,,,0,101,101,109,1,0.90568168,0,,,,,,,,,,,,,,,,,,,,,,,,,,,,,,,,,,,,,,,,,,,,,,,,,,,,,,,,,,,,,,,,,,,,,,,,,,,,,,,,
,,6296f6b50fbeeb28c63800df,2022-09-08_13h39.01.289,CGTgamblingSpanTasks,2022.2.1,MacIntel,60.04202942,,,,,,,,3.0043,,,,,,,,,,,,,,2,n,0.9957,26.36733703,1,4.5043,1.5,,,,,,26.36733703,0,2.201057101,,,,,,,,,,,,,0,102,102,90,1,0.544064207,1,,,,,,,,,,,,,,,,,,,,,,,,,,,,,,,,,,,,,,,,,,,,,,,,,,,,,,,,,,,,,,,,,,,,,,,,,,,,,,,,
,,6296f6b50fbeeb28c63800df,2022-09-08_13h39.01.289,CGTgamblingSpanTasks,2022.2.1,MacIntel,60.04202942,,,,,,,,3.125,,,,,,,,,,,,,,1,v,0.875,0,1,4.625,1.5,,,,,,24.8002852,0,0.071848086,,,,,,,,,,,,,0,103,103,16,1,0.90783559,0,,,,,,,,,,,,,,,,,,,,,,,,,,,,,,,,,,,,,,,,,,,,,,,,,,,,,,,,,,,,,,,,,,,,,,,,,,,,,,,,
,,6296f6b50fbeeb28c63800df,2022-09-08_13h39.01.289,CGTgamblingSpanTasks,2022.2.1,MacIntel,60.04202942,,,,,,,,2.8352,,,,,,,,,,,,,,2,n,1.1648,0,1,4.3352,1.5,,,,,,27.60724521,0,0.088432325,,,,,,,,,,,,,0,104,104,17,1,0.904684186,0,,,,,,,,,,,,,,,,,,,,,,,,,,,,,,,,,,,,,,,,,,,,,,,,,,,,,,,,,,,,,,,,,,,,,,,,,,,,,,,,
,,6296f6b50fbeeb28c63800df,2022-09-08_13h39.01.289,CGTgamblingSpanTasks,2022.2.1,MacIntel,60.04202942,,,,,,,,2.1244,,,,,,,,,,,,,,2,v,1.8756,5.526483034,0,3.6244,1.5,,,,,,9.725876653,0,5.526483034,,,,,,,,,,,,,0,105,105,44,1,0.082550696,0,,,,,,,,,,,,,,,,,,,,,,,,,,,,,,,,,,,,,,,,,,,,,,,,,,,,,,,,,,,,,,,,,,,,,,,,,,,,,,,,
,,6296f6b50fbeeb28c63800df,2022-09-08_13h39.01.289,CGTgamblingSpanTasks,2022.2.1,MacIntel,60.04202942,,,,,,,,3.2553,,,,,,,,,,,,,,2,n,0.7447,27.76752685,1,4.2553,1,,,,,,27.76752685,0,0.083968035,,,,,,,,,,,,,0,106,106,13,1,0.906513967,0,,,,,,,,,,,,,,,,,,,,,,,,,,,,,,,,,,,,,,,,,,,,,,,,,,,,,,,,,,,,,,,,,,,,,,,,,,,,,,,,
,,6296f6b50fbeeb28c63800df,2022-09-08_13h39.01.289,CGTgamblingSpanTasks,2022.2.1,MacIntel,60.04202942,,,,,,,,3.2901,,,,,,,,,,,,,,2,n,0.7099,21.46599803,1,4.7901,1.5,,,,,,21.46599803,0,0.059789256,,,,,,,,,,,,,0,107,107,8,1,0.909019081,0,,,,,,,,,,,,,,,,,,,,,,,,,,,,,,,,,,,,,,,,,,,,,,,,,,,,,,,,,,,,,,,,,,,,,,,,,,,,,,,,
,,6296f6b50fbeeb28c63800df,2022-09-08_13h39.01.289,CGTgamblingSpanTasks,2022.2.1,MacIntel,60.04202942,,,,,,,,3.2496,,,,,,,,,,,,,,2,n,0.7504,28.94627214,1,4.2496,1,,,,,,28.94627214,0,2.701896413,,,,,,,,,,,,,0,108,108,111,1,0.515860759,1,,,,,,,,,,,,,,,,,,,,,,,,,,,,,,,,,,,,,,,,,,,,,,,,,,,,,,,,,,,,,,,,,,,,,,,,,,,,,,,,
,,6296f6b50fbeeb28c63800df,2022-09-08_13h39.01.289,CGTgamblingSpanTasks,2022.2.1,MacIntel,60.04202942,,,,,,,,2.5895,,,,,,,,,,,,,,2,v,1.4105,6.833409611,0,4.0895,1.5,,,,,,6.325091157,0,6.833409611,,,,,,,,,,,,,0,109,109,58,1,0.027113638,0,,,,,,,,,,,,,,,,,,,,,,,,,,,,,,,,,,,,,,,,,,,,,,,,,,,,,,,,,,,,,,,,,,,,,,,,,,,,,,,,
,,6296f6b50fbeeb28c63800df,2022-09-08_13h39.01.289,CGTgamblingSpanTasks,2022.2.1,MacIntel,60.04202942,,,,,,,,3.3751,,,,,,,,,,,,,,2,n,0.6249,0,1,4.8751,1.5,,,,,,28.14876717,0,3.117906378,,,,,,,,,,,,,0,110,110,76,1,0.470636736,1,,,,,,,,,,,,,,,,,,,,,,,,,,,,,,,,,,,,,,,,,,,,,,,,,,,,,,,,,,,,,,,,,,,,,,,,,,,,,,,,
,,6296f6b50fbeeb28c63800df,2022-09-08_13h39.01.289,CGTgamblingSpanTasks,2022.2.1,MacIntel,60.04202942,,,,,,,,3.0555,,,,,,,,,,,,,,2,n,0.9445,0,1,4.5555,1.5,,,,,,23.24777057,0,2.003482335,,,,,,,,,,,,,0,111,111,59,1,0.536135174,1,,,,,,,,,,,,,,,,,,,,,,,,,,,,,,,,,,,,,,,,,,,,,,,,,,,,,,,,,,,,,,,,,,,,,,,,,,,,,,,,
,,6296f6b50fbeeb28c63800df,2022-09-08_13h39.01.289,CGTgamblingSpanTasks,2022.2.1,MacIntel,60.04202942,,,,,,,,2.9058,,,,,,,,,,,,,,1,n,1.0942,11.93550497,0,4.4058,1.5,,,,,,14.20587264,0,11.93550497,,,,,,,,,,,,,0,112,112,21,1,0.041340301,0,,,,,,,,,,,,,,,,,,,,,,,,,,,,,,,,,,,,,,,,,,,,,,,,,,,,,,,,,,,,,,,,,,,,,,,,,,,,,,,,
,,6296f6b50fbeeb28c63800df,2022-09-08_13h39.01.289,CGTgamblingSpanTasks,2022.2.1,MacIntel,60.04202942,,,,,,,,3.0619,,,,,,,,,,,,,,1,n,0.9381,7.50753835,0,4.5619,1.5,,,,,,2.231316635,0,7.50753835,,,,,,,,,,,,,0,113,113,29,1,0.010273427,0,,,,,,,,,,,,,,,,,,,,,,,,,,,,,,,,,,,,,,,,,,,,,,,,,,,,,,,,,,,,,,,,,,,,,,,,,,,,,,,,
,,6296f6b50fbeeb28c63800df,2022-09-08_13h39.01.289,CGTgamblingSpanTasks,2022.2.1,MacIntel,60.04202942,,,,,,,,3.2697,,,,,,,,,,,,,,2,n,0.7303,0,1,4.2697,1,,,,,,26.11188619,0,0.081942421,,,,,,,,,,,,,0,114,114,105,1,0.905343856,0,,,,,,,,,,,,,,,,,,,,,,,,,,,,,,,,,,,,,,,,,,,,,,,,,,,,,,,,,,,,,,,,,,,,,,,,,,,,,,,,
,,6296f6b50fbeeb28c63800df,2022-09-08_13h39.01.289,CGTgamblingSpanTasks,2022.2.1,MacIntel,60.04202942,,,,,,,,3.0382,,,,,,,,,,,,,,2,n,0.9618,15.43649625,1,4.0382,1,,,,,,15.43649625,0,1.65459324,,,,,,,,,,,,,0,115,115,33,1,0.479480163,1,,,,,,,,,,,,,,,,,,,,,,,,,,,,,,,,,,,,,,,,,,,,,,,,,,,,,,,,,,,,,,,,,,,,,,,,,,,,,,,,
,,6296f6b50fbeeb28c63800df,2022-09-08_13h39.01.289,CGTgamblingSpanTasks,2022.2.1,MacIntel,60.04202942,,,,,,,,3.0757,,,,,,,,,,,,,,1,n,0.9243,11.61882862,0,4.5757,1.5,,,,,,4.022743614,0,11.61882862,,,,,,,,,,,,,0,116,116,38,1,0.011499376,0,,,,,,,,,,,,,,,,,,,,,,,,,,,,,,,,,,,,,,,,,,,,,,,,,,,,,,,,,,,,,,,,,,,,,,,,,,,,,,,,
,,6296f6b50fbeeb28c63800df,2022-09-08_13h39.01.289,CGTgamblingSpanTasks,2022.2.1,MacIntel,60.04202942,,,,,,,,3.2419,,,,,,,,,,,,,,2,n,0.7581,0,1,4.7419,1.5,,,,,,26.16821818,0,0.093528069,,,,,,,,,,,,,0,117,117,42,1,0.901022427,0,,,,,,,,,,,,,,,,,,,,,,,,,,,,,,,,,,,,,,,,,,,,,,,,,,,,,,,,,,,,,,,,,,,,,,,,,,,,,,,,
,,6296f6b50fbeeb28c63800df,2022-09-08_13h39.01.289,CGTgamblingSpanTasks,2022.2.1,MacIntel,60.04202942,,,,,,,,3.3363,,,,,,,,,,,,,,2,n,0.6637,0,1,4.3363,1,,,,,,27.57491653,0,2.99133314,,,,,,,,,,,,,0,118,118,10,1,0.47625893,1,,,,,,,,,,,,,,,,,,,,,,,,,,,,,,,,,,,,,,,,,,,,,,,,,,,,,,,,,,,,,,,,,,,,,,,,,,,,,,,,
,,6296f6b50fbeeb28c63800df,2022-09-08_13h39.01.289,CGTgamblingSpanTasks,2022.2.1,MacIntel,60.04202942,,,,,,,,3.1025,,,,,,,,,,,,,,1,v,0.8975,17.4320197,1,4.6025,1.5,,,,,,17.4320197,0,1.448620949,,,,,,,,,,,,,0,119,119,30,1,0.545178213,1,,,,,,,,,,,,,,,,,,,,,,,,,,,,,,,,,,,,,,,,,,,,,,,,,,,,,,,,,,,,,,,,,,,,,,,,,,,,,,,,
,,6296f6b50fbeeb28c63800df,2022-09-08_13h39.01.289,CGTgamblingSpanTasks,2022.2.1,MacIntel,60.04202942,,,,,,,,,,,,,,,,,,,,,,,,,,,,,,,,,,,,,,,,,,,,,,,,,,,,,,,,return,269.9146,,,,,,,,,,,,,,,,,,,,,,,,,,,,,,,,,,,,,,,,,,,,,,,,,,,,,,,,,,,,,,,,,,,,,,,,,,,,,,
,,6296f6b50fbeeb28c63800df,2022-09-08_13h39.01.289,CGTgamblingSpanTasks,2022.2.1,MacIntel,60.04202942,,,,,,,,,,,,,,,,,,,,,,,,,,,,,,,,,,,,,,,,,,,,,,,,,,,,,,,,,,return,8.1252,,,,,,,,,,,,,,,,,,,,,,,,,,,,,,,,,,,,,,,,,,,,,,,,,,,,,,,,,,,,,,,,,,,,,,,,,,,,
,,6296f6b50fbeeb28c63800df,2022-09-08_13h39.01.289,CGTgamblingSpanTasks,2022.2.1,MacIntel,60.04202942,,,,,,,,,,,,,,,,,,,,,,,,,,,,,,,,,,,,,,,,,,,,,,,,,,,,,,,,,,,,return,13.2751,,,,,,,,,,,,,,,,,,,,,,,,,,,,,,,,,,,,,,,,,,,,,,,,,,,,,,,,,,,,,,,,,,,,,,,,,,
,,6296f6b50fbeeb28c63800df,2022-09-08_13h39.01.289,CGTgamblingSpanTasks,2022.2.1,MacIntel,60.04202942,,,,,,,,,,,,,,,,,,,,,,,,,,,,,,,,,,,,,,,,,,,,,,,,,,,,,,,,,,,,,,342,1,0.006557617,-0.386970011,1,0,0,cont_buttonPractice,0,0,0,0,1,3,342,24,2,42,,,,,,,,,,,,,,,,,,,,,,,,,,,,,,,,,,,,,,,,,,,,,,,,,,,,,,,,
,,6296f6b50fbeeb28c63800df,2022-09-08_13h39.01.289,CGTgamblingSpanTasks,2022.2.1,MacIntel,60.04202942,,,,,,,,,,,,,,,,,,,,,,,,,,,,,,,,,,,,,,,,,,,,,,,,,,,,,,,,,,,,,,937,1,-0.037975803,-0.386828206,1,0,0,cont_buttonPractice,0,1,1,1,1,3,937,73,2,37,,,,,,,,,,,,,,,,,,,,,,,,,,,,,,,,,,,,,,,,,,,,,,,,,,,,,,,,
,,6296f6b50fbeeb28c63800df,2022-09-08_13h39.01.289,CGTgamblingSpanTasks,2022.2.1,MacIntel,60.04202942,,,,,,,,,,,,,,,,,,,,,,,,,,,,,,,,,,,,,,,,,,,,,,,,,,,,,,,,,,,,,,,,,,,,,,,,,,,,,,,,return,4.1054,,,,,,,,,,,,,,,,,,,,,,,,,,,,,,,,,,,,,,,,,,,,,,,,,,,,,,
,,6296f6b50fbeeb28c63800df,2022-09-08_13h39.01.289,CGTgamblingSpanTasks,2022.2.1,MacIntel,60.04202942,,,,,,,,,,,,,,,,,,,,,,,,,,,,,,,,,,,,,,,,,,,,,,,,,,,,,,,,,,,,,,,,,,,,,,,,,,,,,,,,,,"[5,7,8]",0,0,0,0,1,,,,,,,,,,,,,,,,,,,,,,,,,,,,,,,,,,,,,,,,,,,,,,,,
,,6296f6b50fbeeb28c63800df,2022-09-08_13h39.01.289,CGTgamblingSpanTasks,2022.2.1,MacIntel,60.04202942,,,,,,,,,,,,,,,,,,,,,,,,,,,,,,,,,,,,,,,,,,,,,,,,,,,,,,,,,,,,,,,,,,,,,,,,,,,,,,,,,,"[5,7,8]",1,0,1,0,1,,,,,,,,,,,,,,,,,,,,,,,,,,,,,,,,,,,,,,,,,,,,,,,,
,,6296f6b50fbeeb28c63800df,2022-09-08_13h39.01.289,CGTgamblingSpanTasks,2022.2.1,MacIntel,60.04202942,,,,,,,,,,,,,,,,,,,,,,,,,,,,,,,,,,,,,,,,,,,,,,,,,,,,,,,,,,,,,,,,,,,,,,,,,,,,,,,,,,"[5,7,8]",2,0,2,0,1,,,,,,,,,,,,,,,,,,,,,,,,,,,,,,,,,,,,,,,,,,,,,,,,
,,6296f6b50fbeeb28c63800df,2022-09-08_13h39.01.289,CGTgamblingSpanTasks,2022.2.1,MacIntel,60.04202942,,,,,,,,,,,,,,,,,,,,,,,,,,,,,,,,,,,,,,,,,,,,,,,,,,,,,,,,,,,,,,,1,,,,,,,,,,,,,,,,,,,,,,,,,578,-0.021470744,-0.391931966,1,0,0,cont_button,0,0,0,0,1,1,,,,,,,,,,,,,,,,,,,,,,,,,,,,,,,,,,,
,,6296f6b50fbeeb28c63800df,2022-09-08_13h39.01.289,CGTgamblingSpanTasks,2022.2.1,MacIntel,60.04202942,,,,,,,,,,,,,,,,,,,,,,,,,,,,,,,,,,,,,,,,,,,,,,,,,,,,,,,,,,,,,,,,,,,,,,,,,,,,,,,,,,"[9,1,5,2]",0,0,0,0,1,,,,,,,,,,,,,,,,,,,,,,,,,,,,,,,,,,,,,,,,,,,,,,,,
,,6296f6b50fbeeb28c63800df,2022-09-08_13h39.01.289,CGTgamblingSpanTasks,2022.2.1,MacIntel,60.04202942,,,,,,,,,,,,,,,,,,,,,,,,,,,,,,,,,,,,,,,,,,,,,,,,,,,,,,,,,,,,,,,,,,,,,,,,,,,,,,,,,,"[9,1,5,2]",1,0,1,0,1,,,,,,,,,,,,,,,,,,,,,,,,,,,,,,,,,,,,,,,,,,,,,,,,
,,6296f6b50fbeeb28c63800df,2022-09-08_13h39.01.289,CGTgamblingSpanTasks,2022.2.1,MacIntel,60.04202942,,,,,,,,,,,,,,,,,,,,,,,,,,,,,,,,,,,,,,,,,,,,,,,,,,,,,,,,,,,,,,,,,,,,,,,,,,,,,,,,,,"[9,1,5,2]",2,0,2,0,1,,,,,,,,,,,,,,,,,,,,,,,,,,,,,,,,,,,,,,,,,,,,,,,,
,,6296f6b50fbeeb28c63800df,2022-09-08_13h39.01.289,CGTgamblingSpanTasks,2022.2.1,MacIntel,60.04202942,,,,,,,,,,,,,,,,,,,,,,,,,,,,,,,,,,,,,,,,,,,,,,,,,,,,,,,,,,,,,,,,,,,,,,,,,,,,,,,,,,"[9,1,5,2]",3,0,3,0,1,,,,,,,,,,,,,,,,,,,,,,,,,,,,,,,,,,,,,,,,,,,,,,,,
,,6296f6b50fbeeb28c63800df,2022-09-08_13h39.01.289,CGTgamblingSpanTasks,2022.2.1,MacIntel,60.04202942,,,,,,,,,,,,,,,,,,,,,,,,,,,,,,,,,,,,,,,,,,,,,,,,,,,,,,,,,,,,,,,1,,,,,,,,,,,,,,,,,,,,,,,,,9152,-0.021470744,-0.391931966,1,0,0,cont_button,0,1,1,1,1,2,,,,,,,,,,,,,,,,,,,,,,,,,,,,,,,,,,,
,,6296f6b50fbeeb28c63800df,2022-09-08_13h39.01.289,CGTgamblingSpanTasks,2022.2.1,MacIntel,60.04202942,,,,,,,,,,,,,,,,,,,,,,,,,,,,,,,,,,,,,,,,,,,,,,,,,,,,,,,,,,,,,,,,,,,,,,,,,,,,,,,,,,"[4,5,3,2,9]",0,0,0,0,1,,,,,,,,,,,,,,,,,,,,,,,,,,,,,,,,,,,,,,,,,,,,,,,,
,,6296f6b50fbeeb28c63800df,2022-09-08_13h39.01.289,CGTgamblingSpanTasks,2022.2.1,MacIntel,60.04202942,,,,,,,,,,,,,,,,,,,,,,,,,,,,,,,,,,,,,,,,,,,,,,,,,,,,,,,,,,,,,,,,,,,,,,,,,,,,,,,,,,"[4,5,3,2,9]",1,0,1,0,1,,,,,,,,,,,,,,,,,,,,,,,,,,,,,,,,,,,,,,,,,,,,,,,,
,,6296f6b50fbeeb28c63800df,2022-09-08_13h39.01.289,CGTgamblingSpanTasks,2022.2.1,MacIntel,60.04202942,,,,,,,,,,,,,,,,,,,,,,,,,,,,,,,,,,,,,,,,,,,,,,,,,,,,,,,,,,,,,,,,,,,,,,,,,,,,,,,,,,"[4,5,3,2,9]",2,0,2,0,1,,,,,,,,,,,,,,,,,,,,,,,,,,,,,,,,,,,,,,,,,,,,,,,,
,,6296f6b50fbeeb28c63800df,2022-09-08_13h39.01.289,CGTgamblingSpanTasks,2022.2.1,MacIntel,60.04202942,,,,,,,,,,,,,,,,,,,,,,,,,,,,,,,,,,,,,,,,,,,,,,,,,,,,,,,,,,,,,,,,,,,,,,,,,,,,,,,,,,"[4,5,3,2,9]",3,0,3,0,1,,,,,,,,,,,,,,,,,,,,,,,,,,,,,,,,,,,,,,,,,,,,,,,,
,,6296f6b50fbeeb28c63800df,2022-09-08_13h39.01.289,CGTgamblingSpanTasks,2022.2.1,MacIntel,60.04202942,,,,,,,,,,,,,,,,,,,,,,,,,,,,,,,,,,,,,,,,,,,,,,,,,,,,,,,,,,,,,,,,,,,,,,,,,,,,,,,,,,"[4,5,3,2,9]",4,0,4,0,1,,,,,,,,,,,,,,,,,,,,,,,,,,,,,,,,,,,,,,,,,,,,,,,,
,,6296f6b50fbeeb28c63800df,2022-09-08_13h39.01.289,CGTgamblingSpanTasks,2022.2.1,MacIntel,60.04202942,,,,,,,,,,,,,,,,,,,,,,,,,,,,,,,,,,,,,,,,,,,,,,,,,,,,,,,,,,,,,,,1,,,,,,,,,,,,,,,,,,,,,,,,,45329,-0.021470744,-0.391931966,1,0,0,cont_button,0,2,2,2,1,3,,,,,,,,,,,,,,,,,,,,,,,,,,,,,,,,,,,
,,6296f6b50fbeeb28c63800df,2022-09-08_13h39.01.289,CGTgamblingSpanTasks,2022.2.1,MacIntel,60.04202942,,,,,,,,,,,,,,,,,,,,,,,,,,,,,,,,,,,,,,,,,,,,,,,,,,,,,,,,,,,,,,,,,,,,,,,,,,,,,,,,,,"[5,6,4,9,3,1]",0,0,0,0,1,,,,,,,,,,,,,,,,,,,,,,,,,,,,,,,,,,,,,,,,,,,,,,,,
,,6296f6b50fbeeb28c63800df,2022-09-08_13h39.01.289,CGTgamblingSpanTasks,2022.2.1,MacIntel,60.04202942,,,,,,,,,,,,,,,,,,,,,,,,,,,,,,,,,,,,,,,,,,,,,,,,,,,,,,,,,,,,,,,,,,,,,,,,,,,,,,,,,,"[5,6,4,9,3,1]",1,0,1,0,1,,,,,,,,,,,,,,,,,,,,,,,,,,,,,,,,,,,,,,,,,,,,,,,,
,,6296f6b50fbeeb28c63800df,2022-09-08_13h39.01.289,CGTgamblingSpanTasks,2022.2.1,MacIntel,60.04202942,,,,,,,,,,,,,,,,,,,,,,,,,,,,,,,,,,,,,,,,,,,,,,,,,,,,,,,,,,,,,,,,,,,,,,,,,,,,,,,,,,"[5,6,4,9,3,1]",2,0,2,0,1,,,,,,,,,,,,,,,,,,,,,,,,,,,,,,,,,,,,,,,,,,,,,,,,
,,6296f6b50fbeeb28c63800df,2022-09-08_13h39.01.289,CGTgamblingSpanTasks,2022.2.1,MacIntel,60.04202942,,,,,,,,,,,,,,,,,,,,,,,,,,,,,,,,,,,,,,,,,,,,,,,,,,,,,,,,,,,,,,,,,,,,,,,,,,,,,,,,,,"[5,6,4,9,3,1]",3,0,3,0,1,,,,,,,,,,,,,,,,,,,,,,,,,,,,,,,,,,,,,,,,,,,,,,,,
,,6296f6b50fbeeb28c63800df,2022-09-08_13h39.01.289,CGTgamblingSpanTasks,2022.2.1,MacIntel,60.04202942,,,,,,,,,,,,,,,,,,,,,,,,,,,,,,,,,,,,,,,,,,,,,,,,,,,,,,,,,,,,,,,,,,,,,,,,,,,,,,,,,,"[5,6,4,9,3,1]",4,0,4,0,1,,,,,,,,,,,,,,,,,,,,,,,,,,,,,,,,,,,,,,,,,,,,,,,,
,,6296f6b50fbeeb28c63800df,2022-09-08_13h39.01.289,CGTgamblingSpanTasks,2022.2.1,MacIntel,60.04202942,,,,,,,,,,,,,,,,,,,,,,,,,,,,,,,,,,,,,,,,,,,,,,,,,,,,,,,,,,,,,,,,,,,,,,,,,,,,,,,,,,"[5,6,4,9,3,1]",5,0,5,0,1,,,,,,,,,,,,,,,,,,,,,,,,,,,,,,,,,,,,,,,,,,,,,,,,
,,6296f6b50fbeeb28c63800df,2022-09-08_13h39.01.289,CGTgamblingSpanTasks,2022.2.1,MacIntel,60.04202942,,,,,,,,,,,,,,,,,,,,,,,,,,,,,,,,,,,,,,,,,,,,,,,,,,,,,,,,,,,,,,,1,,,,,,,,,,,,,,,,,,,,,,,,,564931,-0.021470744,-0.391931966,1,0,0,cont_button,0,3,3,3,1,4,,,,,,,,,,,,,,,,,,,,,,,,,,,,,,,,,,,
,,6296f6b50fbeeb28c63800df,2022-09-08_13h39.01.289,CGTgamblingSpanTasks,2022.2.1,MacIntel,60.04202942,,,,,,,,,,,,,,,,,,,,,,,,,,,,,,,,,,,,,,,,,,,,,,,,,,,,,,,,,,,,,,,,,,,,,,,,,,,,,,,,,,"[6,3,5,7,1,2,8]",0,0,0,0,1,,,,,,,,,,,,,,,,,,,,,,,,,,,,,,,,,,,,,,,,,,,,,,,,
,,6296f6b50fbeeb28c63800df,2022-09-08_13h39.01.289,CGTgamblingSpanTasks,2022.2.1,MacIntel,60.04202942,,,,,,,,,,,,,,,,,,,,,,,,,,,,,,,,,,,,,,,,,,,,,,,,,,,,,,,,,,,,,,,,,,,,,,,,,,,,,,,,,,"[6,3,5,7,1,2,8]",1,0,1,0,1,,,,,,,,,,,,,,,,,,,,,,,,,,,,,,,,,,,,,,,,,,,,,,,,
,,6296f6b50fbeeb28c63800df,2022-09-08_13h39.01.289,CGTgamblingSpanTasks,2022.2.1,MacIntel,60.04202942,,,,,,,,,,,,,,,,,,,,,,,,,,,,,,,,,,,,,,,,,,,,,,,,,,,,,,,,,,,,,,,,,,,,,,,,,,,,,,,,,,"[6,3,5,7,1,2,8]",2,0,2,0,1,,,,,,,,,,,,,,,,,,,,,,,,,,,,,,,,,,,,,,,,,,,,,,,,
,,6296f6b50fbeeb28c63800df,2022-09-08_13h39.01.289,CGTgamblingSpanTasks,2022.2.1,MacIntel,60.04202942,,,,,,,,,,,,,,,,,,,,,,,,,,,,,,,,,,,,,,,,,,,,,,,,,,,,,,,,,,,,,,,,,,,,,,,,,,,,,,,,,,"[6,3,5,7,1,2,8]",3,0,3,0,1,,,,,,,,,,,,,,,,,,,,,,,,,,,,,,,,,,,,,,,,,,,,,,,,
,,6296f6b50fbeeb28c63800df,2022-09-08_13h39.01.289,CGTgamblingSpanTasks,2022.2.1,MacIntel,60.04202942,,,,,,,,,,,,,,,,,,,,,,,,,,,,,,,,,,,,,,,,,,,,,,,,,,,,,,,,,,,,,,,,,,,,,,,,,,,,,,,,,,"[6,3,5,7,1,2,8]",4,0,4,0,1,,,,,,,,,,,,,,,,,,,,,,,,,,,,,,,,,,,,,,,,,,,,,,,,
,,6296f6b50fbeeb28c63800df,2022-09-08_13h39.01.289,CGTgamblingSpanTasks,2022.2.1,MacIntel,60.04202942,,,,,,,,,,,,,,,,,,,,,,,,,,,,,,,,,,,,,,,,,,,,,,,,,,,,,,,,,,,,,,,,,,,,,,,,,,,,,,,,,,"[6,3,5,7,1,2,8]",5,0,5,0,1,,,,,,,,,,,,,,,,,,,,,,,,,,,,,,,,,,,,,,,,,,,,,,,,
,,6296f6b50fbeeb28c63800df,2022-09-08_13h39.01.289,CGTgamblingSpanTasks,2022.2.1,MacIntel,60.04202942,,,,,,,,,,,,,,,,,,,,,,,,,,,,,,,,,,,,,,,,,,,,,,,,,,,,,,,,,,,,,,,,,,,,,,,,,,,,,,,,,,"[6,3,5,7,1,2,8]",6,0,6,0,1,,,,,,,,,,,,,,,,,,,,,,,,,,,,,,,,,,,,,,,,,,,,,,,,
,,6296f6b50fbeeb28c63800df,2022-09-08_13h39.01.289,CGTgamblingSpanTasks,2022.2.1,MacIntel,60.04202942,,,,,,,,,,,,,,,,,,,,,,,,,,,,,,,,,,,,,,,,,,,,,,,,,,,,,,,,,,,,,,,1,,,,,,,,,,,,,,,,,,,,,,,,,6357128,-0.021470744,-0.391931966,1,0,0,cont_button,0,4,4,4,1,5,,,,,,,,,,,,,,,,,,,,,,,,,,,,,,,,,,,
,,6296f6b50fbeeb28c63800df,2022-09-08_13h39.01.289,CGTgamblingSpanTasks,2022.2.1,MacIntel,60.04202942,,,,,,,,,,,,,,,,,,,,,,,,,,,,,,,,,,,,,,,,,,,,,,,,,,,,,,,,,,,,,,,,,,,,,,,,,,,,,,,,,,"[5,7,9,3,4,8,6,1]",0,0,0,0,1,,,,,,,,,,,,,,,,,,,,,,,,,,,,,,,,,,,,,,,,,,,,,,,,
,,6296f6b50fbeeb28c63800df,2022-09-08_13h39.01.289,CGTgamblingSpanTasks,2022.2.1,MacIntel,60.04202942,,,,,,,,,,,,,,,,,,,,,,,,,,,,,,,,,,,,,,,,,,,,,,,,,,,,,,,,,,,,,,,,,,,,,,,,,,,,,,,,,,"[5,7,9,3,4,8,6,1]",1,0,1,0,1,,,,,,,,,,,,,,,,,,,,,,,,,,,,,,,,,,,,,,,,,,,,,,,,
,,6296f6b50fbeeb28c63800df,2022-09-08_13h39.01.289,CGTgamblingSpanTasks,2022.2.1,MacIntel,60.04202942,,,,,,,,,,,,,,,,,,,,,,,,,,,,,,,,,,,,,,,,,,,,,,,,,,,,,,,,,,,,,,,,,,,,,,,,,,,,,,,,,,"[5,7,9,3,4,8,6,1]",2,0,2,0,1,,,,,,,,,,,,,,,,,,,,,,,,,,,,,,,,,,,,,,,,,,,,,,,,
,,6296f6b50fbeeb28c63800df,2022-09-08_13h39.01.289,CGTgamblingSpanTasks,2022.2.1,MacIntel,60.04202942,,,,,,,,,,,,,,,,,,,,,,,,,,,,,,,,,,,,,,,,,,,,,,,,,,,,,,,,,,,,,,,,,,,,,,,,,,,,,,,,,,"[5,7,9,3,4,8,6,1]",3,0,3,0,1,,,,,,,,,,,,,,,,,,,,,,,,,,,,,,,,,,,,,,,,,,,,,,,,
,,6296f6b50fbeeb28c63800df,2022-09-08_13h39.01.289,CGTgamblingSpanTasks,2022.2.1,MacIntel,60.04202942,,,,,,,,,,,,,,,,,,,,,,,,,,,,,,,,,,,,,,,,,,,,,,,,,,,,,,,,,,,,,,,,,,,,,,,,,,,,,,,,,,"[5,7,9,3,4,8,6,1]",4,0,4,0,1,,,,,,,,,,,,,,,,,,,,,,,,,,,,,,,,,,,,,,,,,,,,,,,,
,,6296f6b50fbeeb28c63800df,2022-09-08_13h39.01.289,CGTgamblingSpanTasks,2022.2.1,MacIntel,60.04202942,,,,,,,,,,,,,,,,,,,,,,,,,,,,,,,,,,,,,,,,,,,,,,,,,,,,,,,,,,,,,,,,,,,,,,,,,,,,,,,,,,"[5,7,9,3,4,8,6,1]",5,0,5,0,1,,,,,,,,,,,,,,,,,,,,,,,,,,,,,,,,,,,,,,,,,,,,,,,,
,,6296f6b50fbeeb28c63800df,2022-09-08_13h39.01.289,CGTgamblingSpanTasks,2022.2.1,MacIntel,60.04202942,,,,,,,,,,,,,,,,,,,,,,,,,,,,,,,,,,,,,,,,,,,,,,,,,,,,,,,,,,,,,,,,,,,,,,,,,,,,,,,,,,"[5,7,9,3,4,8,6,1]",6,0,6,0,1,,,,,,,,,,,,,,,,,,,,,,,,,,,,,,,,,,,,,,,,,,,,,,,,
,,6296f6b50fbeeb28c63800df,2022-09-08_13h39.01.289,CGTgamblingSpanTasks,2022.2.1,MacIntel,60.04202942,,,,,,,,,,,,,,,,,,,,,,,,,,,,,,,,,,,,,,,,,,,,,,,,,,,,,,,,,,,,,,,,,,,,,,,,,,,,,,,,,,"[5,7,9,3,4,8,6,1]",7,0,7,0,1,,,,,,,,,,,,,,,,,,,,,,,,,,,,,,,,,,,,,,,,,,,,,,,,
,,6296f6b50fbeeb28c63800df,2022-09-08_13h39.01.289,CGTgamblingSpanTasks,2022.2.1,MacIntel,60.04202942,,,,,,,,,,,,,,,,,,,,,,,,,,,,,,,,,,,,,,,,,,,,,,,,,,,,,,,,,,,,,,,1,,,,,,,,,,,,,,,,,,,,,,,,,57934861,-0.021470744,-0.391931966,1,0,0,cont_button,0,5,5,5,1,6,,,,,,,,,,,,,,,,,,,,,,,,,,,,,,,,,,,
,,6296f6b50fbeeb28c63800df,2022-09-08_13h39.01.289,CGTgamblingSpanTasks,2022.2.1,MacIntel,60.04202942,,,,,,,,,,,,,,,,,,,,,,,,,,,,,,,,,,,,,,,,,,,,,,,,,,,,,,,,,,,,,,,,,,,,,,,,,,,,,,,,,,"[9,3,8,6,1,7,2,5,4]",0,0,0,0,1,,,,,,,,,,,,,,,,,,,,,,,,,,,,,,,,,,,,,,,,,,,,,,,,
,,6296f6b50fbeeb28c63800df,2022-09-08_13h39.01.289,CGTgamblingSpanTasks,2022.2.1,MacIntel,60.04202942,,,,,,,,,,,,,,,,,,,,,,,,,,,,,,,,,,,,,,,,,,,,,,,,,,,,,,,,,,,,,,,,,,,,,,,,,,,,,,,,,,"[9,3,8,6,1,7,2,5,4]",1,0,1,0,1,,,,,,,,,,,,,,,,,,,,,,,,,,,,,,,,,,,,,,,,,,,,,,,,
,,6296f6b50fbeeb28c63800df,2022-09-08_13h39.01.289,CGTgamblingSpanTasks,2022.2.1,MacIntel,60.04202942,,,,,,,,,,,,,,,,,,,,,,,,,,,,,,,,,,,,,,,,,,,,,,,,,,,,,,,,,,,,,,,,,,,,,,,,,,,,,,,,,,"[9,3,8,6,1,7,2,5,4]",2,0,2,0,1,,,,,,,,,,,,,,,,,,,,,,,,,,,,,,,,,,,,,,,,,,,,,,,,
,,6296f6b50fbeeb28c63800df,2022-09-08_13h39.01.289,CGTgamblingSpanTasks,2022.2.1,MacIntel,60.04202942,,,,,,,,,,,,,,,,,,,,,,,,,,,,,,,,,,,,,,,,,,,,,,,,,,,,,,,,,,,,,,,,,,,,,,,,,,,,,,,,,,"[9,3,8,6,1,7,2,5,4]",3,0,3,0,1,,,,,,,,,,,,,,,,,,,,,,,,,,,,,,,,,,,,,,,,,,,,,,,,
,,6296f6b50fbeeb28c63800df,2022-09-08_13h39.01.289,CGTgamblingSpanTasks,2022.2.1,MacIntel,60.04202942,,,,,,,,,,,,,,,,,,,,,,,,,,,,,,,,,,,,,,,,,,,,,,,,,,,,,,,,,,,,,,,,,,,,,,,,,,,,,,,,,,"[9,3,8,6,1,7,2,5,4]",4,0,4,0,1,,,,,,,,,,,,,,,,,,,,,,,,,,,,,,,,,,,,,,,,,,,,,,,,
,,6296f6b50fbeeb28c63800df,2022-09-08_13h39.01.289,CGTgamblingSpanTasks,2022.2.1,MacIntel,60.04202942,,,,,,,,,,,,,,,,,,,,,,,,,,,,,,,,,,,,,,,,,,,,,,,,,,,,,,,,,,,,,,,,,,,,,,,,,,,,,,,,,,"[9,3,8,6,1,7,2,5,4]",5,0,5,0,1,,,,,,,,,,,,,,,,,,,,,,,,,,,,,,,,,,,,,,,,,,,,,,,,
,,6296f6b50fbeeb28c63800df,2022-09-08_13h39.01.289,CGTgamblingSpanTasks,2022.2.1,MacIntel,60.04202942,,,,,,,,,,,,,,,,,,,,,,,,,,,,,,,,,,,,,,,,,,,,,,,,,,,,,,,,,,,,,,,,,,,,,,,,,,,,,,,,,,"[9,3,8,6,1,7,2,5,4]",6,0,6,0,1,,,,,,,,,,,,,,,,,,,,,,,,,,,,,,,,,,,,,,,,,,,,,,,,
,,6296f6b50fbeeb28c63800df,2022-09-08_13h39.01.289,CGTgamblingSpanTasks,2022.2.1,MacIntel,60.04202942,,,,,,,,,,,,,,,,,,,,,,,,,,,,,,,,,,,,,,,,,,,,,,,,,,,,,,,,,,,,,,,,,,,,,,,,,,,,,,,,,,"[9,3,8,6,1,7,2,5,4]",7,0,7,0,1,,,,,,,,,,,,,,,,,,,,,,,,,,,,,,,,,,,,,,,,,,,,,,,,
,,6296f6b50fbeeb28c63800df,2022-09-08_13h39.01.289,CGTgamblingSpanTasks,2022.2.1,MacIntel,60.04202942,,,,,,,,,,,,,,,,,,,,,,,,,,,,,,,,,,,,,,,,,,,,,,,,,,,,,,,,,,,,,,,,,,,,,,,,,,,,,,,,,,"[9,3,8,6,1,7,2,5,4]",8,0,8,0,1,,,,,,,,,,,,,,,,,,,,,,,,,,,,,,,,,,,,,,,,,,,,,,,,
,,6296f6b50fbeeb28c63800df,2022-09-08_13h39.01.289,CGTgamblingSpanTasks,2022.2.1,MacIntel,60.04202942,,,,,,,,,,,,,,,,,,,,,,,,,,,,,,,,,,,,,,,,,,,,,,,,,,,,,,,,,,,,,,,1,,,,,,,,,,,,,,,,,,,,,,,,,938617254,-0.021470744,-0.391931966,1,0,0,cont_button,0,6,6,6,1,7,,,,,,,,,,,,,,,,,,,,,,,,,,,,,,,,,,,
,,6296f6b50fbeeb28c63800df,2022-09-08_13h39.01.289,CGTgamblingSpanTasks,2022.2.1,MacIntel,60.04202942,,,,,,,,,,,,,,,,,,,,,,,,,,,,,,,,,,,,,,,,,,,,,,,,,,,,,,,,,,,,,,,,,,,,,,,,,,,,,,,,,,"[8,2,9,7,1,5,6,4,3,3]",0,0,0,0,1,,,,,,,,,,,,,,,,,,,,,,,,,,,,,,,,,,,,,,,,,,,,,,,,
,,6296f6b50fbeeb28c63800df,2022-09-08_13h39.01.289,CGTgamblingSpanTasks,2022.2.1,MacIntel,60.04202942,,,,,,,,,,,,,,,,,,,,,,,,,,,,,,,,,,,,,,,,,,,,,,,,,,,,,,,,,,,,,,,,,,,,,,,,,,,,,,,,,,"[8,2,9,7,1,5,6,4,3,3]",1,0,1,0,1,,,,,,,,,,,,,,,,,,,,,,,,,,,,,,,,,,,,,,,,,,,,,,,,
,,6296f6b50fbeeb28c63800df,2022-09-08_13h39.01.289,CGTgamblingSpanTasks,2022.2.1,MacIntel,60.04202942,,,,,,,,,,,,,,,,,,,,,,,,,,,,,,,,,,,,,,,,,,,,,,,,,,,,,,,,,,,,,,,,,,,,,,,,,,,,,,,,,,"[8,2,9,7,1,5,6,4,3,3]",2,0,2,0,1,,,,,,,,,,,,,,,,,,,,,,,,,,,,,,,,,,,,,,,,,,,,,,,,
,,6296f6b50fbeeb28c63800df,2022-09-08_13h39.01.289,CGTgamblingSpanTasks,2022.2.1,MacIntel,60.04202942,,,,,,,,,,,,,,,,,,,,,,,,,,,,,,,,,,,,,,,,,,,,,,,,,,,,,,,,,,,,,,,,,,,,,,,,,,,,,,,,,,"[8,2,9,7,1,5,6,4,3,3]",3,0,3,0,1,,,,,,,,,,,,,,,,,,,,,,,,,,,,,,,,,,,,,,,,,,,,,,,,
,,6296f6b50fbeeb28c63800df,2022-09-08_13h39.01.289,CGTgamblingSpanTasks,2022.2.1,MacIntel,60.04202942,,,,,,,,,,,,,,,,,,,,,,,,,,,,,,,,,,,,,,,,,,,,,,,,,,,,,,,,,,,,,,,,,,,,,,,,,,,,,,,,,,"[8,2,9,7,1,5,6,4,3,3]",4,0,4,0,1,,,,,,,,,,,,,,,,,,,,,,,,,,,,,,,,,,,,,,,,,,,,,,,,
,,6296f6b50fbeeb28c63800df,2022-09-08_13h39.01.289,CGTgamblingSpanTasks,2022.2.1,MacIntel,60.04202942,,,,,,,,,,,,,,,,,,,,,,,,,,,,,,,,,,,,,,,,,,,,,,,,,,,,,,,,,,,,,,,,,,,,,,,,,,,,,,,,,,"[8,2,9,7,1,5,6,4,3,3]",5,0,5,0,1,,,,,,,,,,,,,,,,,,,,,,,,,,,,,,,,,,,,,,,,,,,,,,,,
,,6296f6b50fbeeb28c63800df,2022-09-08_13h39.01.289,CGTgamblingSpanTasks,2022.2.1,MacIntel,60.04202942,,,,,,,,,,,,,,,,,,,,,,,,,,,,,,,,,,,,,,,,,,,,,,,,,,,,,,,,,,,,,,,,,,,,,,,,,,,,,,,,,,"[8,2,9,7,1,5,6,4,3,3]",6,0,6,0,1,,,,,,,,,,,,,,,,,,,,,,,,,,,,,,,,,,,,,,,,,,,,,,,,
,,6296f6b50fbeeb28c63800df,2022-09-08_13h39.01.289,CGTgamblingSpanTasks,2022.2.1,MacIntel,60.04202942,,,,,,,,,,,,,,,,,,,,,,,,,,,,,,,,,,,,,,,,,,,,,,,,,,,,,,,,,,,,,,,,,,,,,,,,,,,,,,,,,,"[8,2,9,7,1,5,6,4,3,3]",7,0,7,0,1,,,,,,,,,,,,,,,,,,,,,,,,,,,,,,,,,,,,,,,,,,,,,,,,
,,6296f6b50fbeeb28c63800df,2022-09-08_13h39.01.289,CGTgamblingSpanTasks,2022.2.1,MacIntel,60.04202942,,,,,,,,,,,,,,,,,,,,,,,,,,,,,,,,,,,,,,,,,,,,,,,,,,,,,,,,,,,,,,,,,,,,,,,,,,,,,,,,,,"[8,2,9,7,1,5,6,4,3,3]",8,0,8,0,1,,,,,,,,,,,,,,,,,,,,,,,,,,,,,,,,,,,,,,,,,,,,,,,,
,,6296f6b50fbeeb28c63800df,2022-09-08_13h39.01.289,CGTgamblingSpanTasks,2022.2.1,MacIntel,60.04202942,,,,,,,,,,,,,,,,,,,,,,,,,,,,,,,,,,,,,,,,,,,,,,,,,,,,,,,,,,,,,,,,,,,,,,,,,,,,,,,,,,"[8,2,9,7,1,5,6,4,3,3]",9,0,9,0,1,,,,,,,,,,,,,,,,,,,,,,,,,,,,,,,,,,,,,,,,,,,,,,,,
,,6296f6b50fbeeb28c63800df,2022-09-08_13h39.01.289,CGTgamblingSpanTasks,2022.2.1,MacIntel,60.04202942,,,,,,,,,,,,,,,,,,,,,,,,,,,,,,,,,,,,,,,,,,,,,,,,,,,,,,,,,,,,,,,1,,,,,,,,,,,,,,,,,,,,,,,,,8297156433,-0.021470744,-0.391931966,1,0,0,cont_button,0,7,7,7,1,8,,,,,,,,,,,,,,,,,,,,,,,,,,,,,,,,,,,
,,6296f6b50fbeeb28c63800df,2022-09-08_13h39.01.289,CGTgamblingSpanTasks,2022.2.1,MacIntel,60.04202942,,,,,,,,,,,,,,,,,,,,,,,,,,,,,,,,,,,,,,,,,,,,,,,,,,,,,,,,,,,,,,,,,,,,,,,,,,,,,,,,,,"[2,9,6,7,4,1,8,5,3,3,5]",0,0,0,0,1,,,,,,,,,,,,,,,,,,,,,,,,,,,,,,,,,,,,,,,,,,,,,,,,
,,6296f6b50fbeeb28c63800df,2022-09-08_13h39.01.289,CGTgamblingSpanTasks,2022.2.1,MacIntel,60.04202942,,,,,,,,,,,,,,,,,,,,,,,,,,,,,,,,,,,,,,,,,,,,,,,,,,,,,,,,,,,,,,,,,,,,,,,,,,,,,,,,,,"[2,9,6,7,4,1,8,5,3,3,5]",1,0,1,0,1,,,,,,,,,,,,,,,,,,,,,,,,,,,,,,,,,,,,,,,,,,,,,,,,
,,6296f6b50fbeeb28c63800df,2022-09-08_13h39.01.289,CGTgamblingSpanTasks,2022.2.1,MacIntel,60.04202942,,,,,,,,,,,,,,,,,,,,,,,,,,,,,,,,,,,,,,,,,,,,,,,,,,,,,,,,,,,,,,,,,,,,,,,,,,,,,,,,,,"[2,9,6,7,4,1,8,5,3,3,5]",2,0,2,0,1,,,,,,,,,,,,,,,,,,,,,,,,,,,,,,,,,,,,,,,,,,,,,,,,
,,6296f6b50fbeeb28c63800df,2022-09-08_13h39.01.289,CGTgamblingSpanTasks,2022.2.1,MacIntel,60.04202942,,,,,,,,,,,,,,,,,,,,,,,,,,,,,,,,,,,,,,,,,,,,,,,,,,,,,,,,,,,,,,,,,,,,,,,,,,,,,,,,,,"[2,9,6,7,4,1,8,5,3,3,5]",3,0,3,0,1,,,,,,,,,,,,,,,,,,,,,,,,,,,,,,,,,,,,,,,,,,,,,,,,
,,6296f6b50fbeeb28c63800df,2022-09-08_13h39.01.289,CGTgamblingSpanTasks,2022.2.1,MacIntel,60.04202942,,,,,,,,,,,,,,,,,,,,,,,,,,,,,,,,,,,,,,,,,,,,,,,,,,,,,,,,,,,,,,,,,,,,,,,,,,,,,,,,,,"[2,9,6,7,4,1,8,5,3,3,5]",4,0,4,0,1,,,,,,,,,,,,,,,,,,,,,,,,,,,,,,,,,,,,,,,,,,,,,,,,
,,6296f6b50fbeeb28c63800df,2022-09-08_13h39.01.289,CGTgamblingSpanTasks,2022.2.1,MacIntel,60.04202942,,,,,,,,,,,,,,,,,,,,,,,,,,,,,,,,,,,,,,,,,,,,,,,,,,,,,,,,,,,,,,,,,,,,,,,,,,,,,,,,,,"[2,9,6,7,4,1,8,5,3,3,5]",5,0,5,0,1,,,,,,,,,,,,,,,,,,,,,,,,,,,,,,,,,,,,,,,,,,,,,,,,
,,6296f6b50fbeeb28c63800df,2022-09-08_13h39.01.289,CGTgamblingSpanTasks,2022.2.1,MacIntel,60.04202942,,,,,,,,,,,,,,,,,,,,,,,,,,,,,,,,,,,,,,,,,,,,,,,,,,,,,,,,,,,,,,,,,,,,,,,,,,,,,,,,,,"[2,9,6,7,4,1,8,5,3,3,5]",6,0,6,0,1,,,,,,,,,,,,,,,,,,,,,,,,,,,,,,,,,,,,,,,,,,,,,,,,
,,6296f6b50fbeeb28c63800df,2022-09-08_13h39.01.289,CGTgamblingSpanTasks,2022.2.1,MacIntel,60.04202942,,,,,,,,,,,,,,,,,,,,,,,,,,,,,,,,,,,,,,,,,,,,,,,,,,,,,,,,,,,,,,,,,,,,,,,,,,,,,,,,,,"[2,9,6,7,4,1,8,5,3,3,5]",7,0,7,0,1,,,,,,,,,,,,,,,,,,,,,,,,,,,,,,,,,,,,,,,,,,,,,,,,
,,6296f6b50fbeeb28c63800df,2022-09-08_13h39.01.289,CGTgamblingSpanTasks,2022.2.1,MacIntel,60.04202942,,,,,,,,,,,,,,,,,,,,,,,,,,,,,,,,,,,,,,,,,,,,,,,,,,,,,,,,,,,,,,,,,,,,,,,,,,,,,,,,,,"[2,9,6,7,4,1,8,5,3,3,5]",8,0,8,0,1,,,,,,,,,,,,,,,,,,,,,,,,,,,,,,,,,,,,,,,,,,,,,,,,
,,6296f6b50fbeeb28c63800df,2022-09-08_13h39.01.289,CGTgamblingSpanTasks,2022.2.1,MacIntel,60.04202942,,,,,,,,,,,,,,,,,,,,,,,,,,,,,,,,,,,,,,,,,,,,,,,,,,,,,,,,,,,,,,,,,,,,,,,,,,,,,,,,,,"[2,9,6,7,4,1,8,5,3,3,5]",9,0,9,0,1,,,,,,,,,,,,,,,,,,,,,,,,,,,,,,,,,,,,,,,,,,,,,,,,
,,6296f6b50fbeeb28c63800df,2022-09-08_13h39.01.289,CGTgamblingSpanTasks,2022.2.1,MacIntel,60.04202942,,,,,,,,,,,,,,,,,,,,,,,,,,,,,,,,,,,,,,,,,,,,,,,,,,,,,,,,,,,,,,,,,,,,,,,,,,,,,,,,,,"[2,9,6,7,4,1,8,5,3,3,5]",10,0,10,0,1,,,,,,,,,,,,,,,,,,,,,,,,,,,,,,,,,,,,,,,,,,,,,,,,
,,6296f6b50fbeeb28c63800df,2022-09-08_13h39.01.289,CGTgamblingSpanTasks,2022.2.1,MacIntel,60.04202942,,,,,,,,,,,,,,,,,,,,,,,,,,,,,,,,,,,,,,,,,,,,,,,,,,,,,,,,,,,,,,,0,,,,,,,,,,,,,,,,,,,,,,,,,29876541237,-0.021470744,-0.394773085,1,0,0,cont_button,0,8,8,8,1,9,,,,,,,,,,,,,,,,,,,,,,,,,,,,,,,,,,,
,,6296f6b50fbeeb28c63800df,2022-09-08_13h39.01.289,CGTgamblingSpanTasks,2022.2.1,MacIntel,60.04202942,,,,,,,,,,,,,,,,,,,,,,,,,,,,,,,,,,,,,,,,,,,,,,,,,,,,,,,,,,,,,,,,,,,,,,,,,,,,,,,,,,"[8,1,4,2,6,5,7,3,9,9,1]",0,0,0,0,1,,,,,,,,,,,,,,,,,,,,,,,,,,,,,,,,,,,,,,,,,,,,,,,,
,,6296f6b50fbeeb28c63800df,2022-09-08_13h39.01.289,CGTgamblingSpanTasks,2022.2.1,MacIntel,60.04202942,,,,,,,,,,,,,,,,,,,,,,,,,,,,,,,,,,,,,,,,,,,,,,,,,,,,,,,,,,,,,,,,,,,,,,,,,,,,,,,,,,"[8,1,4,2,6,5,7,3,9,9,1]",1,0,1,0,1,,,,,,,,,,,,,,,,,,,,,,,,,,,,,,,,,,,,,,,,,,,,,,,,
,,6296f6b50fbeeb28c63800df,2022-09-08_13h39.01.289,CGTgamblingSpanTasks,2022.2.1,MacIntel,60.04202942,,,,,,,,,,,,,,,,,,,,,,,,,,,,,,,,,,,,,,,,,,,,,,,,,,,,,,,,,,,,,,,,,,,,,,,,,,,,,,,,,,"[8,1,4,2,6,5,7,3,9,9,1]",2,0,2,0,1,,,,,,,,,,,,,,,,,,,,,,,,,,,,,,,,,,,,,,,,,,,,,,,,
,,6296f6b50fbeeb28c63800df,2022-09-08_13h39.01.289,CGTgamblingSpanTasks,2022.2.1,MacIntel,60.04202942,,,,,,,,,,,,,,,,,,,,,,,,,,,,,,,,,,,,,,,,,,,,,,,,,,,,,,,,,,,,,,,,,,,,,,,,,,,,,,,,,,"[8,1,4,2,6,5,7,3,9,9,1]",3,0,3,0,1,,,,,,,,,,,,,,,,,,,,,,,,,,,,,,,,,,,,,,,,,,,,,,,,
,,6296f6b50fbeeb28c63800df,2022-09-08_13h39.01.289,CGTgamblingSpanTasks,2022.2.1,MacIntel,60.04202942,,,,,,,,,,,,,,,,,,,,,,,,,,,,,,,,,,,,,,,,,,,,,,,,,,,,,,,,,,,,,,,,,,,,,,,,,,,,,,,,,,"[8,1,4,2,6,5,7,3,9,9,1]",4,0,4,0,1,,,,,,,,,,,,,,,,,,,,,,,,,,,,,,,,,,,,,,,,,,,,,,,,
,,6296f6b50fbeeb28c63800df,2022-09-08_13h39.01.289,CGTgamblingSpanTasks,2022.2.1,MacIntel,60.04202942,,,,,,,,,,,,,,,,,,,,,,,,,,,,,,,,,,,,,,,,,,,,,,,,,,,,,,,,,,,,,,,,,,,,,,,,,,,,,,,,,,"[8,1,4,2,6,5,7,3,9,9,1]",5,0,5,0,1,,,,,,,,,,,,,,,,,,,,,,,,,,,,,,,,,,,,,,,,,,,,,,,,
,,6296f6b50fbeeb28c63800df,2022-09-08_13h39.01.289,CGTgamblingSpanTasks,2022.2.1,MacIntel,60.04202942,,,,,,,,,,,,,,,,,,,,,,,,,,,,,,,,,,,,,,,,,,,,,,,,,,,,,,,,,,,,,,,,,,,,,,,,,,,,,,,,,,"[8,1,4,2,6,5,7,3,9,9,1]",6,0,6,0,1,,,,,,,,,,,,,,,,,,,,,,,,,,,,,,,,,,,,,,,,,,,,,,,,
,,6296f6b50fbeeb28c63800df,2022-09-08_13h39.01.289,CGTgamblingSpanTasks,2022.2.1,MacIntel,60.04202942,,,,,,,,,,,,,,,,,,,,,,,,,,,,,,,,,,,,,,,,,,,,,,,,,,,,,,,,,,,,,,,,,,,,,,,,,,,,,,,,,,"[8,1,4,2,6,5,7,3,9,9,1]",7,0,7,0,1,,,,,,,,,,,,,,,,,,,,,,,,,,,,,,,,,,,,,,,,,,,,,,,,
,,6296f6b50fbeeb28c63800df,2022-09-08_13h39.01.289,CGTgamblingSpanTasks,2022.2.1,MacIntel,60.04202942,,,,,,,,,,,,,,,,,,,,,,,,,,,,,,,,,,,,,,,,,,,,,,,,,,,,,,,,,,,,,,,,,,,,,,,,,,,,,,,,,,"[8,1,4,2,6,5,7,3,9,9,1]",8,0,8,0,1,,,,,,,,,,,,,,,,,,,,,,,,,,,,,,,,,,,,,,,,,,,,,,,,
,,6296f6b50fbeeb28c63800df,2022-09-08_13h39.01.289,CGTgamblingSpanTasks,2022.2.1,MacIntel,60.04202942,,,,,,,,,,,,,,,,,,,,,,,,,,,,,,,,,,,,,,,,,,,,,,,,,,,,,,,,,,,,,,,,,,,,,,,,,,,,,,,,,,"[8,1,4,2,6,5,7,3,9,9,1]",9,0,9,0,1,,,,,,,,,,,,,,,,,,,,,,,,,,,,,,,,,,,,,,,,,,,,,,,,
,,6296f6b50fbeeb28c63800df,2022-09-08_13h39.01.289,CGTgamblingSpanTasks,2022.2.1,MacIntel,60.04202942,,,,,,,,,,,,,,,,,,,,,,,,,,,,,,,,,,,,,,,,,,,,,,,,,,,,,,,,,,,,,,,,,,,,,,,,,,,,,,,,,,"[8,1,4,2,6,5,7,3,9,9,1]",10,0,10,0,1,,,,,,,,,,,,,,,,,,,,,,,,,,,,,,,,,,,,,,,,,,,,,,,,
,,6296f6b50fbeeb28c63800df,2022-09-08_13h39.01.289,CGTgamblingSpanTasks,2022.2.1,MacIntel,60.04202942,,,,,,,,,,,,,,,,,,,,,,,,,,,,,,,,,,,,,,,,,,,,,,,,,,,,,,,,,,,,,,,0,,,,,,,,,,,,,,,,,,,,,,,,,8142657399,0.060604926,-0.376837226,1,0,0,cont_button,0,9,9,9,1,10,,,,,,,,,,,,,,,,,,,,,,,,,,,,,,,,,,,
,,6296f6b50fbeeb28c63800df,2022-09-08_13h39.01.289,CGTgamblingSpanTasks,2022.2.1,MacIntel,60.04202942,,,,,,,,,,,,,,,,,,,,,,,,,,,,,,,,,,,,,,,,,,,,,,,,,,,,,,,,,,,,,,,,,,,,,,,,,,,,,,,,,,"[2,1,3,7,9,5,6,4,8,8]",0,0,0,0,1,,,,,,,,,,,,,,,,,,,,,,,,,,,,,,,,,,,,,,,,,,,,,,,,
,,6296f6b50fbeeb28c63800df,2022-09-08_13h39.01.289,CGTgamblingSpanTasks,2022.2.1,MacIntel,60.04202942,,,,,,,,,,,,,,,,,,,,,,,,,,,,,,,,,,,,,,,,,,,,,,,,,,,,,,,,,,,,,,,,,,,,,,,,,,,,,,,,,,"[2,1,3,7,9,5,6,4,8,8]",1,0,1,0,1,,,,,,,,,,,,,,,,,,,,,,,,,,,,,,,,,,,,,,,,,,,,,,,,
,,6296f6b50fbeeb28c63800df,2022-09-08_13h39.01.289,CGTgamblingSpanTasks,2022.2.1,MacIntel,60.04202942,,,,,,,,,,,,,,,,,,,,,,,,,,,,,,,,,,,,,,,,,,,,,,,,,,,,,,,,,,,,,,,,,,,,,,,,,,,,,,,,,,"[2,1,3,7,9,5,6,4,8,8]",2,0,2,0,1,,,,,,,,,,,,,,,,,,,,,,,,,,,,,,,,,,,,,,,,,,,,,,,,
,,6296f6b50fbeeb28c63800df,2022-09-08_13h39.01.289,CGTgamblingSpanTasks,2022.2.1,MacIntel,60.04202942,,,,,,,,,,,,,,,,,,,,,,,,,,,,,,,,,,,,,,,,,,,,,,,,,,,,,,,,,,,,,,,,,,,,,,,,,,,,,,,,,,"[2,1,3,7,9,5,6,4,8,8]",3,0,3,0,1,,,,,,,,,,,,,,,,,,,,,,,,,,,,,,,,,,,,,,,,,,,,,,,,
,,6296f6b50fbeeb28c63800df,2022-09-08_13h39.01.289,CGTgamblingSpanTasks,2022.2.1,MacIntel,60.04202942,,,,,,,,,,,,,,,,,,,,,,,,,,,,,,,,,,,,,,,,,,,,,,,,,,,,,,,,,,,,,,,,,,,,,,,,,,,,,,,,,,"[2,1,3,7,9,5,6,4,8,8]",4,0,4,0,1,,,,,,,,,,,,,,,,,,,,,,,,,,,,,,,,,,,,,,,,,,,,,,,,
,,6296f6b50fbeeb28c63800df,2022-09-08_13h39.01.289,CGTgamblingSpanTasks,2022.2.1,MacIntel,60.04202942,,,,,,,,,,,,,,,,,,,,,,,,,,,,,,,,,,,,,,,,,,,,,,,,,,,,,,,,,,,,,,,,,,,,,,,,,,,,,,,,,,"[2,1,3,7,9,5,6,4,8,8]",5,0,5,0,1,,,,,,,,,,,,,,,,,,,,,,,,,,,,,,,,,,,,,,,,,,,,,,,,
,,6296f6b50fbeeb28c63800df,2022-09-08_13h39.01.289,CGTgamblingSpanTasks,2022.2.1,MacIntel,60.04202942,,,,,,,,,,,,,,,,,,,,,,,,,,,,,,,,,,,,,,,,,,,,,,,,,,,,,,,,,,,,,,,,,,,,,,,,,,,,,,,,,,"[2,1,3,7,9,5,6,4,8,8]",6,0,6,0,1,,,,,,,,,,,,,,,,,,,,,,,,,,,,,,,,,,,,,,,,,,,,,,,,
,,6296f6b50fbeeb28c63800df,2022-09-08_13h39.01.289,CGTgamblingSpanTasks,2022.2.1,MacIntel,60.04202942,,,,,,,,,,,,,,,,,,,,,,,,,,,,,,,,,,,,,,,,,,,,,,,,,,,,,,,,,,,,,,,,,,,,,,,,,,,,,,,,,,"[2,1,3,7,9,5,6,4,8,8]",7,0,7,0,1,,,,,,,,,,,,,,,,,,,,,,,,,,,,,,,,,,,,,,,,,,,,,,,,
,,6296f6b50fbeeb28c63800df,2022-09-08_13h39.01.289,CGTgamblingSpanTasks,2022.2.1,MacIntel,60.04202942,,,,,,,,,,,,,,,,,,,,,,,,,,,,,,,,,,,,,,,,,,,,,,,,,,,,,,,,,,,,,,,,,,,,,,,,,,,,,,,,,,"[2,1,3,7,9,5,6,4,8,8]",8,0,8,0,1,,,,,,,,,,,,,,,,,,,,,,,,,,,,,,,,,,,,,,,,,,,,,,,,
,,6296f6b50fbeeb28c63800df,2022-09-08_13h39.01.289,CGTgamblingSpanTasks,2022.2.1,MacIntel,60.04202942,,,,,,,,,,,,,,,,,,,,,,,,,,,,,,,,,,,,,,,,,,,,,,,,,,,,,,,,,,,,,,,,,,,,,,,,,,,,,,,,,,"[2,1,3,7,9,5,6,4,8,8]",9,0,9,0,1,,,,,,,,,,,,,,,,,,,,,,,,,,,,,,,,,,,,,,,,,,,,,,,,
,,6296f6b50fbeeb28c63800df,2022-09-08_13h39.01.289,CGTgamblingSpanTasks,2022.2.1,MacIntel,60.04202942,,,,,,,,,,,,,,,,,,,,,,,,,,,,,,,,,,,,,,,,,,,,,,,,,,,,,,,,,,,,,,,1,,,,,,,,,,,,,,,,,,,,,,,,,2137956488,0.020767008,-0.400416802,1,0,0,cont_button,0,10,10,10,1,11,,,,,,,,,,,,,,,,,,,,,,,,,,,,,,,,,,,
,,6296f6b50fbeeb28c63800df,2022-09-08_13h39.01.289,CGTgamblingSpanTasks,2022.2.1,MacIntel,60.04202942,,,,,,,,,,,,,,,,,,,,,,,,,,,,,,,,,,,,,,,,,,,,,,,,,,,,,,,,,,,,,,,,,,,,,,,,,,,,,,,,,,"[5,9,2,3,1,6,8,4,7,7,2]",0,0,0,0,1,,,,,,,,,,,,,,,,,,,,,,,,,,,,,,,,,,,,,,,,,,,,,,,,
,,6296f6b50fbeeb28c63800df,2022-09-08_13h39.01.289,CGTgamblingSpanTasks,2022.2.1,MacIntel,60.04202942,,,,,,,,,,,,,,,,,,,,,,,,,,,,,,,,,,,,,,,,,,,,,,,,,,,,,,,,,,,,,,,,,,,,,,,,,,,,,,,,,,"[5,9,2,3,1,6,8,4,7,7,2]",1,0,1,0,1,,,,,,,,,,,,,,,,,,,,,,,,,,,,,,,,,,,,,,,,,,,,,,,,
,,6296f6b50fbeeb28c63800df,2022-09-08_13h39.01.289,CGTgamblingSpanTasks,2022.2.1,MacIntel,60.04202942,,,,,,,,,,,,,,,,,,,,,,,,,,,,,,,,,,,,,,,,,,,,,,,,,,,,,,,,,,,,,,,,,,,,,,,,,,,,,,,,,,"[5,9,2,3,1,6,8,4,7,7,2]",2,0,2,0,1,,,,,,,,,,,,,,,,,,,,,,,,,,,,,,,,,,,,,,,,,,,,,,,,
,,6296f6b50fbeeb28c63800df,2022-09-08_13h39.01.289,CGTgamblingSpanTasks,2022.2.1,MacIntel,60.04202942,,,,,,,,,,,,,,,,,,,,,,,,,,,,,,,,,,,,,,,,,,,,,,,,,,,,,,,,,,,,,,,,,,,,,,,,,,,,,,,,,,"[5,9,2,3,1,6,8,4,7,7,2]",3,0,3,0,1,,,,,,,,,,,,,,,,,,,,,,,,,,,,,,,,,,,,,,,,,,,,,,,,
,,6296f6b50fbeeb28c63800df,2022-09-08_13h39.01.289,CGTgamblingSpanTasks,2022.2.1,MacIntel,60.04202942,,,,,,,,,,,,,,,,,,,,,,,,,,,,,,,,,,,,,,,,,,,,,,,,,,,,,,,,,,,,,,,,,,,,,,,,,,,,,,,,,,"[5,9,2,3,1,6,8,4,7,7,2]",4,0,4,0,1,,,,,,,,,,,,,,,,,,,,,,,,,,,,,,,,,,,,,,,,,,,,,,,,
,,6296f6b50fbeeb28c63800df,2022-09-08_13h39.01.289,CGTgamblingSpanTasks,2022.2.1,MacIntel,60.04202942,,,,,,,,,,,,,,,,,,,,,,,,,,,,,,,,,,,,,,,,,,,,,,,,,,,,,,,,,,,,,,,,,,,,,,,,,,,,,,,,,,"[5,9,2,3,1,6,8,4,7,7,2]",5,0,5,0,1,,,,,,,,,,,,,,,,,,,,,,,,,,,,,,,,,,,,,,,,,,,,,,,,
,,6296f6b50fbeeb28c63800df,2022-09-08_13h39.01.289,CGTgamblingSpanTasks,2022.2.1,MacIntel,60.04202942,,,,,,,,,,,,,,,,,,,,,,,,,,,,,,,,,,,,,,,,,,,,,,,,,,,,,,,,,,,,,,,,,,,,,,,,,,,,,,,,,,"[5,9,2,3,1,6,8,4,7,7,2]",6,0,6,0,1,,,,,,,,,,,,,,,,,,,,,,,,,,,,,,,,,,,,,,,,,,,,,,,,
,,6296f6b50fbeeb28c63800df,2022-09-08_13h39.01.289,CGTgamblingSpanTasks,2022.2.1,MacIntel,60.04202942,,,,,,,,,,,,,,,,,,,,,,,,,,,,,,,,,,,,,,,,,,,,,,,,,,,,,,,,,,,,,,,,,,,,,,,,,,,,,,,,,,"[5,9,2,3,1,6,8,4,7,7,2]",7,0,7,0,1,,,,,,,,,,,,,,,,,,,,,,,,,,,,,,,,,,,,,,,,,,,,,,,,
,,6296f6b50fbeeb28c63800df,2022-09-08_13h39.01.289,CGTgamblingSpanTasks,2022.2.1,MacIntel,60.04202942,,,,,,,,,,,,,,,,,,,,,,,,,,,,,,,,,,,,,,,,,,,,,,,,,,,,,,,,,,,,,,,,,,,,,,,,,,,,,,,,,,"[5,9,2,3,1,6,8,4,7,7,2]",8,0,8,0,1,,,,,,,,,,,,,,,,,,,,,,,,,,,,,,,,,,,,,,,,,,,,,,,,
,,6296f6b50fbeeb28c63800df,2022-09-08_13h39.01.289,CGTgamblingSpanTasks,2022.2.1,MacIntel,60.04202942,,,,,,,,,,,,,,,,,,,,,,,,,,,,,,,,,,,,,,,,,,,,,,,,,,,,,,,,,,,,,,,,,,,,,,,,,,,,,,,,,,"[5,9,2,3,1,6,8,4,7,7,2]",9,0,9,0,1,,,,,,,,,,,,,,,,,,,,,,,,,,,,,,,,,,,,,,,,,,,,,,,,
,,6296f6b50fbeeb28c63800df,2022-09-08_13h39.01.289,CGTgamblingSpanTasks,2022.2.1,MacIntel,60.04202942,,,,,,,,,,,,,,,,,,,,,,,,,,,,,,,,,,,,,,,,,,,,,,,,,,,,,,,,,,,,,,,,,,,,,,,,,,,,,,,,,,"[5,9,2,3,1,6,8,4,7,7,2]",10,0,10,0,1,,,,,,,,,,,,,,,,,,,,,,,,,,,,,,,,,,,,,,,,,,,,,,,,
,,6296f6b50fbeeb28c63800df,2022-09-08_13h39.01.289,CGTgamblingSpanTasks,2022.2.1,MacIntel,60.04202942,,,,,,,,,,,,,,,,,,,,,,,,,,,,,,,,,,,,,,,,,,,,,,,,,,,,,,,,,,,,,,,0,,,,,,,,,,,,,,,,,,,,,,,,,52931564779,0.01410163,-0.421981201,1,0,0,cont_button,0,11,11,11,1,12,,,,,,,,,,,,,,,,,,,,,,,,,,,,,,,,,,,
,,6296f6b50fbeeb28c63800df,2022-09-08_13h39.01.289,CGTgamblingSpanTasks,2022.2.1,MacIntel,60.04202942,,,,,,,,,,,,,,,,,,,,,,,,,,,,,,,,,,,,,,,,,,,,,,,,,,,,,,,,,,,,,,,,,,,,,,,,,,,,,,,,,,"[1,7,3,6,8,5,4,2,9,9,6]",0,0,0,0,1,,,,,,,,,,,,,,,,,,,,,,,,,,,,,,,,,,,,,,,,,,,,,,,,
,,6296f6b50fbeeb28c63800df,2022-09-08_13h39.01.289,CGTgamblingSpanTasks,2022.2.1,MacIntel,60.04202942,,,,,,,,,,,,,,,,,,,,,,,,,,,,,,,,,,,,,,,,,,,,,,,,,,,,,,,,,,,,,,,,,,,,,,,,,,,,,,,,,,"[1,7,3,6,8,5,4,2,9,9,6]",1,0,1,0,1,,,,,,,,,,,,,,,,,,,,,,,,,,,,,,,,,,,,,,,,,,,,,,,,
,,6296f6b50fbeeb28c63800df,2022-09-08_13h39.01.289,CGTgamblingSpanTasks,2022.2.1,MacIntel,60.04202942,,,,,,,,,,,,,,,,,,,,,,,,,,,,,,,,,,,,,,,,,,,,,,,,,,,,,,,,,,,,,,,,,,,,,,,,,,,,,,,,,,"[1,7,3,6,8,5,4,2,9,9,6]",2,0,2,0,1,,,,,,,,,,,,,,,,,,,,,,,,,,,,,,,,,,,,,,,,,,,,,,,,
,,6296f6b50fbeeb28c63800df,2022-09-08_13h39.01.289,CGTgamblingSpanTasks,2022.2.1,MacIntel,60.04202942,,,,,,,,,,,,,,,,,,,,,,,,,,,,,,,,,,,,,,,,,,,,,,,,,,,,,,,,,,,,,,,,,,,,,,,,,,,,,,,,,,"[1,7,3,6,8,5,4,2,9,9,6]",3,0,3,0,1,,,,,,,,,,,,,,,,,,,,,,,,,,,,,,,,,,,,,,,,,,,,,,,,
,,6296f6b50fbeeb28c63800df,2022-09-08_13h39.01.289,CGTgamblingSpanTasks,2022.2.1,MacIntel,60.04202942,,,,,,,,,,,,,,,,,,,,,,,,,,,,,,,,,,,,,,,,,,,,,,,,,,,,,,,,,,,,,,,,,,,,,,,,,,,,,,,,,,"[1,7,3,6,8,5,4,2,9,9,6]",4,0,4,0,1,,,,,,,,,,,,,,,,,,,,,,,,,,,,,,,,,,,,,,,,,,,,,,,,
,,6296f6b50fbeeb28c63800df,2022-09-08_13h39.01.289,CGTgamblingSpanTasks,2022.2.1,MacIntel,60.04202942,,,,,,,,,,,,,,,,,,,,,,,,,,,,,,,,,,,,,,,,,,,,,,,,,,,,,,,,,,,,,,,,,,,,,,,,,,,,,,,,,,"[1,7,3,6,8,5,4,2,9,9,6]",5,0,5,0,1,,,,,,,,,,,,,,,,,,,,,,,,,,,,,,,,,,,,,,,,,,,,,,,,
,,6296f6b50fbeeb28c63800df,2022-09-08_13h39.01.289,CGTgamblingSpanTasks,2022.2.1,MacIntel,60.04202942,,,,,,,,,,,,,,,,,,,,,,,,,,,,,,,,,,,,,,,,,,,,,,,,,,,,,,,,,,,,,,,,,,,,,,,,,,,,,,,,,,"[1,7,3,6,8,5,4,2,9,9,6]",6,0,6,0,1,,,,,,,,,,,,,,,,,,,,,,,,,,,,,,,,,,,,,,,,,,,,,,,,
,,6296f6b50fbeeb28c63800df,2022-09-08_13h39.01.289,CGTgamblingSpanTasks,2022.2.1,MacIntel,60.04202942,,,,,,,,,,,,,,,,,,,,,,,,,,,,,,,,,,,,,,,,,,,,,,,,,,,,,,,,,,,,,,,,,,,,,,,,,,,,,,,,,,"[1,7,3,6,8,5,4,2,9,9,6]",7,0,7,0,1,,,,,,,,,,,,,,,,,,,,,,,,,,,,,,,,,,,,,,,,,,,,,,,,
,,6296f6b50fbeeb28c63800df,2022-09-08_13h39.01.289,CGTgamblingSpanTasks,2022.2.1,MacIntel,60.04202942,,,,,,,,,,,,,,,,,,,,,,,,,,,,,,,,,,,,,,,,,,,,,,,,,,,,,,,,,,,,,,,,,,,,,,,,,,,,,,,,,,"[1,7,3,6,8,5,4,2,9,9,6]",8,0,8,0,1,,,,,,,,,,,,,,,,,,,,,,,,,,,,,,,,,,,,,,,,,,,,,,,,
,,6296f6b50fbeeb28c63800df,2022-09-08_13h39.01.289,CGTgamblingSpanTasks,2022.2.1,MacIntel,60.04202942,,,,,,,,,,,,,,,,,,,,,,,,,,,,,,,,,,,,,,,,,,,,,,,,,,,,,,,,,,,,,,,,,,,,,,,,,,,,,,,,,,"[1,7,3,6,8,5,4,2,9,9,6]",9,0,9,0,1,,,,,,,,,,,,,,,,,,,,,,,,,,,,,,,,,,,,,,,,,,,,,,,,
,,6296f6b50fbeeb28c63800df,2022-09-08_13h39.01.289,CGTgamblingSpanTasks,2022.2.1,MacIntel,60.04202942,,,,,,,,,,,,,,,,,,,,,,,,,,,,,,,,,,,,,,,,,,,,,,,,,,,,,,,,,,,,,,,,,,,,,,,,,,,,,,,,,,"[1,7,3,6,8,5,4,2,9,9,6]",10,0,10,0,1,,,,,,,,,,,,,,,,,,,,,,,,,,,,,,,,,,,,,,,,,,,,,,,,
,,6296f6b50fbeeb28c63800df,2022-09-08_13h39.01.289,CGTgamblingSpanTasks,2022.2.1,MacIntel,60.04202942,,,,,,,,,,,,,,,,,,,,,,,,,,,,,,,,,,,,,,,,,,,,,,,,,,,,,,,,,,,,,,,0,,,,,,,,,,,,,,,,,,,,,,,,,1537842996,0.025000814,-0.389573771,1,0,0,cont_button,0,12,12,12,1,13,,,,,,,,,,,,,,,,,,,,,,,,,,,,,,,,,,,
,,6296f6b50fbeeb28c63800df,2022-09-08_13h39.01.289,CGTgamblingSpanTasks,2022.2.1,MacIntel,60.04202942,,,,,,,,,,,,,,,,,,,,,,,,,,,,,,,,,,,,,,,,,,,,,,,,,,,,,,,,,,,,,,,,,,,,,,,,,,,,,,,,,,"[9,7,4,2,8,3,5,1,6,6]",0,0,0,0,1,,,,,,,,,,,,,,,,,,,,,,,,,,,,,,,,,,,,,,,,,,,,,,,,
,,6296f6b50fbeeb28c63800df,2022-09-08_13h39.01.289,CGTgamblingSpanTasks,2022.2.1,MacIntel,60.04202942,,,,,,,,,,,,,,,,,,,,,,,,,,,,,,,,,,,,,,,,,,,,,,,,,,,,,,,,,,,,,,,,,,,,,,,,,,,,,,,,,,"[9,7,4,2,8,3,5,1,6,6]",1,0,1,0,1,,,,,,,,,,,,,,,,,,,,,,,,,,,,,,,,,,,,,,,,,,,,,,,,
,,6296f6b50fbeeb28c63800df,2022-09-08_13h39.01.289,CGTgamblingSpanTasks,2022.2.1,MacIntel,60.04202942,,,,,,,,,,,,,,,,,,,,,,,,,,,,,,,,,,,,,,,,,,,,,,,,,,,,,,,,,,,,,,,,,,,,,,,,,,,,,,,,,,"[9,7,4,2,8,3,5,1,6,6]",2,0,2,0,1,,,,,,,,,,,,,,,,,,,,,,,,,,,,,,,,,,,,,,,,,,,,,,,,
,,6296f6b50fbeeb28c63800df,2022-09-08_13h39.01.289,CGTgamblingSpanTasks,2022.2.1,MacIntel,60.04202942,,,,,,,,,,,,,,,,,,,,,,,,,,,,,,,,,,,,,,,,,,,,,,,,,,,,,,,,,,,,,,,,,,,,,,,,,,,,,,,,,,"[9,7,4,2,8,3,5,1,6,6]",3,0,3,0,1,,,,,,,,,,,,,,,,,,,,,,,,,,,,,,,,,,,,,,,,,,,,,,,,
,,6296f6b50fbeeb28c63800df,2022-09-08_13h39.01.289,CGTgamblingSpanTasks,2022.2.1,MacIntel,60.04202942,,,,,,,,,,,,,,,,,,,,,,,,,,,,,,,,,,,,,,,,,,,,,,,,,,,,,,,,,,,,,,,,,,,,,,,,,,,,,,,,,,"[9,7,4,2,8,3,5,1,6,6]",4,0,4,0,1,,,,,,,,,,,,,,,,,,,,,,,,,,,,,,,,,,,,,,,,,,,,,,,,
,,6296f6b50fbeeb28c63800df,2022-09-08_13h39.01.289,CGTgamblingSpanTasks,2022.2.1,MacIntel,60.04202942,,,,,,,,,,,,,,,,,,,,,,,,,,,,,,,,,,,,,,,,,,,,,,,,,,,,,,,,,,,,,,,,,,,,,,,,,,,,,,,,,,"[9,7,4,2,8,3,5,1,6,6]",5,0,5,0,1,,,,,,,,,,,,,,,,,,,,,,,,,,,,,,,,,,,,,,,,,,,,,,,,
,,6296f6b50fbeeb28c63800df,2022-09-08_13h39.01.289,CGTgamblingSpanTasks,2022.2.1,MacIntel,60.04202942,,,,,,,,,,,,,,,,,,,,,,,,,,,,,,,,,,,,,,,,,,,,,,,,,,,,,,,,,,,,,,,,,,,,,,,,,,,,,,,,,,"[9,7,4,2,8,3,5,1,6,6]",6,0,6,0,1,,,,,,,,,,,,,,,,,,,,,,,,,,,,,,,,,,,,,,,,,,,,,,,,
,,6296f6b50fbeeb28c63800df,2022-09-08_13h39.01.289,CGTgamblingSpanTasks,2022.2.1,MacIntel,60.04202942,,,,,,,,,,,,,,,,,,,,,,,,,,,,,,,,,,,,,,,,,,,,,,,,,,,,,,,,,,,,,,,,,,,,,,,,,,,,,,,,,,"[9,7,4,2,8,3,5,1,6,6]",7,0,7,0,1,,,,,,,,,,,,,,,,,,,,,,,,,,,,,,,,,,,,,,,,,,,,,,,,
,,6296f6b50fbeeb28c63800df,2022-09-08_13h39.01.289,CGTgamblingSpanTasks,2022.2.1,MacIntel,60.04202942,,,,,,,,,,,,,,,,,,,,,,,,,,,,,,,,,,,,,,,,,,,,,,,,,,,,,,,,,,,,,,,,,,,,,,,,,,,,,,,,,,"[9,7,4,2,8,3,5,1,6,6]",8,0,8,0,1,,,,,,,,,,,,,,,,,,,,,,,,,,,,,,,,,,,,,,,,,,,,,,,,
,,6296f6b50fbeeb28c63800df,2022-09-08_13h39.01.289,CGTgamblingSpanTasks,2022.2.1,MacIntel,60.04202942,,,,,,,,,,,,,,,,,,,,,,,,,,,,,,,,,,,,,,,,,,,,,,,,,,,,,,,,,,,,,,,,,,,,,,,,,,,,,,,,,,"[9,7,4,2,8,3,5,1,6,6]",9,0,9,0,1,,,,,,,,,,,,,,,,,,,,,,,,,,,,,,,,,,,,,,,,,,,,,,,,
,,6296f6b50fbeeb28c63800df,2022-09-08_13h39.01.289,CGTgamblingSpanTasks,2022.2.1,MacIntel,60.04202942,,,,,,,,,,,,,,,,,,,,,,,,,,,,,,,,,,,,,,,,,,,,,,,,,,,,,,,,,,,,,,,1,,,,,,,,,,,,,,,,,,,,,,,,,9742835166,0.025000814,-0.389573771,1,0,0,cont_button,0,13,13,13,1,14,,,,,,,,,,,,,,,,,,,,,,,,,,,,,,,,,,,
,,6296f6b50fbeeb28c63800df,2022-09-08_13h39.01.289,CGTgamblingSpanTasks,2022.2.1,MacIntel,60.04202942,,,,,,,,,,,,,,,,,,,,,,,,,,,,,,,,,,,,,,,,,,,,,,,,,,,,,,,,,,,,,,,,,,,,,,,,,,,,,,,,,,,,,,,,,,,,,,,,,,,,,return,3.1061,,,,,,,,,,,,,,,,,,,,,,,,,,,,,,,,,
,,6296f6b50fbeeb28c63800df,2022-09-08_13h39.01.289,CGTgamblingSpanTasks,2022.2.1,MacIntel,60.04202942,,,,,,,,,,,,,,,,,,,,,,,,,,,,,,,,,,,,,,,,,,,,,,,,,,,,,,,,,,,,,,,,,,,,,,,,,,,,,,,,,,,,,,,,,,,,,,,,,,,,,,,return,19.8992,,,,,,,,,,,,,,,,,,,,,,,,,,,,,,,
,,6296f6b50fbeeb28c63800df,2022-09-08_13h39.01.289,CGTgamblingSpanTasks,2022.2.1,MacIntel,60.04202942,,,,,,,,,,,,,,,,,,,,,,,,,,,,,,,,,,,,,,,,,,,,,,,,,,,,,,,,,,,,,,,1,,,,,,,,,,,,3,342,24,2,42,,,,,,,,,,,,,,,,,,,,,,,,,,42,0.086452162,-0.385636529,1,0,0,cont_buttonPractice_2,0,0,0,0,1,,,,,,,,,,,,,,,,,,,
,,6296f6b50fbeeb28c63800df,2022-09-08_13h39.01.289,CGTgamblingSpanTasks,2022.2.1,MacIntel,60.04202942,,,,,,,,,,,,,,,,,,,,,,,,,,,,,,,,,,,,,,,,,,,,,,,,,,,,,,,,,,,,,,,1,,,,,,,,,,,,3,937,73,2,37,,,,,,,,,,,,,,,,,,,,,,,,,,37,0.086452162,-0.385636529,1,0,0,cont_buttonPractice_2,0,1,1,1,1,,,,,,,,,,,,,,,,,,,
,,6296f6b50fbeeb28c63800df,2022-09-08_13h39.01.289,CGTgamblingSpanTasks,2022.2.1,MacIntel,60.04202942,,,,,,,,,,,,,,,,,,,,,,,,,,,,,,,,,,,,,,,,,,,,,,,,,,,,,,,,,,,,,,,,,,,,,,,,,,,,,,,,,,,,,,,,,,,,,,,,,,,,,,,,,,,,,,,,,,,,,return,3.8551,,,,,,,,,,,,,,,,,
,,6296f6b50fbeeb28c63800df,2022-09-08_13h39.01.289,CGTgamblingSpanTasks,2022.2.1,MacIntel,60.04202942,,,,,,,,,,,,,,,,,,,,,,,,,,,,,,,,,,,,,,,,,,,,,,,,,,,,,,,,,,,,,,,,,,,,,,,,,,,,,,,,,,"[5,3]",,,,,,,,,,,,,,,,,,,,,,,,,,,,,,,,,,,,,0,0,0,0,1,,,,,,,,,,,,
,,6296f6b50fbeeb28c63800df,2022-09-08_13h39.01.289,CGTgamblingSpanTasks,2022.2.1,MacIntel,60.04202942,,,,,,,,,,,,,,,,,,,,,,,,,,,,,,,,,,,,,,,,,,,,,,,,,,,,,,,,,,,,,,,,,,,,,,,,,,,,,,,,,,"[5,3]",,,,,,,,,,,,,,,,,,,,,,,,,,,,,,,,,,,,,1,0,1,0,1,,,,,,,,,,,,
,,6296f6b50fbeeb28c63800df,2022-09-08_13h39.01.289,CGTgamblingSpanTasks,2022.2.1,MacIntel,60.04202942,,,,,,,,,,,,,,,,,,,,,,,,,,,,,,,,,,,,,,,,,,,,,,,,,,,,,,,,,,,,,,,1,,,,,,,,,,,,,,,,,,,,,,,,,,,,,,,,,,,,,1,,,,,,,,,,,,,,,,,,,,,,,,35,0.086452162,-0.385636529,1,0,0,cont_buttonBS,0,0,0,0,1
,,6296f6b50fbeeb28c63800df,2022-09-08_13h39.01.289,CGTgamblingSpanTasks,2022.2.1,MacIntel,60.04202942,,,,,,,,,,,,,,,,,,,,,,,,,,,,,,,,,,,,,,,,,,,,,,,,,,,,,,,,,,,,,,,,,,,,,,,,,,,,,,,,,,"[3,7,1]",,,,,,,,,,,,,,,,,,,,,,,,,,,,,,,,,,,,,0,0,0,0,1,,,,,,,,,,,,
,,6296f6b50fbeeb28c63800df,2022-09-08_13h39.01.289,CGTgamblingSpanTasks,2022.2.1,MacIntel,60.04202942,,,,,,,,,,,,,,,,,,,,,,,,,,,,,,,,,,,,,,,,,,,,,,,,,,,,,,,,,,,,,,,,,,,,,,,,,,,,,,,,,,"[3,7,1]",,,,,,,,,,,,,,,,,,,,,,,,,,,,,,,,,,,,,1,0,1,0,1,,,,,,,,,,,,
,,6296f6b50fbeeb28c63800df,2022-09-08_13h39.01.289,CGTgamblingSpanTasks,2022.2.1,MacIntel,60.04202942,,,,,,,,,,,,,,,,,,,,,,,,,,,,,,,,,,,,,,,,,,,,,,,,,,,,,,,,,,,,,,,,,,,,,,,,,,,,,,,,,,"[3,7,1]",,,,,,,,,,,,,,,,,,,,,,,,,,,,,,,,,,,,,2,0,2,0,1,,,,,,,,,,,,
,,6296f6b50fbeeb28c63800df,2022-09-08_13h39.01.289,CGTgamblingSpanTasks,2022.2.1,MacIntel,60.04202942,,,,,,,,,,,,,,,,,,,,,,,,,,,,,,,,,,,,,,,,,,,,,,,,,,,,,,,,,,,,,,,1,,,,,,,,,,,,,,,,,,,,,,,,,,,,,,,,,,,,,2,,,,,,,,,,,,,,,,,,,,,,,,173,0.086452162,-0.385636529,1,0,0,cont_buttonBS,0,1,1,1,1
,,6296f6b50fbeeb28c63800df,2022-09-08_13h39.01.289,CGTgamblingSpanTasks,2022.2.1,MacIntel,60.04202942,,,,,,,,,,,,,,,,,,,,,,,,,,,,,,,,,,,,,,,,,,,,,,,,,,,,,,,,,,,,,,,,,,,,,,,,,,,,,,,,,,"[7,3,2,6]",,,,,,,,,,,,,,,,,,,,,,,,,,,,,,,,,,,,,0,0,0,0,1,,,,,,,,,,,,
,,6296f6b50fbeeb28c63800df,2022-09-08_13h39.01.289,CGTgamblingSpanTasks,2022.2.1,MacIntel,60.04202942,,,,,,,,,,,,,,,,,,,,,,,,,,,,,,,,,,,,,,,,,,,,,,,,,,,,,,,,,,,,,,,,,,,,,,,,,,,,,,,,,,"[7,3,2,6]",,,,,,,,,,,,,,,,,,,,,,,,,,,,,,,,,,,,,1,0,1,0,1,,,,,,,,,,,,
,,6296f6b50fbeeb28c63800df,2022-09-08_13h39.01.289,CGTgamblingSpanTasks,2022.2.1,MacIntel,60.04202942,,,,,,,,,,,,,,,,,,,,,,,,,,,,,,,,,,,,,,,,,,,,,,,,,,,,,,,,,,,,,,,,,,,,,,,,,,,,,,,,,,"[7,3,2,6]",,,,,,,,,,,,,,,,,,,,,,,,,,,,,,,,,,,,,2,0,2,0,1,,,,,,,,,,,,
,,6296f6b50fbeeb28c63800df,2022-09-08_13h39.01.289,CGTgamblingSpanTasks,2022.2.1,MacIntel,60.04202942,,,,,,,,,,,,,,,,,,,,,,,,,,,,,,,,,,,,,,,,,,,,,,,,,,,,,,,,,,,,,,,,,,,,,,,,,,,,,,,,,,"[7,3,2,6]",,,,,,,,,,,,,,,,,,,,,,,,,,,,,,,,,,,,,3,0,3,0,1,,,,,,,,,,,,
,,6296f6b50fbeeb28c63800df,2022-09-08_13h39.01.289,CGTgamblingSpanTasks,2022.2.1,MacIntel,60.04202942,,,,,,,,,,,,,,,,,,,,,,,,,,,,,,,,,,,,,,,,,,,,,,,,,,,,,,,,,,,,,,,1,,,,,,,,,,,,,,,,,,,,,,,,,,,,,,,,,,,,,3,,,,,,,,,,,,,,,,,,,,,,,,6237,0.086452162,-0.385636529,1,0,0,cont_buttonBS,0,2,2,2,1
,,6296f6b50fbeeb28c63800df,2022-09-08_13h39.01.289,CGTgamblingSpanTasks,2022.2.1,MacIntel,60.04202942,,,,,,,,,,,,,,,,,,,,,,,,,,,,,,,,,,,,,,,,,,,,,,,,,,,,,,,,,,,,,,,,,,,,,,,,,,,,,,,,,,"[7,6,1,9,5]",,,,,,,,,,,,,,,,,,,,,,,,,,,,,,,,,,,,,0,0,0,0,1,,,,,,,,,,,,
,,6296f6b50fbeeb28c63800df,2022-09-08_13h39.01.289,CGTgamblingSpanTasks,2022.2.1,MacIntel,60.04202942,,,,,,,,,,,,,,,,,,,,,,,,,,,,,,,,,,,,,,,,,,,,,,,,,,,,,,,,,,,,,,,,,,,,,,,,,,,,,,,,,,"[7,6,1,9,5]",,,,,,,,,,,,,,,,,,,,,,,,,,,,,,,,,,,,,1,0,1,0,1,,,,,,,,,,,,
,,6296f6b50fbeeb28c63800df,2022-09-08_13h39.01.289,CGTgamblingSpanTasks,2022.2.1,MacIntel,60.04202942,,,,,,,,,,,,,,,,,,,,,,,,,,,,,,,,,,,,,,,,,,,,,,,,,,,,,,,,,,,,,,,,,,,,,,,,,,,,,,,,,,"[7,6,1,9,5]",,,,,,,,,,,,,,,,,,,,,,,,,,,,,,,,,,,,,2,0,2,0,1,,,,,,,,,,,,
,,6296f6b50fbeeb28c63800df,2022-09-08_13h39.01.289,CGTgamblingSpanTasks,2022.2.1,MacIntel,60.04202942,,,,,,,,,,,,,,,,,,,,,,,,,,,,,,,,,,,,,,,,,,,,,,,,,,,,,,,,,,,,,,,,,,,,,,,,,,,,,,,,,,"[7,6,1,9,5]",,,,,,,,,,,,,,,,,,,,,,,,,,,,,,,,,,,,,3,0,3,0,1,,,,,,,,,,,,
,,6296f6b50fbeeb28c63800df,2022-09-08_13h39.01.289,CGTgamblingSpanTasks,2022.2.1,MacIntel,60.04202942,,,,,,,,,,,,,,,,,,,,,,,,,,,,,,,,,,,,,,,,,,,,,,,,,,,,,,,,,,,,,,,,,,,,,,,,,,,,,,,,,,"[7,6,1,9,5]",,,,,,,,,,,,,,,,,,,,,,,,,,,,,,,,,,,,,4,0,4,0,1,,,,,,,,,,,,
,,6296f6b50fbeeb28c63800df,2022-09-08_13h39.01.289,CGTgamblingSpanTasks,2022.2.1,MacIntel,60.04202942,,,,,,,,,,,,,,,,,,,,,,,,,,,,,,,,,,,,,,,,,,,,,,,,,,,,,,,,,,,,,,,1,,,,,,,,,,,,,,,,,,,,,,,,,,,,,,,,,,,,,4,,,,,,,,,,,,,,,,,,,,,,,,59167,0.086452162,-0.385636529,1,0,0,cont_buttonBS,0,3,3,3,1
,,6296f6b50fbeeb28c63800df,2022-09-08_13h39.01.289,CGTgamblingSpanTasks,2022.2.1,MacIntel,60.04202942,,,,,,,,,,,,,,,,,,,,,,,,,,,,,,,,,,,,,,,,,,,,,,,,,,,,,,,,,,,,,,,,,,,,,,,,,,,,,,,,,,"[8,3,2,7,4,1]",,,,,,,,,,,,,,,,,,,,,,,,,,,,,,,,,,,,,0,0,0,0,1,,,,,,,,,,,,
