initITIstatic,initITIdynamic,participant,date,expName,psychopyVersion,OS,frameRate,inst1.keys,inst1.rt,startPracResp.keys,startPracResp.rt,choice1.keys,choice1.rt,outcome,extraITI,trials.thisRepN,trials.thisTrialN,trials.thisN,trials.thisIndex,trials.ran,riskyGain,riskyLoss,alternative,isi,iti,loc,postPractResp.keys,postPractResp.rt,realloc,realChoice.keys,realChoice.rt,outcomes,choices,actualITI,init ITI,staticRDM.thisRepN,staticRDM.thisTrialN,staticRDM.thisN,staticRDM.thisIndex,staticRDM.ran,riskyoption1,riskyoption2,safeoption,ischecktrial,dynamicChoiceSetName,dynamicChoiceSetPath,bestRho,bestMu,trials_2.thisRepN,trials_2.thisTrialN,trials_2.thisN,trials_2.thisIndex,trials_2.ran,key_resp.keys,key_resp.rt,dynamicRDM.thisRepN,dynamicRDM.thisTrialN,dynamicRDM.thisN,dynamicRDM.thisIndex,dynamicRDM.ran,choiceP,easy0difficult1,stopBreak.keys,stopBreak.rt,movealong.keys,movealong.rt,startPractice.keys,startPractice.rt,textboxPractice.text,correct,mousePractice.x,mousePractice.y,mousePractice.leftButton,mousePractice.midButton,mousePractice.rightButton,mousePractice.clicked_name,trialFSPractice.thisRepN,trialFSPractice.thisTrialN,trialFSPractice.thisN,trialFSPractice.thisIndex,trialFSPractice.ran,digitSpanForward,digits,digitsReverse,digitSpanReverse,digitsReverseCorrAnswer,startFSreal.keys,startFSreal.rt,digitsForTrial,digitLoop.thisRepN,digitLoop.thisTrialN,digitLoop.thisN,digitLoop.thisIndex,digitLoop.ran,textbox.text,mouse_3.x,mouse_3.y,mouse_3.leftButton,mouse_3.midButton,mouse_3.rightButton,mouse_3.clicked_name,trialsFS.thisRepN,trialsFS.thisTrialN,trialsFS.thisN,trialsFS.thisIndex,trialsFS.ran,trialNumber,moveToBS.keys,moveToBS.rt,startBSprac.keys,startBSprac.rt,textboxPractice_2.text,mousePractice_2.x,mousePractice_2.y,mousePractice_2.leftButton,mousePractice_2.midButton,mousePractice_2.rightButton,mousePractice_2.clicked_name,trialsPracticeBS.thisRepN,trialsPracticeBS.thisTrialN,trialsPracticeBS.thisN,trialsPracticeBS.thisIndex,trialsPracticeBS.ran,startBSreal.keys,startBSreal.rt,digitLoopBS.thisRepN,digitLoopBS.thisTrialN,digitLoopBS.thisN,digitLoopBS.thisIndex,digitLoopBS.ran,textboxBS.text,mouseBS.x,mouseBS.y,mouseBS.leftButton,mouseBS.midButton,mouseBS.rightButton,mouseBS.clicked_name,trialsBS.thisRepN,trialsBS.thisTrialN,trialsBS.thisN,trialsBS.thisIndex,trialsBS.ran
"[1,1.5,1.5,1,1,1.5,1,1.5,1,1,1,1.5,1.5,1.5,1.5,1.5,1.5,1.5,1,1,1,1,1,1.5,1,1,1,1,1,1,1,1.5,1.5,1.5,1,1.5,1,1.5,1.5,1.5,1.5,1,1,1.5,1.5,1.5,1.5,1,1.5,1]","[1,1,1.5,1.5,1,1,1.5,1.5,1.5,1.5,1,1,1.5,1,1,1,1.5,1,1,1.5,1.5,1.5,1,1,1.5,1.5,1.5,1,1.5,1.5,1,1.5,1.5,1.5,1,1.5,1,1,1,1,1,1,1,1,1,1,1,1,1,1.5,1.5,1,1.5,1.5,1.5,1.5,1.5,1.5,1,1,1,1,1,1.5,1.5,1.5,1,1.5,1,1.5,1.5,1.5,1.5,1.5,1.5,1.5,1.5,1.5,1.5,1,1.5,1.5,1,1.5,1,1.5,1,1,1.5,1,1,1,1.5,1,1,1,1.5,1,1,1.5,1,1,1.5,1,1,1.5,1.5,1.5,1,1,1.5,1,1,1.5,1.5,1,1.5,1.5,1,1.5]",60131babd3a5ad18ed8b15a3,2022-09-08_12h56.38.530,CGTgamblingSpanTasks,2022.2.1,Win32,60.08893162,,,,,,,,,,,,,,,,,,,,,,,,,,,,,,,,,,,,,,,,,,,,,,,,,,,,,,,,,,,,,,,,,,,,,,,,,,,,,,,,,,,,,,,,,,,,,,,,,,,,,,,,,,,,,,,,,,,,,,,,,,,,,,,,,,,,,,,
,,60131babd3a5ad18ed8b15a3,2022-09-08_12h56.38.530,CGTgamblingSpanTasks,2022.2.1,Win32,60.08893162,return,4.4785,,,,,,,,,,,,,,,,,,,,,,,,,,,,,,,,,,,,,,,,,,,,,,,,,,,,,,,,,,,,,,,,,,,,,,,,,,,,,,,,,,,,,,,,,,,,,,,,,,,,,,,,,,,,,,,,,,,,,,,,,,,,,,,,,,,,,
,,60131babd3a5ad18ed8b15a3,2022-09-08_12h56.38.530,CGTgamblingSpanTasks,2022.2.1,Win32,60.08893162,,,v,2.3765,,,,,,,,,,,,,,,,,,,,,,,,,,,,,,,,,,,,,,,,,,,,,,,,,,,,,,,,,,,,,,,,,,,,,,,,,,,,,,,,,,,,,,,,,,,,,,,,,,,,,,,,,,,,,,,,,,,,,,,,,,,,,,,,,,,
,,60131babd3a5ad18ed8b15a3,2022-09-08_12h56.38.530,CGTgamblingSpanTasks,2022.2.1,Win32,60.08893162,,,,,n,2.5795,9.45,1.4205,0,0,0,0,1,18.23,0,9.45,2,1,1,,,,,,,,,,,,,,,,,,,,,,,,,,,,,,,,,,,,,,,,,,,,,,,,,,,,,,,,,,,,,,,,,,,,,,,,,,,,,,,,,,,,,,,,,,,,,,,,,,,,,,,,,,,,,,,,,,,,
,,60131babd3a5ad18ed8b15a3,2022-09-08_12h56.38.530,CGTgamblingSpanTasks,2022.2.1,Win32,60.08893162,,,,,n,1.4132,35.16,2.5868,0,1,1,1,1,53.27,0,35.16,1,1.5,1,,,,,,,,,,,,,,,,,,,,,,,,,,,,,,,,,,,,,,,,,,,,,,,,,,,,,,,,,,,,,,,,,,,,,,,,,,,,,,,,,,,,,,,,,,,,,,,,,,,,,,,,,,,,,,,,,,,,
,,60131babd3a5ad18ed8b15a3,2022-09-08_12h56.38.530,CGTgamblingSpanTasks,2022.2.1,Win32,60.08893162,,,,,n,1.8714,0,2.1286,0,2,2,2,1,8.27,0,1.15,1,1.5,2,,,,,,,,,,,,,,,,,,,,,,,,,,,,,,,,,,,,,,,,,,,,,,,,,,,,,,,,,,,,,,,,,,,,,,,,,,,,,,,,,,,,,,,,,,,,,,,,,,,,,,,,,,,,,,,,,,,,
,,60131babd3a5ad18ed8b15a3,2022-09-08_12h56.38.530,CGTgamblingSpanTasks,2022.2.1,Win32,60.08893162,,,,,n,1.1701,40.41,2.8299,0,3,3,3,1,45.88,0,40.41,3,1,1,,,,,,,,,,,,,,,,,,,,,,,,,,,,,,,,,,,,,,,,,,,,,,,,,,,,,,,,,,,,,,,,,,,,,,,,,,,,,,,,,,,,,,,,,,,,,,,,,,,,,,,,,,,,,,,,,,,,
,,60131babd3a5ad18ed8b15a3,2022-09-08_12h56.38.530,CGTgamblingSpanTasks,2022.2.1,Win32,60.08893162,,,,,v,1.6739,11.96,2.3261,0,4,4,4,1,21.56,0,11.96,1,1.5,2,,,,,,,,,,,,,,,,,,,,,,,,,,,,,,,,,,,,,,,,,,,,,,,,,,,,,,,,,,,,,,,,,,,,,,,,,,,,,,,,,,,,,,,,,,,,,,,,,,,,,,,,,,,,,,,,,,,,
,,60131babd3a5ad18ed8b15a3,2022-09-08_12h56.38.530,CGTgamblingSpanTasks,2022.2.1,Win32,60.08893162,,,,,,,,,,,,,,,,,,,,v,4.2792,,,,,,,,,,,,,,,,,,,,,,,,,,,,,,,,,,,,,,,,,,,,,,,,,,,,,,,,,,,,,,,,,,,,,,,,,,,,,,,,,,,,,,,,,,,,,,,,,,,,,,,,,,,,,,,,,,
,,60131babd3a5ad18ed8b15a3,2022-09-08_12h56.38.530,CGTgamblingSpanTasks,2022.2.1,Win32,60.08893162,,,,,,,,2.9031,,,,,,,,,,,,,,1,n,1.0969,10.37,0,3.9031,1,0,0,0,37,1,15.27,0,10.37,0,,,,,,,,,,,,,,,,,,,,,,,,,,,,,,,,,,,,,,,,,,,,,,,,,,,,,,,,,,,,,,,,,,,,,,,,,,,,,,,,,,,,,,,,,,,,,,,,,,
,,60131babd3a5ad18ed8b15a3,2022-09-08_12h56.38.530,CGTgamblingSpanTasks,2022.2.1,Win32,60.08893162,,,,,,,,2.7824,,,,,,,,,,,,,,2,n,1.2176,28.21,1,4.2824,1.5,0,1,1,1,1,28.21,0,3.89,0,,,,,,,,,,,,,,,,,,,,,,,,,,,,,,,,,,,,,,,,,,,,,,,,,,,,,,,,,,,,,,,,,,,,,,,,,,,,,,,,,,,,,,,,,,,,,,,,,,
,,60131babd3a5ad18ed8b15a3,2022-09-08_12h56.38.530,CGTgamblingSpanTasks,2022.2.1,Win32,60.08893162,,,,,,,,2.7657,,,,,,,,,,,,,,2,v,1.2343,4.64,0,4.2657,1.5,0,2,2,6,1,14.72,0,4.64,0,,,,,,,,,,,,,,,,,,,,,,,,,,,,,,,,,,,,,,,,,,,,,,,,,,,,,,,,,,,,,,,,,,,,,,,,,,,,,,,,,,,,,,,,,,,,,,,,,,
,,60131babd3a5ad18ed8b15a3,2022-09-08_12h56.38.530,CGTgamblingSpanTasks,2022.2.1,Win32,60.08893162,,,,,,,,2.8462,,,,,,,,,,,,,,2,v,1.1538,6.4,0,3.8462,1,0,3,3,26,1,11.2,0,6.4,0,,,,,,,,,,,,,,,,,,,,,,,,,,,,,,,,,,,,,,,,,,,,,,,,,,,,,,,,,,,,,,,,,,,,,,,,,,,,,,,,,,,,,,,,,,,,,,,,,,
,,60131babd3a5ad18ed8b15a3,2022-09-08_12h56.38.530,CGTgamblingSpanTasks,2022.2.1,Win32,60.08893162,,,,,,,,2.8104,,,,,,,,,,,,,,2,v,1.1896,5.96,0,3.8104,1,0,4,4,18,1,12.08,0,5.96,0,,,,,,,,,,,,,,,,,,,,,,,,,,,,,,,,,,,,,,,,,,,,,,,,,,,,,,,,,,,,,,,,,,,,,,,,,,,,,,,,,,,,,,,,,,,,,,,,,,
,,60131babd3a5ad18ed8b15a3,2022-09-08_12h56.38.530,CGTgamblingSpanTasks,2022.2.1,Win32,60.08893162,,,,,,,,2.9996,,,,,,,,,,,,,,1,n,1.0004,9.87,0,4.4996,1.5,0,5,5,29,1,16.26,0,9.87,0,,,,,,,,,,,,,,,,,,,,,,,,,,,,,,,,,,,,,,,,,,,,,,,,,,,,,,,,,,,,,,,,,,,,,,,,,,,,,,,,,,,,,,,,,,,,,,,,,,
,,60131babd3a5ad18ed8b15a3,2022-09-08_12h56.38.530,CGTgamblingSpanTasks,2022.2.1,Win32,60.08893162,,,,,,,,3.0186,,,,,,,,,,,,,,2,v,0.9814,8.36,0,4.0186,1,0,6,6,13,1,19.28,0,8.36,0,,,,,,,,,,,,,,,,,,,,,,,,,,,,,,,,,,,,,,,,,,,,,,,,,,,,,,,,,,,,,,,,,,,,,,,,,,,,,,,,,,,,,,,,,,,,,,,,,,
,,60131babd3a5ad18ed8b15a3,2022-09-08_12h56.38.530,CGTgamblingSpanTasks,2022.2.1,Win32,60.08893162,,,,,,,,2.8923,,,,,,,,,,,,,,1,n,1.1077,7.55,0,4.3923,1.5,0,7,7,45,1,0,0,7.55,1,,,,,,,,,,,,,,,,,,,,,,,,,,,,,,,,,,,,,,,,,,,,,,,,,,,,,,,,,,,,,,,,,,,,,,,,,,,,,,,,,,,,,,,,,,,,,,,,,,
,,60131babd3a5ad18ed8b15a3,2022-09-08_12h56.38.530,CGTgamblingSpanTasks,2022.2.1,Win32,60.08893162,,,,,,,,2.4667,,,,,,,,,,,,,,1,n,1.5333,6.88,0,3.4667,1,0,8,8,36,1,10.24,0,6.88,0,,,,,,,,,,,,,,,,,,,,,,,,,,,,,,,,,,,,,,,,,,,,,,,,,,,,,,,,,,,,,,,,,,,,,,,,,,,,,,,,,,,,,,,,,,,,,,,,,,
,,60131babd3a5ad18ed8b15a3,2022-09-08_12h56.38.530,CGTgamblingSpanTasks,2022.2.1,Win32,60.08893162,,,,,,,,2.4126,,,,,,,,,,,,,,1,v,1.5874,0,1,3.4126,1,0,9,9,12,1,13.04,0,5.48,0,,,,,,,,,,,,,,,,,,,,,,,,,,,,,,,,,,,,,,,,,,,,,,,,,,,,,,,,,,,,,,,,,,,,,,,,,,,,,,,,,,,,,,,,,,,,,,,,,,
,,60131babd3a5ad18ed8b15a3,2022-09-08_12h56.38.530,CGTgamblingSpanTasks,2022.2.1,Win32,60.08893162,,,,,,,,2.9491,,,,,,,,,,,,,,2,v,1.0509,9.7,0,3.9491,1,0,10,10,27,1,16.6,0,9.7,0,,,,,,,,,,,,,,,,,,,,,,,,,,,,,,,,,,,,,,,,,,,,,,,,,,,,,,,,,,,,,,,,,,,,,,,,,,,,,,,,,,,,,,,,,,,,,,,,,,
,,60131babd3a5ad18ed8b15a3,2022-09-08_12h56.38.530,CGTgamblingSpanTasks,2022.2.1,Win32,60.08893162,,,,,,,,2.0869,,,,,,,,,,,,,,1,v,1.9131,20.53,1,3.5869,1.5,0,11,11,9,1,20.53,0,7.73,0,,,,,,,,,,,,,,,,,,,,,,,,,,,,,,,,,,,,,,,,,,,,,,,,,,,,,,,,,,,,,,,,,,,,,,,,,,,,,,,,,,,,,,,,,,,,,,,,,,
,,60131babd3a5ad18ed8b15a3,2022-09-08_12h56.38.530,CGTgamblingSpanTasks,2022.2.1,Win32,60.08893162,,,,,,,,3.0991,,,,,,,,,,,,,,1,n,0.9009,8.61,0,4.5991,1.5,0,12,12,15,1,18.77,0,8.61,0,,,,,,,,,,,,,,,,,,,,,,,,,,,,,,,,,,,,,,,,,,,,,,,,,,,,,,,,,,,,,,,,,,,,,,,,,,,,,,,,,,,,,,,,,,,,,,,,,,
,,60131babd3a5ad18ed8b15a3,2022-09-08_12h56.38.530,CGTgamblingSpanTasks,2022.2.1,Win32,60.08893162,,,,,,,,3.0665,,,,,,,,,,,,,,1,n,0.9335,6.19,0,4.5665,1.5,0,13,13,22,1,11.62,0,6.19,0,,,,,,,,,,,,,,,,,,,,,,,,,,,,,,,,,,,,,,,,,,,,,,,,,,,,,,,,,,,,,,,,,,,,,,,,,,,,,,,,,,,,,,,,,,,,,,,,,,
,,60131babd3a5ad18ed8b15a3,2022-09-08_12h56.38.530,CGTgamblingSpanTasks,2022.2.1,Win32,60.08893162,,,,,,,,2.3997,,,,,,,,,,,,,,2,v,1.6003,10.68,0,3.8997,1.5,0,14,14,48,1,10.68,0,10.68,1,,,,,,,,,,,,,,,,,,,,,,,,,,,,,,,,,,,,,,,,,,,,,,,,,,,,,,,,,,,,,,,,,,,,,,,,,,,,,,,,,,,,,,,,,,,,,,,,,,
,,60131babd3a5ad18ed8b15a3,2022-09-08_12h56.38.530,CGTgamblingSpanTasks,2022.2.1,Win32,60.08893162,,,,,,,,2.3434,,,,,,,,,,,,,,1,v,1.6566,7.73,1,3.8434,1.5,0,15,15,44,1,13.1,7.73,4.68,1,,,,,,,,,,,,,,,,,,,,,,,,,,,,,,,,,,,,,,,,,,,,,,,,,,,,,,,,,,,,,,,,,,,,,,,,,,,,,,,,,,,,,,,,,,,,,,,,,,
,,60131babd3a5ad18ed8b15a3,2022-09-08_12h56.38.530,CGTgamblingSpanTasks,2022.2.1,Win32,60.08893162,,,,,,,,2.192,,,,,,,,,,,,,,2,n,1.808,17.73,1,3.692,1.5,0,16,16,2,1,17.73,0,3.13,0,,,,,,,,,,,,,,,,,,,,,,,,,,,,,,,,,,,,,,,,,,,,,,,,,,,,,,,,,,,,,,,,,,,,,,,,,,,,,,,,,,,,,,,,,,,,,,,,,,
,,60131babd3a5ad18ed8b15a3,2022-09-08_12h56.38.530,CGTgamblingSpanTasks,2022.2.1,Win32,60.08893162,,,,,,,,2.2265,,,,,,,,,,,,,,1,v,1.7735,19.86,1,3.7265,1.5,0,17,17,42,1,19.86,0,0,1,,,,,,,,,,,,,,,,,,,,,,,,,,,,,,,,,,,,,,,,,,,,,,,,,,,,,,,,,,,,,,,,,,,,,,,,,,,,,,,,,,,,,,,,,,,,,,,,,,
,,60131babd3a5ad18ed8b15a3,2022-09-08_12h56.38.530,CGTgamblingSpanTasks,2022.2.1,Win32,60.08893162,,,,,,,,2.0534,,,,,,,,,,,,,,2,v,1.9466,5.82,0,3.0534,1,0,18,18,16,1,12.36,0,5.82,0,,,,,,,,,,,,,,,,,,,,,,,,,,,,,,,,,,,,,,,,,,,,,,,,,,,,,,,,,,,,,,,,,,,,,,,,,,,,,,,,,,,,,,,,,,,,,,,,,,
,,60131babd3a5ad18ed8b15a3,2022-09-08_12h56.38.530,CGTgamblingSpanTasks,2022.2.1,Win32,60.08893162,,,,,,,,2.6161,,,,,,,,,,,,,,1,n,1.3839,6.81,0,3.6161,1,0,19,19,34,1,10.39,0,6.81,0,,,,,,,,,,,,,,,,,,,,,,,,,,,,,,,,,,,,,,,,,,,,,,,,,,,,,,,,,,,,,,,,,,,,,,,,,,,,,,,,,,,,,,,,,,,,,,,,,,
,,60131babd3a5ad18ed8b15a3,2022-09-08_12h56.38.530,CGTgamblingSpanTasks,2022.2.1,Win32,60.08893162,,,,,,,,2.6323,,,,,,,,,,,,,,1,n,1.3677,6.94,0,3.6323,1,0,20,20,38,1,10.12,0,6.94,0,,,,,,,,,,,,,,,,,,,,,,,,,,,,,,,,,,,,,,,,,,,,,,,,,,,,,,,,,,,,,,,,,,,,,,,,,,,,,,,,,,,,,,,,,,,,,,,,,,
,,60131babd3a5ad18ed8b15a3,2022-09-08_12h56.38.530,CGTgamblingSpanTasks,2022.2.1,Win32,60.08893162,,,,,,,,2.7257,,,,,,,,,,,,,,1,v,1.2743,0,1,3.7257,1,0,21,21,0,1,20.03,0,1.99,0,,,,,,,,,,,,,,,,,,,,,,,,,,,,,,,,,,,,,,,,,,,,,,,,,,,,,,,,,,,,,,,,,,,,,,,,,,,,,,,,,,,,,,,,,,,,,,,,,,
,,60131babd3a5ad18ed8b15a3,2022-09-08_12h56.38.530,CGTgamblingSpanTasks,2022.2.1,Win32,60.08893162,,,,,,,,2.8442,,,,,,,,,,,,,,1,n,1.1558,8.84,0,3.8442,1,0,22,22,17,1,18.33,0,8.84,0,,,,,,,,,,,,,,,,,,,,,,,,,,,,,,,,,,,,,,,,,,,,,,,,,,,,,,,,,,,,,,,,,,,,,,,,,,,,,,,,,,,,,,,,,,,,,,,,,,
,,60131babd3a5ad18ed8b15a3,2022-09-08_12h56.38.530,CGTgamblingSpanTasks,2022.2.1,Win32,60.08893162,,,,,,,,2.8281,,,,,,,,,,,,,,2,v,1.1719,3.13,0,4.3281,1.5,0,23,23,47,1,0,0,3.13,1,,,,,,,,,,,,,,,,,,,,,,,,,,,,,,,,,,,,,,,,,,,,,,,,,,,,,,,,,,,,,,,,,,,,,,,,,,,,,,,,,,,,,,,,,,,,,,,,,,
,,60131babd3a5ad18ed8b15a3,2022-09-08_12h56.38.530,CGTgamblingSpanTasks,2022.2.1,Win32,60.08893162,,,,,,,,2.7301,,,,,,,,,,,,,,2,n,1.2699,0,1,3.7301,1,0,24,24,41,1,14.26,0,0,1,,,,,,,,,,,,,,,,,,,,,,,,,,,,,,,,,,,,,,,,,,,,,,,,,,,,,,,,,,,,,,,,,,,,,,,,,,,,,,,,,,,,,,,,,,,,,,,,,,
,,60131babd3a5ad18ed8b15a3,2022-09-08_12h56.38.530,CGTgamblingSpanTasks,2022.2.1,Win32,60.08893162,,,,,,,,2.3769,,,,,,,,,,,,,,2,n,1.6231,0,1,3.3769,1,0,25,25,4,1,16,0,4,0,,,,,,,,,,,,,,,,,,,,,,,,,,,,,,,,,,,,,,,,,,,,,,,,,,,,,,,,,,,,,,,,,,,,,,,,,,,,,,,,,,,,,,,,,,,,,,,,,,
,,60131babd3a5ad18ed8b15a3,2022-09-08_12h56.38.530,CGTgamblingSpanTasks,2022.2.1,Win32,60.08893162,,,,,,,,2.8615,,,,,,,,,,,,,,2,v,1.1385,6.29,0,3.8615,1,0,26,26,24,1,11.43,0,6.29,0,,,,,,,,,,,,,,,,,,,,,,,,,,,,,,,,,,,,,,,,,,,,,,,,,,,,,,,,,,,,,,,,,,,,,,,,,,,,,,,,,,,,,,,,,,,,,,,,,,
,,60131babd3a5ad18ed8b15a3,2022-09-08_12h56.38.530,CGTgamblingSpanTasks,2022.2.1,Win32,60.08893162,,,,,,,,2.878,,,,,,,,,,,,,,2,v,1.122,10.02,0,3.878,1,0,27,27,31,1,15.96,0,10.02,0,,,,,,,,,,,,,,,,,,,,,,,,,,,,,,,,,,,,,,,,,,,,,,,,,,,,,,,,,,,,,,,,,,,,,,,,,,,,,,,,,,,,,,,,,,,,,,,,,,
,,60131babd3a5ad18ed8b15a3,2022-09-08_12h56.38.530,CGTgamblingSpanTasks,2022.2.1,Win32,60.08893162,,,,,,,,3.0141,,,,,,,,,,,,,,2,v,0.9859,10.25,0,4.0141,1,0,28,28,46,1,0,0,10.25,1,,,,,,,,,,,,,,,,,,,,,,,,,,,,,,,,,,,,,,,,,,,,,,,,,,,,,,,,,,,,,,,,,,,,,,,,,,,,,,,,,,,,,,,,,,,,,,,,,,
,,60131babd3a5ad18ed8b15a3,2022-09-08_12h56.38.530,CGTgamblingSpanTasks,2022.2.1,Win32,60.08893162,,,,,,,,2.6673,,,,,,,,,,,,,,2,n,1.3327,16.11,1,3.6673,1,0,29,29,43,1,16.11,6.99,6.99,1,,,,,,,,,,,,,,,,,,,,,,,,,,,,,,,,,,,,,,,,,,,,,,,,,,,,,,,,,,,,,,,,,,,,,,,,,,,,,,,,,,,,,,,,,,,,,,,,,,
,,60131babd3a5ad18ed8b15a3,2022-09-08_12h56.38.530,CGTgamblingSpanTasks,2022.2.1,Win32,60.08893162,,,,,,,,2.8644,,,,,,,,,,,,,,2,v,1.1356,6.73,0,3.8644,1,0,30,30,32,1,10.55,0,6.73,0,,,,,,,,,,,,,,,,,,,,,,,,,,,,,,,,,,,,,,,,,,,,,,,,,,,,,,,,,,,,,,,,,,,,,,,,,,,,,,,,,,,,,,,,,,,,,,,,,,
,,60131babd3a5ad18ed8b15a3,2022-09-08_12h56.38.530,CGTgamblingSpanTasks,2022.2.1,Win32,60.08893162,,,,,,,,2.9494,,,,,,,,,,,,,,1,n,1.0506,8.07,0,4.4494,1.5,0,31,31,11,1,19.86,0,8.07,0,,,,,,,,,,,,,,,,,,,,,,,,,,,,,,,,,,,,,,,,,,,,,,,,,,,,,,,,,,,,,,,,,,,,,,,,,,,,,,,,,,,,,,,,,,,,,,,,,,
,,60131babd3a5ad18ed8b15a3,2022-09-08_12h56.38.530,CGTgamblingSpanTasks,2022.2.1,Win32,60.08893162,,,,,,,,2.9661,,,,,,,,,,,,,,2,v,1.0339,6.53,0,4.4661,1.5,0,32,32,28,1,10.95,0,6.53,0,,,,,,,,,,,,,,,,,,,,,,,,,,,,,,,,,,,,,,,,,,,,,,,,,,,,,,,,,,,,,,,,,,,,,,,,,,,,,,,,,,,,,,,,,,,,,,,,,,
,,60131babd3a5ad18ed8b15a3,2022-09-08_12h56.38.530,CGTgamblingSpanTasks,2022.2.1,Win32,60.08893162,,,,,,,,2.6515,,,,,,,,,,,,,,2,v,1.3485,10.27,0,4.1515,1.5,0,33,33,35,1,15.47,0,10.27,0,,,,,,,,,,,,,,,,,,,,,,,,,,,,,,,,,,,,,,,,,,,,,,,,,,,,,,,,,,,,,,,,,,,,,,,,,,,,,,,,,,,,,,,,,,,,,,,,,,
,,60131babd3a5ad18ed8b15a3,2022-09-08_12h56.38.530,CGTgamblingSpanTasks,2022.2.1,Win32,60.08893162,,,,,,,,2.3479,,,,,,,,,,,,,,2,n,1.6521,13.45,1,3.3479,1,0,34,34,10,1,13.45,0,5.27,0,,,,,,,,,,,,,,,,,,,,,,,,,,,,,,,,,,,,,,,,,,,,,,,,,,,,,,,,,,,,,,,,,,,,,,,,,,,,,,,,,,,,,,,,,,,,,,,,,,
,,60131babd3a5ad18ed8b15a3,2022-09-08_12h56.38.530,CGTgamblingSpanTasks,2022.2.1,Win32,60.08893162,,,,,,,,2.9325,,,,,,,,,,,,,,2,v,1.0675,9.92,0,4.4325,1.5,0,35,35,49,1,6.79,0,9.92,1,,,,,,,,,,,,,,,,,,,,,,,,,,,,,,,,,,,,,,,,,,,,,,,,,,,,,,,,,,,,,,,,,,,,,,,,,,,,,,,,,,,,,,,,,,,,,,,,,,
,,60131babd3a5ad18ed8b15a3,2022-09-08_12h56.38.530,CGTgamblingSpanTasks,2022.2.1,Win32,60.08893162,,,,,,,,2.8986,,,,,,,,,,,,,,1,v,1.1014,10.35,1,3.8986,1,0,36,36,40,1,10.35,0,0,1,,,,,,,,,,,,,,,,,,,,,,,,,,,,,,,,,,,,,,,,,,,,,,,,,,,,,,,,,,,,,,,,,,,,,,,,,,,,,,,,,,,,,,,,,,,,,,,,,,
,,60131babd3a5ad18ed8b15a3,2022-09-08_12h56.38.530,CGTgamblingSpanTasks,2022.2.1,Win32,60.08893162,,,,,,,,2.9137,,,,,,,,,,,,,,2,v,1.0863,9.2,0,4.4137,1.5,0,37,37,21,1,17.59,0,9.2,0,,,,,,,,,,,,,,,,,,,,,,,,,,,,,,,,,,,,,,,,,,,,,,,,,,,,,,,,,,,,,,,,,,,,,,,,,,,,,,,,,,,,,,,,,,,,,,,,,,
,,60131babd3a5ad18ed8b15a3,2022-09-08_12h56.38.530,CGTgamblingSpanTasks,2022.2.1,Win32,60.08893162,,,,,,,,2.845,,,,,,,,,,,,,,2,n,1.155,0,1,4.345,1.5,0,38,38,3,1,25.2,0,5.4,0,,,,,,,,,,,,,,,,,,,,,,,,,,,,,,,,,,,,,,,,,,,,,,,,,,,,,,,,,,,,,,,,,,,,,,,,,,,,,,,,,,,,,,,,,,,,,,,,,,
,,60131babd3a5ad18ed8b15a3,2022-09-08_12h56.38.530,CGTgamblingSpanTasks,2022.2.1,Win32,60.08893162,,,,,,,,2.8313,,,,,,,,,,,,,,2,v,1.1687,9.5,0,4.3313,1.5,0,39,39,25,1,17,0,9.5,0,,,,,,,,,,,,,,,,,,,,,,,,,,,,,,,,,,,,,,,,,,,,,,,,,,,,,,,,,,,,,,,,,,,,,,,,,,,,,,,,,,,,,,,,,,,,,,,,,,
,,60131babd3a5ad18ed8b15a3,2022-09-08_12h56.38.530,CGTgamblingSpanTasks,2022.2.1,Win32,60.08893162,,,,,,,,3.1166,,,,,,,,,,,,,,2,v,0.8834,6.63,0,4.6166,1.5,0,40,40,30,1,10.73,0,6.63,0,,,,,,,,,,,,,,,,,,,,,,,,,,,,,,,,,,,,,,,,,,,,,,,,,,,,,,,,,,,,,,,,,,,,,,,,,,,,,,,,,,,,,,,,,,,,,,,,,,
,,60131babd3a5ad18ed8b15a3,2022-09-08_12h56.38.530,CGTgamblingSpanTasks,2022.2.1,Win32,60.08893162,,,,,,,,3.1631,,,,,,,,,,,,,,2,v,0.8369,9.36,0,4.1631,1,0,41,41,23,1,17.28,0,9.36,0,,,,,,,,,,,,,,,,,,,,,,,,,,,,,,,,,,,,,,,,,,,,,,,,,,,,,,,,,,,,,,,,,,,,,,,,,,,,,,,,,,,,,,,,,,,,,,,,,,
,,60131babd3a5ad18ed8b15a3,2022-09-08_12h56.38.530,CGTgamblingSpanTasks,2022.2.1,Win32,60.08893162,,,,,,,,2.6834,,,,,,,,,,,,,,1,n,1.3166,10.46,0,3.6834,1,0,42,42,39,1,15.09,0,10.46,0,,,,,,,,,,,,,,,,,,,,,,,,,,,,,,,,,,,,,,,,,,,,,,,,,,,,,,,,,,,,,,,,,,,,,,,,,,,,,,,,,,,,,,,,,,,,,,,,,,
,,60131babd3a5ad18ed8b15a3,2022-09-08_12h56.38.530,CGTgamblingSpanTasks,2022.2.1,Win32,60.08893162,,,,,,,,3.0985,,,,,,,,,,,,,,2,v,0.9015,5.66,0,4.5985,1.5,0,43,43,14,1,12.68,0,5.66,0,,,,,,,,,,,,,,,,,,,,,,,,,,,,,,,,,,,,,,,,,,,,,,,,,,,,,,,,,,,,,,,,,,,,,,,,,,,,,,,,,,,,,,,,,,,,,,,,,,
,,60131babd3a5ad18ed8b15a3,2022-09-08_12h56.38.530,CGTgamblingSpanTasks,2022.2.1,Win32,60.08893162,,,,,,,,2.717,,,,,,,,,,,,,,1,n,1.283,5.03,0,4.217,1.5,0,44,44,8,1,13.94,0,5.03,0,,,,,,,,,,,,,,,,,,,,,,,,,,,,,,,,,,,,,,,,,,,,,,,,,,,,,,,,,,,,,,,,,,,,,,,,,,,,,,,,,,,,,,,,,,,,,,,,,,
,,60131babd3a5ad18ed8b15a3,2022-09-08_12h56.38.530,CGTgamblingSpanTasks,2022.2.1,Win32,60.08893162,,,,,,,,2.5302,,,,,,,,,,,,,,2,n,1.4698,0,1,4.0302,1.5,0,45,45,5,1,22.97,0,6.51,0,,,,,,,,,,,,,,,,,,,,,,,,,,,,,,,,,,,,,,,,,,,,,,,,,,,,,,,,,,,,,,,,,,,,,,,,,,,,,,,,,,,,,,,,,,,,,,,,,,
,,60131babd3a5ad18ed8b15a3,2022-09-08_12h56.38.530,CGTgamblingSpanTasks,2022.2.1,Win32,60.08893162,,,,,,,,2.899,,,,,,,,,,,,,,1,n,1.101,6.08,0,4.399,1.5,0,46,46,20,1,11.84,0,6.08,0,,,,,,,,,,,,,,,,,,,,,,,,,,,,,,,,,,,,,,,,,,,,,,,,,,,,,,,,,,,,,,,,,,,,,,,,,,,,,,,,,,,,,,,,,,,,,,,,,,
,,60131babd3a5ad18ed8b15a3,2022-09-08_12h56.38.530,CGTgamblingSpanTasks,2022.2.1,Win32,60.08893162,,,,,,,,2.9492,,,,,,,,,,,,,,1,n,1.0508,7.34,0,3.9492,1,0,47,47,7,1,21.32,0,7.34,0,,,,,,,,,,,,,,,,,,,,,,,,,,,,,,,,,,,,,,,,,,,,,,,,,,,,,,,,,,,,,,,,,,,,,,,,,,,,,,,,,,,,,,,,,,,,,,,,,,
,,60131babd3a5ad18ed8b15a3,2022-09-08_12h56.38.530,CGTgamblingSpanTasks,2022.2.1,Win32,60.08893162,,,,,,,,2.4593,,,,,,,,,,,,,,1,n,1.5407,9.03,0,3.9593,1.5,0,48,48,19,1,17.94,0,9.03,0,,,,,,,,,,,,,,,,,,,,,,,,,,,,,,,,,,,,,,,,,,,,,,,,,,,,,,,,,,,,,,,,,,,,,,,,,,,,,,,,,,,,,,,,,,,,,,,,,,
,,60131babd3a5ad18ed8b15a3,2022-09-08_12h56.38.530,CGTgamblingSpanTasks,2022.2.1,Win32,60.08893162,,,,,,,,3.0768,,,,,,,,,,,,,,1,n,0.9232,10.15,0,4.0768,1,0,49,49,33,1,15.7,0,10.15,0,,,,,,,,,,,,,,,,,,,,,,,,,,,,,,,,,,,,,,,,,,,,,,,,,,,,,,,,,,,,,,,,,,,,,,,,,,,,,,,,,,,,,,,,,,,,,,,,,,
,,60131babd3a5ad18ed8b15a3,2022-09-08_12h56.38.530,CGTgamblingSpanTasks,2022.2.1,Win32,60.08893162,,,,,,,,,,,,,,,,,,,,,,,,,,,,,,,,,,,,,,bespoke_choiceset_rhoInd038_muInd083.csv,bespoke_choicesets/bespoke_choiceset_rhoInd038_muInd083.csv,38,83,0,0,0,0,1,,,,,,,,,,,,,,,,,,,,,,,,,,,,,,,,,,,,,,,,,,,,,,,,,,,,,,,,,,,,,,,,,,,,,,,,,,,,,,,,,,,,,,,,,
,,60131babd3a5ad18ed8b15a3,2022-09-08_12h56.38.530,CGTgamblingSpanTasks,2022.2.1,Win32,60.08893162,,,,,,,,,,,,,,,,,,,,,,,,,,,,,,,,,,,,,,,,,,,,,,,,,,,,,,,,,,,,,,,,,,,,,,,,,,,,,,,,,,,,,,,,,,,,,,,,,,,,,,,,,,,,,,,,,,,,,,,,,,,,,,,,,,,,,,,
,,60131babd3a5ad18ed8b15a3,2022-09-08_12h56.38.530,CGTgamblingSpanTasks,2022.2.1,Win32,60.08893162,,,,,,,,,,,,,,,,,,,,,,,,,,,,,,,,,,,,,,,,,,,,,,,v,28.8886,,,,,,,,,,,,,,,,,,,,,,,,,,,,,,,,,,,,,,,,,,,,,,,,,,,,,,,,,,,,,,,,,,,,,,,,,,,,,,,,,,,,,,,
,,60131babd3a5ad18ed8b15a3,2022-09-08_12h56.38.530,CGTgamblingSpanTasks,2022.2.1,Win32,60.08893162,,,,,,,,2.7612,,,,,,,,,,,,,,2,n,1.2388,0,1,3.7612,1,,,,,,27.38828234,0,0.0639233,,,,,,,,,,,,,0,0,0,43,1,0.914010176,0,,,,,,,,,,,,,,,,,,,,,,,,,,,,,,,,,,,,,,,,,,,,,,,,,,,,,,,,,,,,,,,,,,,,,,,,,,,,,,,,
,,60131babd3a5ad18ed8b15a3,2022-09-08_12h56.38.530,CGTgamblingSpanTasks,2022.2.1,Win32,60.08893162,,,,,,,,2.95,,,,,,,,,,,,,,1,n,1.05,7.850775577,0,3.95,1,,,,,,4.622707531,0,7.850775577,,,,,,,,,,,,,0,1,1,6,1,0.017737407,0,,,,,,,,,,,,,,,,,,,,,,,,,,,,,,,,,,,,,,,,,,,,,,,,,,,,,,,,,,,,,,,,,,,,,,,,,,,,,,,,
,,60131babd3a5ad18ed8b15a3,2022-09-08_12h56.38.530,CGTgamblingSpanTasks,2022.2.1,Win32,60.08893162,,,,,,,,2.7766,,,,,,,,,,,,,,1,v,1.2234,0,1,4.2766,1.5,,,,,,13.4287264,0,1.317368801,,,,,,,,,,,,,0,2,2,100,1,0.502953125,1,,,,,,,,,,,,,,,,,,,,,,,,,,,,,,,,,,,,,,,,,,,,,,,,,,,,,,,,,,,,,,,,,,,,,,,,,,,,,,,,
,,60131babd3a5ad18ed8b15a3,2022-09-08_12h56.38.530,CGTgamblingSpanTasks,2022.2.1,Win32,60.08893162,,,,,,,,2.8822,,,,,,,,,,,,,,1,v,1.1178,0,1,4.3822,1.5,,,,,,17.5608285,0,1.825111303,,,,,,,,,,,,,0,3,3,104,1,0.487721116,1,,,,,,,,,,,,,,,,,,,,,,,,,,,,,,,,,,,,,,,,,,,,,,,,,,,,,,,,,,,,,,,,,,,,,,,,,,,,,,,,
,,60131babd3a5ad18ed8b15a3,2022-09-08_12h56.38.530,CGTgamblingSpanTasks,2022.2.1,Win32,60.08893162,,,,,,,,2.816,,,,,,,,,,,,,,2,n,1.184,0,1,3.816,1,,,,,,25.26994993,0,2.78925142,,,,,,,,,,,,,0,4,4,108,1,0.471582922,1,,,,,,,,,,,,,,,,,,,,,,,,,,,,,,,,,,,,,,,,,,,,,,,,,,,,,,,,,,,,,,,,,,,,,,,,,,,,,,,,
,,60131babd3a5ad18ed8b15a3,2022-09-08_12h56.38.530,CGTgamblingSpanTasks,2022.2.1,Win32,60.08893162,,,,,,,,2.9461,,,,,,,,,,,,,,1,v,1.0539,29.77342428,1,3.9461,1,,,,,,29.77342428,0,2.838865588,,,,,,,,,,,,,0,5,5,57,1,0.510363415,1,,,,,,,,,,,,,,,,,,,,,,,,,,,,,,,,,,,,,,,,,,,,,,,,,,,,,,,,,,,,,,,,,,,,,,,,,,,,,,,,
,,60131babd3a5ad18ed8b15a3,2022-09-08_12h56.38.530,CGTgamblingSpanTasks,2022.2.1,Win32,60.08893162,,,,,,,,2.9991,,,,,,,,,,,,,,2,n,1.0009,0,1,4.4991,1.5,,,,,,19.68065872,0,1.843597162,,,,,,,,,,,,,0,6,6,80,1,0.514941058,1,,,,,,,,,,,,,,,,,,,,,,,,,,,,,,,,,,,,,,,,,,,,,,,,,,,,,,,,,,,,,,,,,,,,,,,,,,,,,,,,
,,60131babd3a5ad18ed8b15a3,2022-09-08_12h56.38.530,CGTgamblingSpanTasks,2022.2.1,Win32,60.08893162,,,,,,,,2.6667,,,,,,,,,,,,,,2,v,1.3333,10.41201161,0,4.1667,1.5,,,,,,6.307062696,0,10.41201161,,,,,,,,,,,,,0,7,7,23,1,0.018187109,0,,,,,,,,,,,,,,,,,,,,,,,,,,,,,,,,,,,,,,,,,,,,,,,,,,,,,,,,,,,,,,,,,,,,,,,,,,,,,,,,
,,60131babd3a5ad18ed8b15a3,2022-09-08_12h56.38.530,CGTgamblingSpanTasks,2022.2.1,Win32,60.08893162,,,,,,,,2.2758,,,,,,,,,,,,,,1,v,1.7242,0,1,3.7758,1.5,,,,,,19.3050342,0,2.030232342,,,,,,,,,,,,,0,8,8,73,1,0.484573227,1,,,,,,,,,,,,,,,,,,,,,,,,,,,,,,,,,,,,,,,,,,,,,,,,,,,,,,,,,,,,,,,,,,,,,,,,,,,,,,,,
,,60131babd3a5ad18ed8b15a3,2022-09-08_12h56.38.530,CGTgamblingSpanTasks,2022.2.1,Win32,60.08893162,,,,,,,,2.9993,,,,,,,,,,,,,,2,v,1.0007,10.31611309,0,4.4993,1.5,,,,,,19.30622782,0,10.31611309,,,,,,,,,,,,,0,9,9,1,1,0.091105656,0,,,,,,,,,,,,,,,,,,,,,,,,,,,,,,,,,,,,,,,,,,,,,,,,,,,,,,,,,,,,,,,,,,,,,,,,,,,,,,,,
,,60131babd3a5ad18ed8b15a3,2022-09-08_12h56.38.530,CGTgamblingSpanTasks,2022.2.1,Win32,60.08893162,,,,,,,,2.7766,,,,,,,,,,,,,,2,n,1.2234,0,1,3.7766,1,,,,,,8.217594828,0,0.951019374,,,,,,,,,,,,,0,10,10,87,1,0.458722936,1,,,,,,,,,,,,,,,,,,,,,,,,,,,,,,,,,,,,,,,,,,,,,,,,,,,,,,,,,,,,,,,,,,,,,,,,,,,,,,,,
,,60131babd3a5ad18ed8b15a3,2022-09-08_12h56.38.530,CGTgamblingSpanTasks,2022.2.1,Win32,60.08893162,,,,,,,,3.0158,,,,,,,,,,,,,,1,v,0.9842,24.57684014,1,4.0158,1,,,,,,24.57684014,0,0.061756244,,,,,,,,,,,,,0,11,11,68,1,0.911988903,0,,,,,,,,,,,,,,,,,,,,,,,,,,,,,,,,,,,,,,,,,,,,,,,,,,,,,,,,,,,,,,,,,,,,,,,,,,,,,,,,
,,60131babd3a5ad18ed8b15a3,2022-09-08_12h56.38.530,CGTgamblingSpanTasks,2022.2.1,Win32,60.08893162,,,,,,,,3.0116,,,,,,,,,,,,,,2,n,0.9884,0,1,4.5116,1.5,,,,,,28.33977875,0,2.768313633,,,,,,,,,,,,,0,12,12,116,1,0.50406901,1,,,,,,,,,,,,,,,,,,,,,,,,,,,,,,,,,,,,,,,,,,,,,,,,,,,,,,,,,,,,,,,,,,,,,,,,,,,,,,,,
,,60131babd3a5ad18ed8b15a3,2022-09-08_12h56.38.530,CGTgamblingSpanTasks,2022.2.1,Win32,60.08893162,,,,,,,,2.9003,,,,,,,,,,,,,,1,v,1.0997,0,1,3.9003,1,,,,,,27.57491653,0,2.99133314,,,,,,,,,,,,,0,13,13,10,1,0.47625893,1,,,,,,,,,,,,,,,,,,,,,,,,,,,,,,,,,,,,,,,,,,,,,,,,,,,,,,,,,,,,,,,,,,,,,,,,,,,,,,,,
,,60131babd3a5ad18ed8b15a3,2022-09-08_12h56.38.530,CGTgamblingSpanTasks,2022.2.1,Win32,60.08893162,,,,,,,,2.8465,,,,,,,,,,,,,,2,n,1.1535,0,1,3.8465,1,,,,,,21.2188881,0,2.067660742,,,,,,,,,,,,,0,14,14,107,1,0.50470775,1,,,,,,,,,,,,,,,,,,,,,,,,,,,,,,,,,,,,,,,,,,,,,,,,,,,,,,,,,,,,,,,,,,,,,,,,,,,,,,,,
,,60131babd3a5ad18ed8b15a3,2022-09-08_12h56.38.530,CGTgamblingSpanTasks,2022.2.1,Win32,60.08893162,,,,,,,,3.0931,,,,,,,,,,,,,,2,n,0.9069,25.76582409,1,4.0931,1,,,,,,25.76582409,0,2.393193076,,,,,,,,,,,,,0,15,15,46,1,0.517129855,1,,,,,,,,,,,,,,,,,,,,,,,,,,,,,,,,,,,,,,,,,,,,,,,,,,,,,,,,,,,,,,,,,,,,,,,,,,,,,,,,
,,60131babd3a5ad18ed8b15a3,2022-09-08_12h56.38.530,CGTgamblingSpanTasks,2022.2.1,Win32,60.08893162,,,,,,,,2.9661,,,,,,,,,,,,,,2,v,1.0339,2.123581464,0,4.4661,1.5,,,,,,19.5450126,0,2.123581464,,,,,,,,,,,,,0,16,16,65,1,0.475836144,1,,,,,,,,,,,,,,,,,,,,,,,,,,,,,,,,,,,,,,,,,,,,,,,,,,,,,,,,,,,,,,,,,,,,,,,,,,,,,,,,
,,60131babd3a5ad18ed8b15a3,2022-09-08_12h56.38.530,CGTgamblingSpanTasks,2022.2.1,Win32,60.08893162,,,,,,,,2.9072,,,,,,,,,,,,,,1,v,1.0928,23.59556381,1,3.9072,1,,,,,,23.59556381,0,2.464662219,,,,,,,,,,,,,0,17,17,22,1,0.486383205,1,,,,,,,,,,,,,,,,,,,,,,,,,,,,,,,,,,,,,,,,,,,,,,,,,,,,,,,,,,,,,,,,,,,,,,,,,,,,,,,,
,,60131babd3a5ad18ed8b15a3,2022-09-08_12h56.38.530,CGTgamblingSpanTasks,2022.2.1,Win32,60.08893162,,,,,,,,3.0611,,,,,,,,,,,,,,2,v,0.9389,11.41737518,0,4.0611,1,,,,,,18.11029021,0,11.41737518,,,,,,,,,,,,,0,18,18,48,1,0.069445859,0,,,,,,,,,,,,,,,,,,,,,,,,,,,,,,,,,,,,,,,,,,,,,,,,,,,,,,,,,,,,,,,,,,,,,,,,,,,,,,,,
,,60131babd3a5ad18ed8b15a3,2022-09-08_12h56.38.530,CGTgamblingSpanTasks,2022.2.1,Win32,60.08893162,,,,,,,,3.1168,,,,,,,,,,,,,,1,n,0.8832,11.35147481,0,4.6168,1.5,,,,,,17.67865084,0,11.35147481,,,,,,,,,,,,,0,19,19,91,1,0.067304606,0,,,,,,,,,,,,,,,,,,,,,,,,,,,,,,,,,,,,,,,,,,,,,,,,,,,,,,,,,,,,,,,,,,,,,,,,,,,,,,,,
,,60131babd3a5ad18ed8b15a3,2022-09-08_12h56.38.530,CGTgamblingSpanTasks,2022.2.1,Win32,60.08893162,,,,,,,,3.1324,,,,,,,,,,,,,,2,n,0.8676,29.30724159,1,4.6324,1.5,,,,,,29.30724159,0,3.247012935,,,,,,,,,,,,,0,20,20,71,1,0.470571125,1,,,,,,,,,,,,,,,,,,,,,,,,,,,,,,,,,,,,,,,,,,,,,,,,,,,,,,,,,,,,,,,,,,,,,,,,,,,,,,,,
,,60131babd3a5ad18ed8b15a3,2022-09-08_12h56.38.530,CGTgamblingSpanTasks,2022.2.1,Win32,60.08893162,,,,,,,,3.1574,,,,,,,,,,,,,,2,n,0.8426,0,1,4.6574,1.5,,,,,,21.46599803,0,0.059789256,,,,,,,,,,,,,0,21,21,8,1,0.909019081,0,,,,,,,,,,,,,,,,,,,,,,,,,,,,,,,,,,,,,,,,,,,,,,,,,,,,,,,,,,,,,,,,,,,,,,,,,,,,,,,,
,,60131babd3a5ad18ed8b15a3,2022-09-08_12h56.38.530,CGTgamblingSpanTasks,2022.2.1,Win32,60.08893162,,,,,,,,3.0834,,,,,,,,,,,,,,1,v,0.9166,0,1,4.0834,1,,,,,,24.35708027,0,2.738695417,,,,,,,,,,,,,0,22,22,114,1,0.466573634,1,,,,,,,,,,,,,,,,,,,,,,,,,,,,,,,,,,,,,,,,,,,,,,,,,,,,,,,,,,,,,,,,,,,,,,,,,,,,,,,,
,,60131babd3a5ad18ed8b15a3,2022-09-08_12h56.38.530,CGTgamblingSpanTasks,2022.2.1,Win32,60.08893162,,,,,,,,2.9007,,,,,,,,,,,,,,1,v,1.0993,9.012590634,1,3.9007,1,,,,,,9.012590634,0,1.002188111,,,,,,,,,,,,,0,23,23,12,1,0.46958041,1,,,,,,,,,,,,,,,,,,,,,,,,,,,,,,,,,,,,,,,,,,,,,,,,,,,,,,,,,,,,,,,,,,,,,,,,,,,,,,,,
,,60131babd3a5ad18ed8b15a3,2022-09-08_12h56.38.530,CGTgamblingSpanTasks,2022.2.1,Win32,60.08893162,,,,,,,,3.0605,,,,,,,,,,,,,,2,n,0.9395,0,1,4.5605,1.5,,,,,,29.76099779,0,0.095763086,,,,,,,,,,,,,0,24,24,35,1,0.904537896,0,,,,,,,,,,,,,,,,,,,,,,,,,,,,,,,,,,,,,,,,,,,,,,,,,,,,,,,,,,,,,,,,,,,,,,,,,,,,,,,,
,,60131babd3a5ad18ed8b15a3,2022-09-08_12h56.38.530,CGTgamblingSpanTasks,2022.2.1,Win32,60.08893162,,,,,,,,2.9337,,,,,,,,,,,,,,1,n,1.0663,4.904872644,0,4.4337,1.5,,,,,,4.698775357,0,4.904872644,,,,,,,,,,,,,0,25,25,75,1,0.028064484,0,,,,,,,,,,,,,,,,,,,,,,,,,,,,,,,,,,,,,,,,,,,,,,,,,,,,,,,,,,,,,,,,,,,,,,,,,,,,,,,,
,,60131babd3a5ad18ed8b15a3,2022-09-08_12h56.38.530,CGTgamblingSpanTasks,2022.2.1,Win32,60.08893162,,,,,,,,2.9828,,,,,,,,,,,,,,1,v,1.0172,27.2532142,1,4.4828,1.5,,,,,,27.2532142,0,0.08089327,,,,,,,,,,,,,0,26,26,119,1,0.907091845,0,,,,,,,,,,,,,,,,,,,,,,,,,,,,,,,,,,,,,,,,,,,,,,,,,,,,,,,,,,,,,,,,,,,,,,,,,,,,,,,,
,,60131babd3a5ad18ed8b15a3,2022-09-08_12h56.38.530,CGTgamblingSpanTasks,2022.2.1,Win32,60.08893162,,,,,,,,2.9939,,,,,,,,,,,,,,2,v,1.0061,6.781500919,0,3.9939,1,,,,,,8.363821911,0,6.781500919,,,,,,,,,,,,,0,27,27,61,1,0.044227959,0,,,,,,,,,,,,,,,,,,,,,,,,,,,,,,,,,,,,,,,,,,,,,,,,,,,,,,,,,,,,,,,,,,,,,,,,,,,,,,,,
,,60131babd3a5ad18ed8b15a3,2022-09-08_12h56.38.530,CGTgamblingSpanTasks,2022.2.1,Win32,60.08893162,,,,,,,,2.8667,,,,,,,,,,,,,,1,v,1.1333,22.62475578,1,4.3667,1.5,,,,,,22.62475578,0,2.397643354,,,,,,,,,,,,,0,28,28,93,1,0.482527609,1,,,,,,,,,,,,,,,,,,,,,,,,,,,,,,,,,,,,,,,,,,,,,,,,,,,,,,,,,,,,,,,,,,,,,,,,,,,,,,,,
,,60131babd3a5ad18ed8b15a3,2022-09-08_12h56.38.530,CGTgamblingSpanTasks,2022.2.1,Win32,60.08893162,,,,,,,,2.6505,,,,,,,,,,,,,,1,v,1.3495,24.479109,1,4.1505,1.5,,,,,,24.479109,0,0.089582697,,,,,,,,,,,,,0,29,29,89,1,0.900200232,0,,,,,,,,,,,,,,,,,,,,,,,,,,,,,,,,,,,,,,,,,,,,,,,,,,,,,,,,,,,,,,,,,,,,,,,,,,,,,,,,
,,60131babd3a5ad18ed8b15a3,2022-09-08_12h56.38.530,CGTgamblingSpanTasks,2022.2.1,Win32,60.08893162,,,,,,,,3.1038,,,,,,,,,,,,,,1,n,0.8962,10.68505773,0,4.1038,1,,,,,,17.64114152,0,10.68505773,,,,,,,,,,,,,0,30,30,98,1,0.074299362,0,,,,,,,,,,,,,,,,,,,,,,,,,,,,,,,,,,,,,,,,,,,,,,,,,,,,,,,,,,,,,,,,,,,,,,,,,,,,,,,,
,,60131babd3a5ad18ed8b15a3,2022-09-08_12h56.38.530,CGTgamblingSpanTasks,2022.2.1,Win32,60.08893162,,,,,,,,3.0835,,,,,,,,,,,,,,1,v,0.9165,11.16819157,1,4.5835,1.5,,,,,,11.16819157,0,0.941456753,,,,,,,,,,,,,0,31,31,45,1,0.54163803,1,,,,,,,,,,,,,,,,,,,,,,,,,,,,,,,,,,,,,,,,,,,,,,,,,,,,,,,,,,,,,,,,,,,,,,,,,,,,,,,,
,,60131babd3a5ad18ed8b15a3,2022-09-08_12h56.38.530,CGTgamblingSpanTasks,2022.2.1,Win32,60.08893162,,,,,,,,2.9984,,,,,,,,,,,,,,2,n,1.0016,21.39646914,1,4.4984,1.5,,,,,,21.39646914,0,0.072474078,,,,,,,,,,,,,0,32,32,3,1,0.902848133,0,,,,,,,,,,,,,,,,,,,,,,,,,,,,,,,,,,,,,,,,,,,,,,,,,,,,,,,,,,,,,,,,,,,,,,,,,,,,,,,,
,,60131babd3a5ad18ed8b15a3,2022-09-08_12h56.38.530,CGTgamblingSpanTasks,2022.2.1,Win32,60.08893162,,,,,,,,3.2333,,,,,,,,,,,,,,1,v,0.7667,0,1,4.7333,1.5,,,,,,24.8002852,0,0.071848086,,,,,,,,,,,,,0,33,33,16,1,0.90783559,0,,,,,,,,,,,,,,,,,,,,,,,,,,,,,,,,,,,,,,,,,,,,,,,,,,,,,,,,,,,,,,,,,,,,,,,,,,,,,,,,
,,60131babd3a5ad18ed8b15a3,2022-09-08_12h56.38.530,CGTgamblingSpanTasks,2022.2.1,Win32,60.08893162,,,,,,,,2.9777,,,,,,,,,,,,,,1,n,1.0223,4.462262453,0,3.9777,1,,,,,,0.192759042,0,4.462262453,,,,,,,,,,,,,0,34,34,52,1,0.003553223,0,,,,,,,,,,,,,,,,,,,,,,,,,,,,,,,,,,,,,,,,,,,,,,,,,,,,,,,,,,,,,,,,,,,,,,,,,,,,,,,,
,,60131babd3a5ad18ed8b15a3,2022-09-08_12h56.38.530,CGTgamblingSpanTasks,2022.2.1,Win32,60.08893162,,,,,,,,2.9098,,,,,,,,,,,,,,2,v,1.0902,5.526483034,0,4.4098,1.5,,,,,,9.725876653,0,5.526483034,,,,,,,,,,,,,0,35,35,44,1,0.082550696,0,,,,,,,,,,,,,,,,,,,,,,,,,,,,,,,,,,,,,,,,,,,,,,,,,,,,,,,,,,,,,,,,,,,,,,,,,,,,,,,,
,,60131babd3a5ad18ed8b15a3,2022-09-08_12h56.38.530,CGTgamblingSpanTasks,2022.2.1,Win32,60.08893162,,,,,,,,3.1339,,,,,,,,,,,,,,1,n,0.8661,11.42134125,0,4.1339,1,,,,,,12.9904115,0,11.42134125,,,,,,,,,,,,,0,36,36,118,1,0.037876033,0,,,,,,,,,,,,,,,,,,,,,,,,,,,,,,,,,,,,,,,,,,,,,,,,,,,,,,,,,,,,,,,,,,,,,,,,,,,,,,,,
,,60131babd3a5ad18ed8b15a3,2022-09-08_12h56.38.530,CGTgamblingSpanTasks,2022.2.1,Win32,60.08893162,,,,,,,,2.2999,,,,,,,,,,,,,,1,v,1.7001,8.670591867,1,3.2999,1,,,,,,8.670591867,0,1.025847652,,,,,,,,,,,,,0,37,37,18,1,0.452680459,1,,,,,,,,,,,,,,,,,,,,,,,,,,,,,,,,,,,,,,,,,,,,,,,,,,,,,,,,,,,,,,,,,,,,,,,,,,,,,,,,
,,60131babd3a5ad18ed8b15a3,2022-09-08_12h56.38.530,CGTgamblingSpanTasks,2022.2.1,Win32,60.08893162,,,,,,,,3.0246,,,,,,,,,,,,,,1,v,0.9754,26.4985979,1,4.0246,1,,,,,,26.4985979,0,0.051324376,,,,,,,,,,,,,0,38,38,106,1,0.918747215,0,,,,,,,,,,,,,,,,,,,,,,,,,,,,,,,,,,,,,,,,,,,,,,,,,,,,,,,,,,,,,,,,,,,,,,,,,,,,,,,,
,,60131babd3a5ad18ed8b15a3,2022-09-08_12h56.38.530,CGTgamblingSpanTasks,2022.2.1,Win32,60.08893162,,,,,,,,2.9407,,,,,,,,,,,,,,1,v,1.0593,0,1,3.9407,1,,,,,,27.77179191,0,0.074524436,,,,,,,,,,,,,0,39,39,99,1,0.910114387,0,,,,,,,,,,,,,,,,,,,,,,,,,,,,,,,,,,,,,,,,,,,,,,,,,,,,,,,,,,,,,,,,,,,,,,,,,,,,,,,,
,,60131babd3a5ad18ed8b15a3,2022-09-08_12h56.38.530,CGTgamblingSpanTasks,2022.2.1,Win32,60.08893162,,,,,,,,3.0003,,,,,,,,,,,,,,1,v,0.9997,0,1,4.0003,1,,,,,,27.93093084,0,0.050207531,,,,,,,,,,,,,0,40,40,83,1,0.920505936,0,,,,,,,,,,,,,,,,,,,,,,,,,,,,,,,,,,,,,,,,,,,,,,,,,,,,,,,,,,,,,,,,,,,,,,,,,,,,,,,,
,,60131babd3a5ad18ed8b15a3,2022-09-08_12h56.38.530,CGTgamblingSpanTasks,2022.2.1,Win32,60.08893162,,,,,,,,2.5,,,,,,,,,,,,,,2,n,1.5,27.7711693,1,3.5,1,,,,,,27.7711693,0,2.320849632,,,,,,,,,,,,,0,41,41,94,1,0.543786368,1,,,,,,,,,,,,,,,,,,,,,,,,,,,,,,,,,,,,,,,,,,,,,,,,,,,,,,,,,,,,,,,,,,,,,,,,,,,,,,,,
,,60131babd3a5ad18ed8b15a3,2022-09-08_12h56.38.530,CGTgamblingSpanTasks,2022.2.1,Win32,60.08893162,,,,,,,,2.9759,,,,,,,,,,,,,,2,v,1.0241,11.19311486,0,3.9759,1,,,,,,8.17598802,0,11.19311486,,,,,,,,,,,,,0,42,42,110,1,0.021568003,0,,,,,,,,,,,,,,,,,,,,,,,,,,,,,,,,,,,,,,,,,,,,,,,,,,,,,,,,,,,,,,,,,,,,,,,,,,,,,,,,
,,60131babd3a5ad18ed8b15a3,2022-09-08_12h56.38.530,CGTgamblingSpanTasks,2022.2.1,Win32,60.08893162,,,,,,,,2.8928,,,,,,,,,,,,,,1,v,1.1072,0,1,3.8928,1,,,,,,22.0050376,0,2.257683666,,,,,,,,,,,,,0,43,43,4,1,0.491147312,1,,,,,,,,,,,,,,,,,,,,,,,,,,,,,,,,,,,,,,,,,,,,,,,,,,,,,,,,,,,,,,,,,,,,,,,,,,,,,,,,
,,60131babd3a5ad18ed8b15a3,2022-09-08_12h56.38.530,CGTgamblingSpanTasks,2022.2.1,Win32,60.08893162,,,,,,,,3.1438,,,,,,,,,,,,,,1,v,0.8562,27.94544945,1,4.1438,1,,,,,,27.94544945,0,2.32030209,,,,,,,,,,,,,0,44,44,115,1,0.545390564,1,,,,,,,,,,,,,,,,,,,,,,,,,,,,,,,,,,,,,,,,,,,,,,,,,,,,,,,,,,,,,,,,,,,,,,,,,,,,,,,,
,,60131babd3a5ad18ed8b15a3,2022-09-08_12h56.38.530,CGTgamblingSpanTasks,2022.2.1,Win32,60.08893162,,,,,,,,2.5163,,,,,,,,,,,,,,2,n,1.4837,0,1,3.5163,1,,,,,,7.534278541,0,0.747140182,,,,,,,,,,,,,0,45,45,37,1,0.50012466,1,,,,,,,,,,,,,,,,,,,,,,,,,,,,,,,,,,,,,,,,,,,,,,,,,,,,,,,,,,,,,,,,,,,,,,,,,,,,,,,,
,,60131babd3a5ad18ed8b15a3,2022-09-08_12h56.38.530,CGTgamblingSpanTasks,2022.2.1,Win32,60.08893162,,,,,,,,3.0447,,,,,,,,,,,,,,2,n,0.9553,28.94627214,1,4.0447,1,,,,,,28.94627214,0,2.701896413,,,,,,,,,,,,,0,46,46,111,1,0.515860759,1,,,,,,,,,,,,,,,,,,,,,,,,,,,,,,,,,,,,,,,,,,,,,,,,,,,,,,,,,,,,,,,,,,,,,,,,,,,,,,,,
,,60131babd3a5ad18ed8b15a3,2022-09-08_12h56.38.530,CGTgamblingSpanTasks,2022.2.1,Win32,60.08893162,,,,,,,,2.4405,,,,,,,,,,,,,,1,v,1.5595,0,1,3.4405,1,,,,,,15.43649625,0,1.65459324,,,,,,,,,,,,,0,47,47,33,1,0.479480163,1,,,,,,,,,,,,,,,,,,,,,,,,,,,,,,,,,,,,,,,,,,,,,,,,,,,,,,,,,,,,,,,,,,,,,,,,,,,,,,,,
,,60131babd3a5ad18ed8b15a3,2022-09-08_12h56.38.530,CGTgamblingSpanTasks,2022.2.1,Win32,60.08893162,,,,,,,,3.1436,,,,,,,,,,,,,,1,v,0.8564,25.0707644,1,4.1436,1,,,,,,25.0707644,0,0.067651625,,,,,,,,,,,,,0,48,48,70,1,0.909952349,0,,,,,,,,,,,,,,,,,,,,,,,,,,,,,,,,,,,,,,,,,,,,,,,,,,,,,,,,,,,,,,,,,,,,,,,,,,,,,,,,
,,60131babd3a5ad18ed8b15a3,2022-09-08_12h56.38.530,CGTgamblingSpanTasks,2022.2.1,Win32,60.08893162,,,,,,,,2.9001,,,,,,,,,,,,,,1,n,1.0999,7.50753835,0,4.4001,1.5,,,,,,2.231316635,0,7.50753835,,,,,,,,,,,,,0,49,49,29,1,0.010273427,0,,,,,,,,,,,,,,,,,,,,,,,,,,,,,,,,,,,,,,,,,,,,,,,,,,,,,,,,,,,,,,,,,,,,,,,,,,,,,,,,
,,60131babd3a5ad18ed8b15a3,2022-09-08_12h56.38.530,CGTgamblingSpanTasks,2022.2.1,Win32,60.08893162,,,,,,,,2.8831,,,,,,,,,,,,,,1,v,1.1169,23.24777057,1,4.3831,1.5,,,,,,23.24777057,0,2.003482335,,,,,,,,,,,,,0,50,50,59,1,0.536135174,1,,,,,,,,,,,,,,,,,,,,,,,,,,,,,,,,,,,,,,,,,,,,,,,,,,,,,,,,,,,,,,,,,,,,,,,,,,,,,,,,
,,60131babd3a5ad18ed8b15a3,2022-09-08_12h56.38.530,CGTgamblingSpanTasks,2022.2.1,Win32,60.08893162,,,,,,,,2.749,,,,,,,,,,,,,,1,n,1.251,8.579385201,0,3.749,1,,,,,,14.11762686,0,8.579385201,,,,,,,,,,,,,0,51,51,60,1,0.073886959,0,,,,,,,,,,,,,,,,,,,,,,,,,,,,,,,,,,,,,,,,,,,,,,,,,,,,,,,,,,,,,,,,,,,,,,,,,,,,,,,,
,,60131babd3a5ad18ed8b15a3,2022-09-08_12h56.38.530,CGTgamblingSpanTasks,2022.2.1,Win32,60.08893162,,,,,,,,3.1442,,,,,,,,,,,,,,1,v,0.8558,25.56803059,1,4.6442,1.5,,,,,,25.56803059,0,2.543951743,,,,,,,,,,,,,0,52,52,41,1,0.499247217,1,,,,,,,,,,,,,,,,,,,,,,,,,,,,,,,,,,,,,,,,,,,,,,,,,,,,,,,,,,,,,,,,,,,,,,,,,,,,,,,,
,,60131babd3a5ad18ed8b15a3,2022-09-08_12h56.38.530,CGTgamblingSpanTasks,2022.2.1,Win32,60.08893162,,,,,,,,3.1158,,,,,,,,,,,,,,2,v,0.8842,9.936178001,0,4.6158,1.5,,,,,,19.58698544,0,9.936178001,,,,,,,,,,,,,0,53,53,77,1,0.098812204,0,,,,,,,,,,,,,,,,,,,,,,,,,,,,,,,,,,,,,,,,,,,,,,,,,,,,,,,,,,,,,,,,,,,,,,,,,,,,,,,,
,,60131babd3a5ad18ed8b15a3,2022-09-08_12h56.38.530,CGTgamblingSpanTasks,2022.2.1,Win32,60.08893162,,,,,,,,2.5068,,,,,,,,,,,,,,2,n,1.4932,27.88092897,1,4.0068,1.5,,,,,,27.88092897,0,2.771762788,,,,,,,,,,,,,0,54,54,117,1,0.499466648,1,,,,,,,,,,,,,,,,,,,,,,,,,,,,,,,,,,,,,,,,,,,,,,,,,,,,,,,,,,,,,,,,,,,,,,,,,,,,,,,,
,,60131babd3a5ad18ed8b15a3,2022-09-08_12h56.38.530,CGTgamblingSpanTasks,2022.2.1,Win32,60.08893162,,,,,,,,3.1612,,,,,,,,,,,,,,1,v,0.8388,0,1,4.6612,1.5,,,,,,17.30137174,0,1.716380842,,,,,,,,,,,,,0,55,55,20,1,0.500020285,1,,,,,,,,,,,,,,,,,,,,,,,,,,,,,,,,,,,,,,,,,,,,,,,,,,,,,,,,,,,,,,,,,,,,,,,,,,,,,,,,
,,60131babd3a5ad18ed8b15a3,2022-09-08_12h56.38.530,CGTgamblingSpanTasks,2022.2.1,Win32,60.08893162,,,,,,,,2.8294,,,,,,,,,,,,,,1,n,1.1706,3.877530383,0,4.3294,1.5,,,,,,3.471484939,0,3.877530383,,,,,,,,,,,,,0,56,56,40,1,0.02623078,0,,,,,,,,,,,,,,,,,,,,,,,,,,,,,,,,,,,,,,,,,,,,,,,,,,,,,,,,,,,,,,,,,,,,,,,,,,,,,,,,
,,60131babd3a5ad18ed8b15a3,2022-09-08_12h56.38.530,CGTgamblingSpanTasks,2022.2.1,Win32,60.08893162,,,,,,,,3.2108,,,,,,,,,,,,,,1,v,0.7892,0,1,4.7108,1.5,,,,,,11.08143071,0,1.207538756,,,,,,,,,,,,,0,57,57,84,1,0.475047453,1,,,,,,,,,,,,,,,,,,,,,,,,,,,,,,,,,,,,,,,,,,,,,,,,,,,,,,,,,,,,,,,,,,,,,,,,,,,,,,,,
,,60131babd3a5ad18ed8b15a3,2022-09-08_12h56.38.530,CGTgamblingSpanTasks,2022.2.1,Win32,60.08893162,,,,,,,,3.0837,,,,,,,,,,,,,,1,v,0.9163,27.53810185,1,4.0837,1,,,,,,27.53810185,0,0.097022401,,,,,,,,,,,,,0,58,58,50,1,0.901515865,0,,,,,,,,,,,,,,,,,,,,,,,,,,,,,,,,,,,,,,,,,,,,,,,,,,,,,,,,,,,,,,,,,,,,,,,,,,,,,,,,
,,60131babd3a5ad18ed8b15a3,2022-09-08_12h56.38.530,CGTgamblingSpanTasks,2022.2.1,Win32,60.08893162,,,,,,,,3.2477,,,,,,,,,,,,,,1,v,0.7523,0,1,4.2477,1,,,,,,28.14876717,0,3.117906378,,,,,,,,,,,,,0,59,59,76,1,0.470636736,1,,,,,,,,,,,,,,,,,,,,,,,,,,,,,,,,,,,,,,,,,,,,,,,,,,,,,,,,,,,,,,,,,,,,,,,,,,,,,,,,
,,60131babd3a5ad18ed8b15a3,2022-09-08_12h56.38.530,CGTgamblingSpanTasks,2022.2.1,Win32,60.08893162,,,,,,,,3.148,,,,,,,,,,,,,,2,n,0.852,29.75778644,1,4.148,1,,,,,,29.75778644,0,2.810531415,,,,,,,,,,,,,0,60,60,113,1,0.512824233,1,,,,,,,,,,,,,,,,,,,,,,,,,,,,,,,,,,,,,,,,,,,,,,,,,,,,,,,,,,,,,,,,,,,,,,,,,,,,,,,,
,,60131babd3a5ad18ed8b15a3,2022-09-08_12h56.38.530,CGTgamblingSpanTasks,2022.2.1,Win32,60.08893162,,,,,,,,3.0003,,,,,,,,,,,,,,2,n,0.9997,25.54604005,1,4.0003,1,,,,,,25.54604005,0,0.088845411,,,,,,,,,,,,,0,61,61,79,1,0.901957831,0,,,,,,,,,,,,,,,,,,,,,,,,,,,,,,,,,,,,,,,,,,,,,,,,,,,,,,,,,,,,,,,,,,,,,,,,,,,,,,,,
,,60131babd3a5ad18ed8b15a3,2022-09-08_12h56.38.530,CGTgamblingSpanTasks,2022.2.1,Win32,60.08893162,,,,,,,,3.2936,,,,,,,,,,,,,,2,n,0.7064,21.48443242,1,4.2936,1,,,,,,21.48443242,0,2.229247341,,,,,,,,,,,,,0,62,62,63,1,0.488155912,1,,,,,,,,,,,,,,,,,,,,,,,,,,,,,,,,,,,,,,,,,,,,,,,,,,,,,,,,,,,,,,,,,,,,,,,,,,,,,,,,
,,60131babd3a5ad18ed8b15a3,2022-09-08_12h56.38.530,CGTgamblingSpanTasks,2022.2.1,Win32,60.08893162,,,,,,,,3.0003,,,,,,,,,,,,,,1,v,0.9997,0,1,4.5003,1.5,,,,,,27.4965044,0,2.461467004,,,,,,,,,,,,,0,63,63,36,1,0.526550878,1,,,,,,,,,,,,,,,,,,,,,,,,,,,,,,,,,,,,,,,,,,,,,,,,,,,,,,,,,,,,,,,,,,,,,,,,,,,,,,,,
,,60131babd3a5ad18ed8b15a3,2022-09-08_12h56.38.530,CGTgamblingSpanTasks,2022.2.1,Win32,60.08893162,,,,,,,,2.8932,,,,,,,,,,,,,,2,v,1.1068,11.39288827,0,4.3932,1.5,,,,,,20.97851654,0,11.39288827,,,,,,,,,,,,,0,64,64,2,1,0.088791079,0,,,,,,,,,,,,,,,,,,,,,,,,,,,,,,,,,,,,,,,,,,,,,,,,,,,,,,,,,,,,,,,,,,,,,,,,,,,,,,,,
,,60131babd3a5ad18ed8b15a3,2022-09-08_12h56.38.530,CGTgamblingSpanTasks,2022.2.1,Win32,60.08893162,,,,,,,,3.1492,,,,,,,,,,,,,,1,v,0.8508,0,1,4.6492,1.5,,,,,,22.86604061,0,2.293289792,,,,,,,,,,,,,0,65,65,51,1,0.49715382,1,,,,,,,,,,,,,,,,,,,,,,,,,,,,,,,,,,,,,,,,,,,,,,,,,,,,,,,,,,,,,,,,,,,,,,,,,,,,,,,,
,,60131babd3a5ad18ed8b15a3,2022-09-08_12h56.38.530,CGTgamblingSpanTasks,2022.2.1,Win32,60.08893162,,,,,,,,2.9995,,,,,,,,,,,,,,1,v,1.0005,0,1,3.9995,1,,,,,,20.31034258,0,1.870404296,,,,,,,,,,,,,0,66,66,85,1,0.519325853,1,,,,,,,,,,,,,,,,,,,,,,,,,,,,,,,,,,,,,,,,,,,,,,,,,,,,,,,,,,,,,,,,,,,,,,,,,,,,,,,,
,,60131babd3a5ad18ed8b15a3,2022-09-08_12h56.38.530,CGTgamblingSpanTasks,2022.2.1,Win32,60.08893162,,,,,,,,3.1994,,,,,,,,,,,,,,1,v,0.8006,0,1,4.6994,1.5,,,,,,26.16821818,0,0.093528069,,,,,,,,,,,,,0,67,67,42,1,0.901022427,0,,,,,,,,,,,,,,,,,,,,,,,,,,,,,,,,,,,,,,,,,,,,,,,,,,,,,,,,,,,,,,,,,,,,,,,,,,,,,,,,
,,60131babd3a5ad18ed8b15a3,2022-09-08_12h56.38.530,CGTgamblingSpanTasks,2022.2.1,Win32,60.08893162,,,,,,,,3.0987,,,,,,,,,,,,,,2,n,0.9013,23.0613391,1,4.0987,1,,,,,,23.0613391,0,2.387726776,,,,,,,,,,,,,0,68,68,69,1,0.488727763,1,,,,,,,,,,,,,,,,,,,,,,,,,,,,,,,,,,,,,,,,,,,,,,,,,,,,,,,,,,,,,,,,,,,,,,,,,,,,,,,,
,,60131babd3a5ad18ed8b15a3,2022-09-08_12h56.38.530,CGTgamblingSpanTasks,2022.2.1,Win32,60.08893162,,,,,,,,3.1002,,,,,,,,,,,,,,2,n,0.8998,0,1,4.6002,1.5,,,,,,20.5726842,0,0.073558523,,,,,,,,,,,,,0,69,69,26,1,0.901008565,0,,,,,,,,,,,,,,,,,,,,,,,,,,,,,,,,,,,,,,,,,,,,,,,,,,,,,,,,,,,,,,,,,,,,,,,,,,,,,,,,
,,60131babd3a5ad18ed8b15a3,2022-09-08_12h56.38.530,CGTgamblingSpanTasks,2022.2.1,Win32,60.08893162,,,,,,,,2.933,,,,,,,,,,,,,,1,n,1.067,8.42547829,0,4.433,1.5,,,,,,15.87668502,0,8.42547829,,,,,,,,,,,,,0,70,70,56,1,0.092099462,0,,,,,,,,,,,,,,,,,,,,,,,,,,,,,,,,,,,,,,,,,,,,,,,,,,,,,,,,,,,,,,,,,,,,,,,,,,,,,,,,
,,60131babd3a5ad18ed8b15a3,2022-09-08_12h56.38.530,CGTgamblingSpanTasks,2022.2.1,Win32,60.08893162,,,,,,,,3.2497,,,,,,,,,,,,,,1,v,0.7503,17.85020524,1,4.7497,1.5,,,,,,17.85020524,0,2.058701084,,,,,,,,,,,,,0,71,71,25,1,0.459662216,1,,,,,,,,,,,,,,,,,,,,,,,,,,,,,,,,,,,,,,,,,,,,,,,,,,,,,,,,,,,,,,,,,,,,,,,,,,,,,,,,
,,60131babd3a5ad18ed8b15a3,2022-09-08_12h56.38.530,CGTgamblingSpanTasks,2022.2.1,Win32,60.08893162,,,,,,,,3.0254,,,,,,,,,,,,,,1,n,0.9746,10.3417501,0,4.5254,1.5,,,,,,15.21435748,0,10.3417501,,,,,,,,,,,,,0,72,72,72,1,0.060969226,0,,,,,,,,,,,,,,,,,,,,,,,,,,,,,,,,,,,,,,,,,,,,,,,,,,,,,,,,,,,,,,,,,,,,,,,,,,,,,,,,
,,60131babd3a5ad18ed8b15a3,2022-09-08_12h56.38.530,CGTgamblingSpanTasks,2022.2.1,Win32,60.08893162,,,,,,,,2.8164,,,,,,,,,,,,,,2,n,1.1836,0,1,4.3164,1.5,,,,,,7.066129113,0,0.585581699,,,,,,,,,,,,,0,73,73,19,1,0.545860632,1,,,,,,,,,,,,,,,,,,,,,,,,,,,,,,,,,,,,,,,,,,,,,,,,,,,,,,,,,,,,,,,,,,,,,,,,,,,,,,,,
,,60131babd3a5ad18ed8b15a3,2022-09-08_12h56.38.530,CGTgamblingSpanTasks,2022.2.1,Win32,60.08893162,,,,,,,,3.1596,,,,,,,,,,,,,,2,n,0.8404,17.23907308,1,4.6596,1.5,,,,,,17.23907308,0,2.055848574,,,,,,,,,,,,,0,74,74,66,1,0.450504458,1,,,,,,,,,,,,,,,,,,,,,,,,,,,,,,,,,,,,,,,,,,,,,,,,,,,,,,,,,,,,,,,,,,,,,,,,,,,,,,,,
,,60131babd3a5ad18ed8b15a3,2022-09-08_12h56.38.530,CGTgamblingSpanTasks,2022.2.1,Win32,60.08893162,,,,,,,,3.2598,,,,,,,,,,,,,,2,n,0.7402,0,1,4.7598,1.5,,,,,,28.68598705,0,0.050674956,,,,,,,,,,,,,0,75,75,62,1,0.920905497,0,,,,,,,,,,,,,,,,,,,,,,,,,,,,,,,,,,,,,,,,,,,,,,,,,,,,,,,,,,,,,,,,,,,,,,,,,,,,,,,,
,,60131babd3a5ad18ed8b15a3,2022-09-08_12h56.38.530,CGTgamblingSpanTasks,2022.2.1,Win32,60.08893162,,,,,,,,3.2743,,,,,,,,,,,,,,1,v,0.7257,21.00799273,1,4.7743,1.5,,,,,,21.00799273,0,0.067969053,,,,,,,,,,,,,0,76,76,92,1,0.904360262,0,,,,,,,,,,,,,,,,,,,,,,,,,,,,,,,,,,,,,,,,,,,,,,,,,,,,,,,,,,,,,,,,,,,,,,,,,,,,,,,,
,,60131babd3a5ad18ed8b15a3,2022-09-08_12h56.38.530,CGTgamblingSpanTasks,2022.2.1,Win32,60.08893162,,,,,,,,3.2368,,,,,,,,,,,,,,2,n,0.7632,0,1,4.7368,1.5,,,,,,27.60724521,0,0.088432325,,,,,,,,,,,,,0,77,77,17,1,0.904684186,0,,,,,,,,,,,,,,,,,,,,,,,,,,,,,,,,,,,,,,,,,,,,,,,,,,,,,,,,,,,,,,,,,,,,,,,,,,,,,,,,
,,60131babd3a5ad18ed8b15a3,2022-09-08_12h56.38.530,CGTgamblingSpanTasks,2022.2.1,Win32,60.08893162,,,,,,,,3.2652,,,,,,,,,,,,,,2,n,0.7348,0,1,4.7652,1.5,,,,,,22.25959835,0,0.065383587,,,,,,,,,,,,,0,78,78,97,1,0.907413875,0,,,,,,,,,,,,,,,,,,,,,,,,,,,,,,,,,,,,,,,,,,,,,,,,,,,,,,,,,,,,,,,,,,,,,,,,,,,,,,,,
,,60131babd3a5ad18ed8b15a3,2022-09-08_12h56.38.530,CGTgamblingSpanTasks,2022.2.1,Win32,60.08893162,,,,,,,,2.7858,,,,,,,,,,,,,,1,n,1.2142,6.091504705,0,3.7858,1,,,,,,6.662965216,0,6.091504705,,,,,,,,,,,,,0,79,79,102,1,0.035087099,0,,,,,,,,,,,,,,,,,,,,,,,,,,,,,,,,,,,,,,,,,,,,,,,,,,,,,,,,,,,,,,,,,,,,,,,,,,,,,,,,
,,60131babd3a5ad18ed8b15a3,2022-09-08_12h56.38.530,CGTgamblingSpanTasks,2022.2.1,Win32,60.08893162,,,,,,,,3.1795,,,,,,,,,,,,,,1,v,0.8205,0,1,4.6795,1.5,,,,,,18.20422443,0,1.635040165,,,,,,,,,,,,,0,80,80,82,1,0.525708991,1,,,,,,,,,,,,,,,,,,,,,,,,,,,,,,,,,,,,,,,,,,,,,,,,,,,,,,,,,,,,,,,,,,,,,,,,,,,,,,,,
,,60131babd3a5ad18ed8b15a3,2022-09-08_12h56.38.530,CGTgamblingSpanTasks,2022.2.1,Win32,60.08893162,,,,,,,,3.0827,,,,,,,,,,,,,,2,v,0.9173,11.6744431,0,4.5827,1.5,,,,,,10.43004651,0,11.6744431,,,,,,,,,,,,,0,81,81,15,1,0.026176489,0,,,,,,,,,,,,,,,,,,,,,,,,,,,,,,,,,,,,,,,,,,,,,,,,,,,,,,,,,,,,,,,,,,,,,,,,,,,,,,,,
,,60131babd3a5ad18ed8b15a3,2022-09-08_12h56.38.530,CGTgamblingSpanTasks,2022.2.1,Win32,60.08893162,,,,,,,,3.2687,,,,,,,,,,,,,,2,n,0.7313,0,1,4.2687,1,,,,,,22.87092517,0,0.059276504,,,,,,,,,,,,,0,82,82,27,1,0.911114935,0,,,,,,,,,,,,,,,,,,,,,,,,,,,,,,,,,,,,,,,,,,,,,,,,,,,,,,,,,,,,,,,,,,,,,,,,,,,,,,,,
,,60131babd3a5ad18ed8b15a3,2022-09-08_12h56.38.530,CGTgamblingSpanTasks,2022.2.1,Win32,60.08893162,,,,,,,,3.0248,,,,,,,,,,,,,,2,v,0.9752,8.830252162,0,4.5248,1.5,,,,,,15.73000491,0,8.830252162,,,,,,,,,,,,,0,83,83,95,1,0.084193143,0,,,,,,,,,,,,,,,,,,,,,,,,,,,,,,,,,,,,,,,,,,,,,,,,,,,,,,,,,,,,,,,,,,,,,,,,,,,,,,,,
,,60131babd3a5ad18ed8b15a3,2022-09-08_12h56.38.530,CGTgamblingSpanTasks,2022.2.1,Win32,60.08893162,,,,,,,,3.2264,,,,,,,,,,,,,,2,n,0.7736,17.92584289,1,4.2264,1,,,,,,17.92584289,0,1.878232496,,,,,,,,,,,,,0,84,84,5,1,0.485559263,1,,,,,,,,,,,,,,,,,,,,,,,,,,,,,,,,,,,,,,,,,,,,,,,,,,,,,,,,,,,,,,,,,,,,,,,,,,,,,,,,
,,60131babd3a5ad18ed8b15a3,2022-09-08_12h56.38.530,CGTgamblingSpanTasks,2022.2.1,Win32,60.08893162,,,,,,,,3.2158,,,,,,,,,,,,,,2,n,0.7842,0,1,4.7158,1.5,,,,,,27.37527992,0,2.860319095,,,,,,,,,,,,,0,85,85,39,1,0.486304156,1,,,,,,,,,,,,,,,,,,,,,,,,,,,,,,,,,,,,,,,,,,,,,,,,,,,,,,,,,,,,,,,,,,,,,,,,,,,,,,,,
,,60131babd3a5ad18ed8b15a3,2022-09-08_12h56.38.530,CGTgamblingSpanTasks,2022.2.1,Win32,60.08893162,,,,,,,,3.1299,,,,,,,,,,,,,,1,v,0.8701,0,1,4.1299,1,,,,,,18.16238569,0,1.540604093,,,,,,,,,,,,,0,86,86,34,1,0.540092491,1,,,,,,,,,,,,,,,,,,,,,,,,,,,,,,,,,,,,,,,,,,,,,,,,,,,,,,,,,,,,,,,,,,,,,,,,,,,,,,,,
,,60131babd3a5ad18ed8b15a3,2022-09-08_12h56.38.530,CGTgamblingSpanTasks,2022.2.1,Win32,60.08893162,,,,,,,,3.1328,,,,,,,,,,,,,,1,v,0.8672,0,1,4.1328,1,,,,,,21.17800335,0,0.059830985,,,,,,,,,,,,,0,87,87,67,1,0.908594974,0,,,,,,,,,,,,,,,,,,,,,,,,,,,,,,,,,,,,,,,,,,,,,,,,,,,,,,,,,,,,,,,,,,,,,,,,,,,,,,,,
,,60131babd3a5ad18ed8b15a3,2022-09-08_12h56.38.530,CGTgamblingSpanTasks,2022.2.1,Win32,60.08893162,,,,,,,,3.1239,,,,,,,,,,,,,,2,n,0.8761,0,1,4.6239,1.5,,,,,,25.65316415,0,0.079652925,,,,,,,,,,,,,0,88,88,109,1,0.90568168,0,,,,,,,,,,,,,,,,,,,,,,,,,,,,,,,,,,,,,,,,,,,,,,,,,,,,,,,,,,,,,,,,,,,,,,,,,,,,,,,,
,,60131babd3a5ad18ed8b15a3,2022-09-08_12h56.38.530,CGTgamblingSpanTasks,2022.2.1,Win32,60.08893162,,,,,,,,2.899,,,,,,,,,,,,,,2,v,1.101,11.61882862,0,3.899,1,,,,,,4.022743614,0,11.61882862,,,,,,,,,,,,,0,89,89,38,1,0.011499376,0,,,,,,,,,,,,,,,,,,,,,,,,,,,,,,,,,,,,,,,,,,,,,,,,,,,,,,,,,,,,,,,,,,,,,,,,,,,,,,,,
,,60131babd3a5ad18ed8b15a3,2022-09-08_12h56.38.530,CGTgamblingSpanTasks,2022.2.1,Win32,60.08893162,,,,,,,,3.3157,,,,,,,,,,,,,,2,n,0.6843,26.11188619,1,4.3157,1,,,,,,26.11188619,0,0.081942421,,,,,,,,,,,,,0,90,90,105,1,0.905343856,0,,,,,,,,,,,,,,,,,,,,,,,,,,,,,,,,,,,,,,,,,,,,,,,,,,,,,,,,,,,,,,,,,,,,,,,,,,,,,,,,
,,60131babd3a5ad18ed8b15a3,2022-09-08_12h56.38.530,CGTgamblingSpanTasks,2022.2.1,Win32,60.08893162,,,,,,,,3.2126,,,,,,,,,,,,,,2,n,0.7874,0,1,4.2126,1,,,,,,25.21882231,0,0.085746782,,,,,,,,,,,,,0,91,91,64,1,0.90272076,0,,,,,,,,,,,,,,,,,,,,,,,,,,,,,,,,,,,,,,,,,,,,,,,,,,,,,,,,,,,,,,,,,,,,,,,,,,,,,,,,
,,60131babd3a5ad18ed8b15a3,2022-09-08_12h56.38.530,CGTgamblingSpanTasks,2022.2.1,Win32,60.08893162,,,,,,,,3.0783,,,,,,,,,,,,,,1,n,0.9217,5.683635938,0,4.5783,1.5,,,,,,4.941039335,0,5.683635938,,,,,,,,,,,,,0,92,92,9,1,0.025481984,0,,,,,,,,,,,,,,,,,,,,,,,,,,,,,,,,,,,,,,,,,,,,,,,,,,,,,,,,,,,,,,,,,,,,,,,,,,,,,,,,
,,60131babd3a5ad18ed8b15a3,2022-09-08_12h56.38.530,CGTgamblingSpanTasks,2022.2.1,Win32,60.08893162,,,,,,,,2.9976,,,,,,,,,,,,,,2,n,1.0024,28.9323758,1,3.9976,1,,,,,,28.9323758,0,2.893007023,,,,,,,,,,,,,0,93,93,11,1,0.497943321,1,,,,,,,,,,,,,,,,,,,,,,,,,,,,,,,,,,,,,,,,,,,,,,,,,,,,,,,,,,,,,,,,,,,,,,,,,,,,,,,,
,,60131babd3a5ad18ed8b15a3,2022-09-08_12h56.38.530,CGTgamblingSpanTasks,2022.2.1,Win32,60.08893162,,,,,,,,2.8821,,,,,,,,,,,,,,2,n,1.1179,18.50662664,1,3.8821,1,,,,,,18.50662664,0,0.052546026,,,,,,,,,,,,,0,94,94,112,1,0.908444837,0,,,,,,,,,,,,,,,,,,,,,,,,,,,,,,,,,,,,,,,,,,,,,,,,,,,,,,,,,,,,,,,,,,,,,,,,,,,,,,,,
,,60131babd3a5ad18ed8b15a3,2022-09-08_12h56.38.530,CGTgamblingSpanTasks,2022.2.1,Win32,60.08893162,,,,,,,,3.0301,,,,,,,,,,,,,,1,v,0.9699,21.7711579,1,4.0301,1,,,,,,21.7711579,0,2.502728921,,,,,,,,,,,,,0,95,95,101,1,0.460552621,1,,,,,,,,,,,,,,,,,,,,,,,,,,,,,,,,,,,,,,,,,,,,,,,,,,,,,,,,,,,,,,,,,,,,,,,,,,,,,,,,
,,60131babd3a5ad18ed8b15a3,2022-09-08_12h56.38.530,CGTgamblingSpanTasks,2022.2.1,Win32,60.08893162,,,,,,,,3.2514,,,,,,,,,,,,,,2,n,0.7486,0,1,4.7514,1.5,,,,,,27.12325385,0,0.080932047,,,,,,,,,,,,,0,96,96,14,1,0.906929184,0,,,,,,,,,,,,,,,,,,,,,,,,,,,,,,,,,,,,,,,,,,,,,,,,,,,,,,,,,,,,,,,,,,,,,,,,,,,,,,,,
,,60131babd3a5ad18ed8b15a3,2022-09-08_12h56.38.530,CGTgamblingSpanTasks,2022.2.1,Win32,60.08893162,,,,,,,,3.1854,,,,,,,,,,,,,,1,v,0.8146,26.36733703,1,4.1854,1,,,,,,26.36733703,0,2.201057101,,,,,,,,,,,,,0,97,97,90,1,0.544064207,1,,,,,,,,,,,,,,,,,,,,,,,,,,,,,,,,,,,,,,,,,,,,,,,,,,,,,,,,,,,,,,,,,,,,,,,,,,,,,,,,
,,60131babd3a5ad18ed8b15a3,2022-09-08_12h56.38.530,CGTgamblingSpanTasks,2022.2.1,Win32,60.08893162,,,,,,,,3.2435,,,,,,,,,,,,,,2,n,0.7565,17.4320197,1,4.2435,1,,,,,,17.4320197,0,1.448620949,,,,,,,,,,,,,0,98,98,30,1,0.545178213,1,,,,,,,,,,,,,,,,,,,,,,,,,,,,,,,,,,,,,,,,,,,,,,,,,,,,,,,,,,,,,,,,,,,,,,,,,,,,,,,,
,,60131babd3a5ad18ed8b15a3,2022-09-08_12h56.38.530,CGTgamblingSpanTasks,2022.2.1,Win32,60.08893162,,,,,,,,3.0283,,,,,,,,,,,,,,1,v,0.9717,19.36415485,1,4.5283,1.5,,,,,,19.36415485,0,1.966229494,,,,,,,,,,,,,0,99,99,96,1,0.493893111,1,,,,,,,,,,,,,,,,,,,,,,,,,,,,,,,,,,,,,,,,,,,,,,,,,,,,,,,,,,,,,,,,,,,,,,,,,,,,,,,,
,,60131babd3a5ad18ed8b15a3,2022-09-08_12h56.38.530,CGTgamblingSpanTasks,2022.2.1,Win32,60.08893162,,,,,,,,2.8103,,,,,,,,,,,,,,2,v,1.1897,7.646213173,0,3.8103,1,,,,,,2.042350179,0,7.646213173,,,,,,,,,,,,,0,100,100,53,1,0.009522273,0,,,,,,,,,,,,,,,,,,,,,,,,,,,,,,,,,,,,,,,,,,,,,,,,,,,,,,,,,,,,,,,,,,,,,,,,,,,,,,,,
,,60131babd3a5ad18ed8b15a3,2022-09-08_12h56.38.530,CGTgamblingSpanTasks,2022.2.1,Win32,60.08893162,,,,,,,,3.1601,,,,,,,,,,,,,,1,v,0.8399,0,1,4.1601,1,,,,,,28.18900855,0,0.05384276,,,,,,,,,,,,,0,101,101,55,1,0.919081308,0,,,,,,,,,,,,,,,,,,,,,,,,,,,,,,,,,,,,,,,,,,,,,,,,,,,,,,,,,,,,,,,,,,,,,,,,,,,,,,,,
,,60131babd3a5ad18ed8b15a3,2022-09-08_12h56.38.530,CGTgamblingSpanTasks,2022.2.1,Win32,60.08893162,,,,,,,,3.1826,,,,,,,,,,,,,,2,n,0.8174,23.4214135,1,4.6826,1.5,,,,,,23.4214135,0,2.485985001,,,,,,,,,,,,,0,102,102,81,1,0.482105905,1,,,,,,,,,,,,,,,,,,,,,,,,,,,,,,,,,,,,,,,,,,,,,,,,,,,,,,,,,,,,,,,,,,,,,,,,,,,,,,,,
,,60131babd3a5ad18ed8b15a3,2022-09-08_12h56.38.530,CGTgamblingSpanTasks,2022.2.1,Win32,60.08893162,,,,,,,,3.0936,,,,,,,,,,,,,,1,v,0.9064,21.16780451,1,4.0936,1,,,,,,21.16780451,0,2.469465385,,,,,,,,,,,,,0,103,103,32,1,0.456531699,1,,,,,,,,,,,,,,,,,,,,,,,,,,,,,,,,,,,,,,,,,,,,,,,,,,,,,,,,,,,,,,,,,,,,,,,,,,,,,,,,
,,60131babd3a5ad18ed8b15a3,2022-09-08_12h56.38.530,CGTgamblingSpanTasks,2022.2.1,Win32,60.08893162,,,,,,,,3.1501,,,,,,,,,,,,,,1,v,0.8499,0,1,4.1501,1,,,,,,27.39221343,0,2.743407746,,,,,,,,,,,,,0,104,104,47,1,0.49752044,1,,,,,,,,,,,,,,,,,,,,,,,,,,,,,,,,,,,,,,,,,,,,,,,,,,,,,,,,,,,,,,,,,,,,,,,,,,,,,,,,
,,60131babd3a5ad18ed8b15a3,2022-09-08_12h56.38.530,CGTgamblingSpanTasks,2022.2.1,Win32,60.08893162,,,,,,,,2.9999,,,,,,,,,,,,,,2,v,1.0001,8.653432553,0,4.4999,1.5,,,,,,15.13999312,0,8.653432553,,,,,,,,,,,,,0,105,105,54,1,0.081767484,0,,,,,,,,,,,,,,,,,,,,,,,,,,,,,,,,,,,,,,,,,,,,,,,,,,,,,,,,,,,,,,,,,,,,,,,,,,,,,,,,
,,60131babd3a5ad18ed8b15a3,2022-09-08_12h56.38.530,CGTgamblingSpanTasks,2022.2.1,Win32,60.08893162,,,,,,,,3.156,,,,,,,,,,,,,,2,n,0.844,13.84410806,1,4.656,1.5,,,,,,13.84410806,0,1.535873964,,,,,,,,,,,,,0,106,106,88,1,0.470209002,1,,,,,,,,,,,,,,,,,,,,,,,,,,,,,,,,,,,,,,,,,,,,,,,,,,,,,,,,,,,,,,,,,,,,,,,,,,,,,,,,
,,60131babd3a5ad18ed8b15a3,2022-09-08_12h56.38.530,CGTgamblingSpanTasks,2022.2.1,Win32,60.08893162,,,,,,,,3.2955,,,,,,,,,,,,,,2,n,0.7045,27.76752685,1,4.7955,1.5,,,,,,27.76752685,0,0.083968035,,,,,,,,,,,,,0,107,107,13,1,0.906513967,0,,,,,,,,,,,,,,,,,,,,,,,,,,,,,,,,,,,,,,,,,,,,,,,,,,,,,,,,,,,,,,,,,,,,,,,,,,,,,,,,
,,60131babd3a5ad18ed8b15a3,2022-09-08_12h56.38.530,CGTgamblingSpanTasks,2022.2.1,Win32,60.08893162,,,,,,,,3.2143,,,,,,,,,,,,,,2,n,0.7857,24.66627941,1,4.2143,1,,,,,,24.66627941,0,2.765426402,,,,,,,,,,,,,0,108,108,24,1,0.467360588,1,,,,,,,,,,,,,,,,,,,,,,,,,,,,,,,,,,,,,,,,,,,,,,,,,,,,,,,,,,,,,,,,,,,,,,,,,,,,,,,,
,,60131babd3a5ad18ed8b15a3,2022-09-08_12h56.38.530,CGTgamblingSpanTasks,2022.2.1,Win32,60.08893162,,,,,,,,2.9668,,,,,,,,,,,,,,1,v,1.0332,0,1,3.9668,1,,,,,,14.3363647,0,1.396635362,,,,,,,,,,,,,0,109,109,78,1,0.504775474,1,,,,,,,,,,,,,,,,,,,,,,,,,,,,,,,,,,,,,,,,,,,,,,,,,,,,,,,,,,,,,,,,,,,,,,,,,,,,,,,,
,,60131babd3a5ad18ed8b15a3,2022-09-08_12h56.38.530,CGTgamblingSpanTasks,2022.2.1,Win32,60.08893162,,,,,,,,2.8265,,,,,,,,,,,,,,1,n,1.1735,8.512335864,0,4.3265,1.5,,,,,,10.05300841,0,8.512335864,,,,,,,,,,,,,0,110,110,74,1,0.040729225,0,,,,,,,,,,,,,,,,,,,,,,,,,,,,,,,,,,,,,,,,,,,,,,,,,,,,,,,,,,,,,,,,,,,,,,,,,,,,,,,,
,,60131babd3a5ad18ed8b15a3,2022-09-08_12h56.38.530,CGTgamblingSpanTasks,2022.2.1,Win32,60.08893162,,,,,,,,2.9135,,,,,,,,,,,,,,2,v,1.0865,4.251676631,0,3.9135,1,,,,,,3.395192929,0,4.251676631,,,,,,,,,,,,,0,111,111,7,1,0.023467153,0,,,,,,,,,,,,,,,,,,,,,,,,,,,,,,,,,,,,,,,,,,,,,,,,,,,,,,,,,,,,,,,,,,,,,,,,,,,,,,,,
,,60131babd3a5ad18ed8b15a3,2022-09-08_12h56.38.530,CGTgamblingSpanTasks,2022.2.1,Win32,60.08893162,,,,,,,,2.7969,,,,,,,,,,,,,,2,v,1.2031,6.833409611,0,3.7969,1,,,,,,6.325091157,0,6.833409611,,,,,,,,,,,,,0,112,112,58,1,0.027113638,0,,,,,,,,,,,,,,,,,,,,,,,,,,,,,,,,,,,,,,,,,,,,,,,,,,,,,,,,,,,,,,,,,,,,,,,,,,,,,,,,
,,60131babd3a5ad18ed8b15a3,2022-09-08_12h56.38.530,CGTgamblingSpanTasks,2022.2.1,Win32,60.08893162,,,,,,,,2.9355,,,,,,,,,,,,,,1,v,1.0645,21.03408097,1,4.4355,1.5,,,,,,21.03408097,0,2.208275162,,,,,,,,,,,,,0,113,113,0,1,0.485031246,1,,,,,,,,,,,,,,,,,,,,,,,,,,,,,,,,,,,,,,,,,,,,,,,,,,,,,,,,,,,,,,,,,,,,,,,,,,,,,,,,
,,60131babd3a5ad18ed8b15a3,2022-09-08_12h56.38.530,CGTgamblingSpanTasks,2022.2.1,Win32,60.08893162,,,,,,,,2.6161,,,,,,,,,,,,,,2,v,1.3839,11.93550497,0,4.1161,1.5,,,,,,14.20587264,0,11.93550497,,,,,,,,,,,,,0,114,114,21,1,0.041340301,0,,,,,,,,,,,,,,,,,,,,,,,,,,,,,,,,,,,,,,,,,,,,,,,,,,,,,,,,,,,,,,,,,,,,,,,,,,,,,,,,
,,60131babd3a5ad18ed8b15a3,2022-09-08_12h56.38.530,CGTgamblingSpanTasks,2022.2.1,Win32,60.08893162,,,,,,,,2.9622,,,,,,,,,,,,,,2,n,1.0378,0,1,3.9622,1,,,,,,18.51345298,0,1.932334278,,,,,,,,,,,,,0,115,115,31,1,0.48658696,1,,,,,,,,,,,,,,,,,,,,,,,,,,,,,,,,,,,,,,,,,,,,,,,,,,,,,,,,,,,,,,,,,,,,,,,,,,,,,,,,
,,60131babd3a5ad18ed8b15a3,2022-09-08_12h56.38.530,CGTgamblingSpanTasks,2022.2.1,Win32,60.08893162,,,,,,,,3.1326,,,,,,,,,,,,,,2,n,0.8674,13.96521039,1,4.6326,1.5,,,,,,13.96521039,0,1.591282699,,,,,,,,,,,,,0,116,116,49,1,0.462956344,1,,,,,,,,,,,,,,,,,,,,,,,,,,,,,,,,,,,,,,,,,,,,,,,,,,,,,,,,,,,,,,,,,,,,,,,,,,,,,,,,
,,60131babd3a5ad18ed8b15a3,2022-09-08_12h56.38.530,CGTgamblingSpanTasks,2022.2.1,Win32,60.08893162,,,,,,,,3.1332,,,,,,,,,,,,,,1,v,0.8668,0,1,4.6332,1.5,,,,,,28.13634754,0,2.532806323,,,,,,,,,,,,,0,117,117,28,1,0.525136524,1,,,,,,,,,,,,,,,,,,,,,,,,,,,,,,,,,,,,,,,,,,,,,,,,,,,,,,,,,,,,,,,,,,,,,,,,,,,,,,,,
,,60131babd3a5ad18ed8b15a3,2022-09-08_12h56.38.530,CGTgamblingSpanTasks,2022.2.1,Win32,60.08893162,,,,,,,,3.3002,,,,,,,,,,,,,,2,n,0.6998,0,1,4.3002,1,,,,,,22.72923833,0,0.067170781,,,,,,,,,,,,,0,118,118,86,1,0.907226703,0,,,,,,,,,,,,,,,,,,,,,,,,,,,,,,,,,,,,,,,,,,,,,,,,,,,,,,,,,,,,,,,,,,,,,,,,,,,,,,,,
,,60131babd3a5ad18ed8b15a3,2022-09-08_12h56.38.530,CGTgamblingSpanTasks,2022.2.1,Win32,60.08893162,,,,,,,,3.1432,,,,,,,,,,,,,,1,v,0.8568,28.9381277,1,4.6432,1.5,,,,,,28.9381277,0,2.663622024,,,,,,,,,,,,,0,119,119,103,1,0.519453367,1,,,,,,,,,,,,,,,,,,,,,,,,,,,,,,,,,,,,,,,,,,,,,,,,,,,,,,,,,,,,,,,,,,,,,,,,,,,,,,,,
,,60131babd3a5ad18ed8b15a3,2022-09-08_12h56.38.530,CGTgamblingSpanTasks,2022.2.1,Win32,60.08893162,,,,,,,,,,,,,,,,,,,,,,,,,,,,,,,,,,,,,,,,,,,,,,,,,,,,,,,,return,20.4048,,,,,,,,,,,,,,,,,,,,,,,,,,,,,,,,,,,,,,,,,,,,,,,,,,,,,,,,,,,,,,,,,,,,,,,,,,,,,,
,,60131babd3a5ad18ed8b15a3,2022-09-08_12h56.38.530,CGTgamblingSpanTasks,2022.2.1,Win32,60.08893162,,,,,,,,,,,,,,,,,,,,,,,,,,,,,,,,,,,,,,,,,,,,,,,,,,,,,,,,,,return,15.1963,,,,,,,,,,,,,,,,,,,,,,,,,,,,,,,,,,,,,,,,,,,,,,,,,,,,,,,,,,,,,,,,,,,,,,,,,,,,
,,60131babd3a5ad18ed8b15a3,2022-09-08_12h56.38.530,CGTgamblingSpanTasks,2022.2.1,Win32,60.08893162,,,,,,,,,,,,,,,,,,,,,,,,,,,,,,,,,,,,,,,,,,,,,,,,,,,,,,,,,,,,return,27.1313,,,,,,,,,,,,,,,,,,,,,,,,,,,,,,,,,,,,,,,,,,,,,,,,,,,,,,,,,,,,,,,,,,,,,,,,,,
,,60131babd3a5ad18ed8b15a3,2022-09-08_12h56.38.530,CGTgamblingSpanTasks,2022.2.1,Win32,60.08893162,,,,,,,,,,,,,,,,,,,,,,,,,,,,,,,,,,,,,,,,,,,,,,,,,,,,,,,,,,,,,,342,1,-0.082581011,-0.404629707,1,0,0,cont_buttonPractice,0,0,0,0,1,3,342,24,2,42,,,,,,,,,,,,,,,,,,,,,,,,,,,,,,,,,,,,,,,,,,,,,,,,,,,,,,,,
,,60131babd3a5ad18ed8b15a3,2022-09-08_12h56.38.530,CGTgamblingSpanTasks,2022.2.1,Win32,60.08893162,,,,,,,,,,,,,,,,,,,,,,,,,,,,,,,,,,,,,,,,,,,,,,,,,,,,,,,,,,,,,,937,1,-0.014988391,-0.420370356,1,0,0,cont_buttonPractice,0,1,1,1,1,3,937,73,2,37,,,,,,,,,,,,,,,,,,,,,,,,,,,,,,,,,,,,,,,,,,,,,,,,,,,,,,,,
,,60131babd3a5ad18ed8b15a3,2022-09-08_12h56.38.530,CGTgamblingSpanTasks,2022.2.1,Win32,60.08893162,,,,,,,,,,,,,,,,,,,,,,,,,,,,,,,,,,,,,,,,,,,,,,,,,,,,,,,,,,,,,,,,,,,,,,,,,,,,,,,,return,10.6883,,,,,,,,,,,,,,,,,,,,,,,,,,,,,,,,,,,,,,,,,,,,,,,,,,,,,,
,,60131babd3a5ad18ed8b15a3,2022-09-08_12h56.38.530,CGTgamblingSpanTasks,2022.2.1,Win32,60.08893162,,,,,,,,,,,,,,,,,,,,,,,,,,,,,,,,,,,,,,,,,,,,,,,,,,,,,,,,,,,,,,,,,,,,,,,,,,,,,,,,,,"[2,1,7]",0,0,0,0,1,,,,,,,,,,,,,,,,,,,,,,,,,,,,,,,,,,,,,,,,,,,,,,,,
,,60131babd3a5ad18ed8b15a3,2022-09-08_12h56.38.530,CGTgamblingSpanTasks,2022.2.1,Win32,60.08893162,,,,,,,,,,,,,,,,,,,,,,,,,,,,,,,,,,,,,,,,,,,,,,,,,,,,,,,,,,,,,,,,,,,,,,,,,,,,,,,,,,"[2,1,7]",1,0,1,0,1,,,,,,,,,,,,,,,,,,,,,,,,,,,,,,,,,,,,,,,,,,,,,,,,
,,60131babd3a5ad18ed8b15a3,2022-09-08_12h56.38.530,CGTgamblingSpanTasks,2022.2.1,Win32,60.08893162,,,,,,,,,,,,,,,,,,,,,,,,,,,,,,,,,,,,,,,,,,,,,,,,,,,,,,,,,,,,,,,,,,,,,,,,,,,,,,,,,,"[2,1,7]",2,0,2,0,1,,,,,,,,,,,,,,,,,,,,,,,,,,,,,,,,,,,,,,,,,,,,,,,,
,,60131babd3a5ad18ed8b15a3,2022-09-08_12h56.38.530,CGTgamblingSpanTasks,2022.2.1,Win32,60.08893162,,,,,,,,,,,,,,,,,,,,,,,,,,,,,,,,,,,,,,,,,,,,,,,,,,,,,,,,,,,,,,,1,,,,,,,,,,,,,,,,,,,,,,,,,217,-0.005729167,-0.398148155,1,0,0,cont_button,0,0,0,0,1,1,,,,,,,,,,,,,,,,,,,,,,,,,,,,,,,,,,,
,,60131babd3a5ad18ed8b15a3,2022-09-08_12h56.38.530,CGTgamblingSpanTasks,2022.2.1,Win32,60.08893162,,,,,,,,,,,,,,,,,,,,,,,,,,,,,,,,,,,,,,,,,,,,,,,,,,,,,,,,,,,,,,,,,,,,,,,,,,,,,,,,,,"[2,4,6,9]",0,0,0,0,1,,,,,,,,,,,,,,,,,,,,,,,,,,,,,,,,,,,,,,,,,,,,,,,,
,,60131babd3a5ad18ed8b15a3,2022-09-08_12h56.38.530,CGTgamblingSpanTasks,2022.2.1,Win32,60.08893162,,,,,,,,,,,,,,,,,,,,,,,,,,,,,,,,,,,,,,,,,,,,,,,,,,,,,,,,,,,,,,,,,,,,,,,,,,,,,,,,,,"[2,4,6,9]",1,0,1,0,1,,,,,,,,,,,,,,,,,,,,,,,,,,,,,,,,,,,,,,,,,,,,,,,,
,,60131babd3a5ad18ed8b15a3,2022-09-08_12h56.38.530,CGTgamblingSpanTasks,2022.2.1,Win32,60.08893162,,,,,,,,,,,,,,,,,,,,,,,,,,,,,,,,,,,,,,,,,,,,,,,,,,,,,,,,,,,,,,,,,,,,,,,,,,,,,,,,,,"[2,4,6,9]",2,0,2,0,1,,,,,,,,,,,,,,,,,,,,,,,,,,,,,,,,,,,,,,,,,,,,,,,,
,,60131babd3a5ad18ed8b15a3,2022-09-08_12h56.38.530,CGTgamblingSpanTasks,2022.2.1,Win32,60.08893162,,,,,,,,,,,,,,,,,,,,,,,,,,,,,,,,,,,,,,,,,,,,,,,,,,,,,,,,,,,,,,,,,,,,,,,,,,,,,,,,,,"[2,4,6,9]",3,0,3,0,1,,,,,,,,,,,,,,,,,,,,,,,,,,,,,,,,,,,,,,,,,,,,,,,,
,,60131babd3a5ad18ed8b15a3,2022-09-08_12h56.38.530,CGTgamblingSpanTasks,2022.2.1,Win32,60.08893162,,,,,,,,,,,,,,,,,,,,,,,,,,,,,,,,,,,,,,,,,,,,,,,,,,,,,,,,,,,,,,,1,,,,,,,,,,,,,,,,,,,,,,,,,2469,-0.005729167,-0.398148155,1,0,0,cont_button,0,1,1,1,1,2,,,,,,,,,,,,,,,,,,,,,,,,,,,,,,,,,,,
,,60131babd3a5ad18ed8b15a3,2022-09-08_12h56.38.530,CGTgamblingSpanTasks,2022.2.1,Win32,60.08893162,,,,,,,,,,,,,,,,,,,,,,,,,,,,,,,,,,,,,,,,,,,,,,,,,,,,,,,,,,,,,,,,,,,,,,,,,,,,,,,,,,"[3,4,8,9,7]",0,0,0,0,1,,,,,,,,,,,,,,,,,,,,,,,,,,,,,,,,,,,,,,,,,,,,,,,,
,,60131babd3a5ad18ed8b15a3,2022-09-08_12h56.38.530,CGTgamblingSpanTasks,2022.2.1,Win32,60.08893162,,,,,,,,,,,,,,,,,,,,,,,,,,,,,,,,,,,,,,,,,,,,,,,,,,,,,,,,,,,,,,,,,,,,,,,,,,,,,,,,,,"[3,4,8,9,7]",1,0,1,0,1,,,,,,,,,,,,,,,,,,,,,,,,,,,,,,,,,,,,,,,,,,,,,,,,
,,60131babd3a5ad18ed8b15a3,2022-09-08_12h56.38.530,CGTgamblingSpanTasks,2022.2.1,Win32,60.08893162,,,,,,,,,,,,,,,,,,,,,,,,,,,,,,,,,,,,,,,,,,,,,,,,,,,,,,,,,,,,,,,,,,,,,,,,,,,,,,,,,,"[3,4,8,9,7]",2,0,2,0,1,,,,,,,,,,,,,,,,,,,,,,,,,,,,,,,,,,,,,,,,,,,,,,,,
,,60131babd3a5ad18ed8b15a3,2022-09-08_12h56.38.530,CGTgamblingSpanTasks,2022.2.1,Win32,60.08893162,,,,,,,,,,,,,,,,,,,,,,,,,,,,,,,,,,,,,,,,,,,,,,,,,,,,,,,,,,,,,,,,,,,,,,,,,,,,,,,,,,"[3,4,8,9,7]",3,0,3,0,1,,,,,,,,,,,,,,,,,,,,,,,,,,,,,,,,,,,,,,,,,,,,,,,,
,,60131babd3a5ad18ed8b15a3,2022-09-08_12h56.38.530,CGTgamblingSpanTasks,2022.2.1,Win32,60.08893162,,,,,,,,,,,,,,,,,,,,,,,,,,,,,,,,,,,,,,,,,,,,,,,,,,,,,,,,,,,,,,,,,,,,,,,,,,,,,,,,,,"[3,4,8,9,7]",4,0,4,0,1,,,,,,,,,,,,,,,,,,,,,,,,,,,,,,,,,,,,,,,,,,,,,,,,
,,60131babd3a5ad18ed8b15a3,2022-09-08_12h56.38.530,CGTgamblingSpanTasks,2022.2.1,Win32,60.08893162,,,,,,,,,,,,,,,,,,,,,,,,,,,,,,,,,,,,,,,,,,,,,,,,,,,,,,,,,,,,,,,1,,,,,,,,,,,,,,,,,,,,,,,,,34897,-0.005729167,-0.398148155,1,0,0,cont_button,0,2,2,2,1,3,,,,,,,,,,,,,,,,,,,,,,,,,,,,,,,,,,,
,,60131babd3a5ad18ed8b15a3,2022-09-08_12h56.38.530,CGTgamblingSpanTasks,2022.2.1,Win32,60.08893162,,,,,,,,,,,,,,,,,,,,,,,,,,,,,,,,,,,,,,,,,,,,,,,,,,,,,,,,,,,,,,,,,,,,,,,,,,,,,,,,,,"[1,6,7,9,3,5]",0,0,0,0,1,,,,,,,,,,,,,,,,,,,,,,,,,,,,,,,,,,,,,,,,,,,,,,,,
,,60131babd3a5ad18ed8b15a3,2022-09-08_12h56.38.530,CGTgamblingSpanTasks,2022.2.1,Win32,60.08893162,,,,,,,,,,,,,,,,,,,,,,,,,,,,,,,,,,,,,,,,,,,,,,,,,,,,,,,,,,,,,,,,,,,,,,,,,,,,,,,,,,"[1,6,7,9,3,5]",1,0,1,0,1,,,,,,,,,,,,,,,,,,,,,,,,,,,,,,,,,,,,,,,,,,,,,,,,
,,60131babd3a5ad18ed8b15a3,2022-09-08_12h56.38.530,CGTgamblingSpanTasks,2022.2.1,Win32,60.08893162,,,,,,,,,,,,,,,,,,,,,,,,,,,,,,,,,,,,,,,,,,,,,,,,,,,,,,,,,,,,,,,,,,,,,,,,,,,,,,,,,,"[1,6,7,9,3,5]",2,0,2,0,1,,,,,,,,,,,,,,,,,,,,,,,,,,,,,,,,,,,,,,,,,,,,,,,,
,,60131babd3a5ad18ed8b15a3,2022-09-08_12h56.38.530,CGTgamblingSpanTasks,2022.2.1,Win32,60.08893162,,,,,,,,,,,,,,,,,,,,,,,,,,,,,,,,,,,,,,,,,,,,,,,,,,,,,,,,,,,,,,,,,,,,,,,,,,,,,,,,,,"[1,6,7,9,3,5]",3,0,3,0,1,,,,,,,,,,,,,,,,,,,,,,,,,,,,,,,,,,,,,,,,,,,,,,,,
,,60131babd3a5ad18ed8b15a3,2022-09-08_12h56.38.530,CGTgamblingSpanTasks,2022.2.1,Win32,60.08893162,,,,,,,,,,,,,,,,,,,,,,,,,,,,,,,,,,,,,,,,,,,,,,,,,,,,,,,,,,,,,,,,,,,,,,,,,,,,,,,,,,"[1,6,7,9,3,5]",4,0,4,0,1,,,,,,,,,,,,,,,,,,,,,,,,,,,,,,,,,,,,,,,,,,,,,,,,
,,60131babd3a5ad18ed8b15a3,2022-09-08_12h56.38.530,CGTgamblingSpanTasks,2022.2.1,Win32,60.08893162,,,,,,,,,,,,,,,,,,,,,,,,,,,,,,,,,,,,,,,,,,,,,,,,,,,,,,,,,,,,,,,,,,,,,,,,,,,,,,,,,,"[1,6,7,9,3,5]",5,0,5,0,1,,,,,,,,,,,,,,,,,,,,,,,,,,,,,,,,,,,,,,,,,,,,,,,,
,,60131babd3a5ad18ed8b15a3,2022-09-08_12h56.38.530,CGTgamblingSpanTasks,2022.2.1,Win32,60.08893162,,,,,,,,,,,,,,,,,,,,,,,,,,,,,,,,,,,,,,,,,,,,,,,,,,,,,,,,,,,,,,,1,,,,,,,,,,,,,,,,,,,,,,,,,167935,-0.005729167,-0.398148155,1,0,0,cont_button,0,3,3,3,1,4,,,,,,,,,,,,,,,,,,,,,,,,,,,,,,,,,,,
,,60131babd3a5ad18ed8b15a3,2022-09-08_12h56.38.530,CGTgamblingSpanTasks,2022.2.1,Win32,60.08893162,,,,,,,,,,,,,,,,,,,,,,,,,,,,,,,,,,,,,,,,,,,,,,,,,,,,,,,,,,,,,,,,,,,,,,,,,,,,,,,,,,"[6,4,5,3,8,2,1]",0,0,0,0,1,,,,,,,,,,,,,,,,,,,,,,,,,,,,,,,,,,,,,,,,,,,,,,,,
,,60131babd3a5ad18ed8b15a3,2022-09-08_12h56.38.530,CGTgamblingSpanTasks,2022.2.1,Win32,60.08893162,,,,,,,,,,,,,,,,,,,,,,,,,,,,,,,,,,,,,,,,,,,,,,,,,,,,,,,,,,,,,,,,,,,,,,,,,,,,,,,,,,"[6,4,5,3,8,2,1]",1,0,1,0,1,,,,,,,,,,,,,,,,,,,,,,,,,,,,,,,,,,,,,,,,,,,,,,,,
,,60131babd3a5ad18ed8b15a3,2022-09-08_12h56.38.530,CGTgamblingSpanTasks,2022.2.1,Win32,60.08893162,,,,,,,,,,,,,,,,,,,,,,,,,,,,,,,,,,,,,,,,,,,,,,,,,,,,,,,,,,,,,,,,,,,,,,,,,,,,,,,,,,"[6,4,5,3,8,2,1]",2,0,2,0,1,,,,,,,,,,,,,,,,,,,,,,,,,,,,,,,,,,,,,,,,,,,,,,,,
,,60131babd3a5ad18ed8b15a3,2022-09-08_12h56.38.530,CGTgamblingSpanTasks,2022.2.1,Win32,60.08893162,,,,,,,,,,,,,,,,,,,,,,,,,,,,,,,,,,,,,,,,,,,,,,,,,,,,,,,,,,,,,,,,,,,,,,,,,,,,,,,,,,"[6,4,5,3,8,2,1]",3,0,3,0,1,,,,,,,,,,,,,,,,,,,,,,,,,,,,,,,,,,,,,,,,,,,,,,,,
,,60131babd3a5ad18ed8b15a3,2022-09-08_12h56.38.530,CGTgamblingSpanTasks,2022.2.1,Win32,60.08893162,,,,,,,,,,,,,,,,,,,,,,,,,,,,,,,,,,,,,,,,,,,,,,,,,,,,,,,,,,,,,,,,,,,,,,,,,,,,,,,,,,"[6,4,5,3,8,2,1]",4,0,4,0,1,,,,,,,,,,,,,,,,,,,,,,,,,,,,,,,,,,,,,,,,,,,,,,,,
,,60131babd3a5ad18ed8b15a3,2022-09-08_12h56.38.530,CGTgamblingSpanTasks,2022.2.1,Win32,60.08893162,,,,,,,,,,,,,,,,,,,,,,,,,,,,,,,,,,,,,,,,,,,,,,,,,,,,,,,,,,,,,,,,,,,,,,,,,,,,,,,,,,"[6,4,5,3,8,2,1]",5,0,5,0,1,,,,,,,,,,,,,,,,,,,,,,,,,,,,,,,,,,,,,,,,,,,,,,,,
,,60131babd3a5ad18ed8b15a3,2022-09-08_12h56.38.530,CGTgamblingSpanTasks,2022.2.1,Win32,60.08893162,,,,,,,,,,,,,,,,,,,,,,,,,,,,,,,,,,,,,,,,,,,,,,,,,,,,,,,,,,,,,,,,,,,,,,,,,,,,,,,,,,"[6,4,5,3,8,2,1]",6,0,6,0,1,,,,,,,,,,,,,,,,,,,,,,,,,,,,,,,,,,,,,,,,,,,,,,,,
,,60131babd3a5ad18ed8b15a3,2022-09-08_12h56.38.530,CGTgamblingSpanTasks,2022.2.1,Win32,60.08893162,,,,,,,,,,,,,,,,,,,,,,,,,,,,,,,,,,,,,,,,,,,,,,,,,,,,,,,,,,,,,,,1,,,,,,,,,,,,,,,,,,,,,,,,,6453821,-0.005729167,-0.398148155,1,0,0,cont_button,0,4,4,4,1,5,,,,,,,,,,,,,,,,,,,,,,,,,,,,,,,,,,,
,,60131babd3a5ad18ed8b15a3,2022-09-08_12h56.38.530,CGTgamblingSpanTasks,2022.2.1,Win32,60.08893162,,,,,,,,,,,,,,,,,,,,,,,,,,,,,,,,,,,,,,,,,,,,,,,,,,,,,,,,,,,,,,,,,,,,,,,,,,,,,,,,,,"[4,2,6,5,9,3,1,7]",0,0,0,0,1,,,,,,,,,,,,,,,,,,,,,,,,,,,,,,,,,,,,,,,,,,,,,,,,
,,60131babd3a5ad18ed8b15a3,2022-09-08_12h56.38.530,CGTgamblingSpanTasks,2022.2.1,Win32,60.08893162,,,,,,,,,,,,,,,,,,,,,,,,,,,,,,,,,,,,,,,,,,,,,,,,,,,,,,,,,,,,,,,,,,,,,,,,,,,,,,,,,,"[4,2,6,5,9,3,1,7]",1,0,1,0,1,,,,,,,,,,,,,,,,,,,,,,,,,,,,,,,,,,,,,,,,,,,,,,,,
,,60131babd3a5ad18ed8b15a3,2022-09-08_12h56.38.530,CGTgamblingSpanTasks,2022.2.1,Win32,60.08893162,,,,,,,,,,,,,,,,,,,,,,,,,,,,,,,,,,,,,,,,,,,,,,,,,,,,,,,,,,,,,,,,,,,,,,,,,,,,,,,,,,"[4,2,6,5,9,3,1,7]",2,0,2,0,1,,,,,,,,,,,,,,,,,,,,,,,,,,,,,,,,,,,,,,,,,,,,,,,,
,,60131babd3a5ad18ed8b15a3,2022-09-08_12h56.38.530,CGTgamblingSpanTasks,2022.2.1,Win32,60.08893162,,,,,,,,,,,,,,,,,,,,,,,,,,,,,,,,,,,,,,,,,,,,,,,,,,,,,,,,,,,,,,,,,,,,,,,,,,,,,,,,,,"[4,2,6,5,9,3,1,7]",3,0,3,0,1,,,,,,,,,,,,,,,,,,,,,,,,,,,,,,,,,,,,,,,,,,,,,,,,
,,60131babd3a5ad18ed8b15a3,2022-09-08_12h56.38.530,CGTgamblingSpanTasks,2022.2.1,Win32,60.08893162,,,,,,,,,,,,,,,,,,,,,,,,,,,,,,,,,,,,,,,,,,,,,,,,,,,,,,,,,,,,,,,,,,,,,,,,,,,,,,,,,,"[4,2,6,5,9,3,1,7]",4,0,4,0,1,,,,,,,,,,,,,,,,,,,,,,,,,,,,,,,,,,,,,,,,,,,,,,,,
,,60131babd3a5ad18ed8b15a3,2022-09-08_12h56.38.530,CGTgamblingSpanTasks,2022.2.1,Win32,60.08893162,,,,,,,,,,,,,,,,,,,,,,,,,,,,,,,,,,,,,,,,,,,,,,,,,,,,,,,,,,,,,,,,,,,,,,,,,,,,,,,,,,"[4,2,6,5,9,3,1,7]",5,0,5,0,1,,,,,,,,,,,,,,,,,,,,,,,,,,,,,,,,,,,,,,,,,,,,,,,,
,,60131babd3a5ad18ed8b15a3,2022-09-08_12h56.38.530,CGTgamblingSpanTasks,2022.2.1,Win32,60.08893162,,,,,,,,,,,,,,,,,,,,,,,,,,,,,,,,,,,,,,,,,,,,,,,,,,,,,,,,,,,,,,,,,,,,,,,,,,,,,,,,,,"[4,2,6,5,9,3,1,7]",6,0,6,0,1,,,,,,,,,,,,,,,,,,,,,,,,,,,,,,,,,,,,,,,,,,,,,,,,
,,60131babd3a5ad18ed8b15a3,2022-09-08_12h56.38.530,CGTgamblingSpanTasks,2022.2.1,Win32,60.08893162,,,,,,,,,,,,,,,,,,,,,,,,,,,,,,,,,,,,,,,,,,,,,,,,,,,,,,,,,,,,,,,,,,,,,,,,,,,,,,,,,,"[4,2,6,5,9,3,1,7]",7,0,7,0,1,,,,,,,,,,,,,,,,,,,,,,,,,,,,,,,,,,,,,,,,,,,,,,,,
,,60131babd3a5ad18ed8b15a3,2022-09-08_12h56.38.530,CGTgamblingSpanTasks,2022.2.1,Win32,60.08893162,,,,,,,,,,,,,,,,,,,,,,,,,,,,,,,,,,,,,,,,,,,,,,,,,,,,,,,,,,,,,,,0,,,,,,,,,,,,,,,,,,,,,,,,,42659327,-0.005729167,-0.398148155,1,0,0,cont_button,0,5,5,5,1,6,,,,,,,,,,,,,,,,,,,,,,,,,,,,,,,,,,,
,,60131babd3a5ad18ed8b15a3,2022-09-08_12h56.38.530,CGTgamblingSpanTasks,2022.2.1,Win32,60.08893162,,,,,,,,,,,,,,,,,,,,,,,,,,,,,,,,,,,,,,,,,,,,,,,,,,,,,,,,,,,,,,,,,,,,,,,,,,,,,,,,,,"[5,3,4,9,2,7,6,8]",0,0,0,0,1,,,,,,,,,,,,,,,,,,,,,,,,,,,,,,,,,,,,,,,,,,,,,,,,
,,60131babd3a5ad18ed8b15a3,2022-09-08_12h56.38.530,CGTgamblingSpanTasks,2022.2.1,Win32,60.08893162,,,,,,,,,,,,,,,,,,,,,,,,,,,,,,,,,,,,,,,,,,,,,,,,,,,,,,,,,,,,,,,,,,,,,,,,,,,,,,,,,,"[5,3,4,9,2,7,6,8]",1,0,1,0,1,,,,,,,,,,,,,,,,,,,,,,,,,,,,,,,,,,,,,,,,,,,,,,,,
,,60131babd3a5ad18ed8b15a3,2022-09-08_12h56.38.530,CGTgamblingSpanTasks,2022.2.1,Win32,60.08893162,,,,,,,,,,,,,,,,,,,,,,,,,,,,,,,,,,,,,,,,,,,,,,,,,,,,,,,,,,,,,,,,,,,,,,,,,,,,,,,,,,"[5,3,4,9,2,7,6,8]",2,0,2,0,1,,,,,,,,,,,,,,,,,,,,,,,,,,,,,,,,,,,,,,,,,,,,,,,,
,,60131babd3a5ad18ed8b15a3,2022-09-08_12h56.38.530,CGTgamblingSpanTasks,2022.2.1,Win32,60.08893162,,,,,,,,,,,,,,,,,,,,,,,,,,,,,,,,,,,,,,,,,,,,,,,,,,,,,,,,,,,,,,,,,,,,,,,,,,,,,,,,,,"[5,3,4,9,2,7,6,8]",3,0,3,0,1,,,,,,,,,,,,,,,,,,,,,,,,,,,,,,,,,,,,,,,,,,,,,,,,
,,60131babd3a5ad18ed8b15a3,2022-09-08_12h56.38.530,CGTgamblingSpanTasks,2022.2.1,Win32,60.08893162,,,,,,,,,,,,,,,,,,,,,,,,,,,,,,,,,,,,,,,,,,,,,,,,,,,,,,,,,,,,,,,,,,,,,,,,,,,,,,,,,,"[5,3,4,9,2,7,6,8]",4,0,4,0,1,,,,,,,,,,,,,,,,,,,,,,,,,,,,,,,,,,,,,,,,,,,,,,,,
,,60131babd3a5ad18ed8b15a3,2022-09-08_12h56.38.530,CGTgamblingSpanTasks,2022.2.1,Win32,60.08893162,,,,,,,,,,,,,,,,,,,,,,,,,,,,,,,,,,,,,,,,,,,,,,,,,,,,,,,,,,,,,,,,,,,,,,,,,,,,,,,,,,"[5,3,4,9,2,7,6,8]",5,0,5,0,1,,,,,,,,,,,,,,,,,,,,,,,,,,,,,,,,,,,,,,,,,,,,,,,,
,,60131babd3a5ad18ed8b15a3,2022-09-08_12h56.38.530,CGTgamblingSpanTasks,2022.2.1,Win32,60.08893162,,,,,,,,,,,,,,,,,,,,,,,,,,,,,,,,,,,,,,,,,,,,,,,,,,,,,,,,,,,,,,,,,,,,,,,,,,,,,,,,,,"[5,3,4,9,2,7,6,8]",6,0,6,0,1,,,,,,,,,,,,,,,,,,,,,,,,,,,,,,,,,,,,,,,,,,,,,,,,
,,60131babd3a5ad18ed8b15a3,2022-09-08_12h56.38.530,CGTgamblingSpanTasks,2022.2.1,Win32,60.08893162,,,,,,,,,,,,,,,,,,,,,,,,,,,,,,,,,,,,,,,,,,,,,,,,,,,,,,,,,,,,,,,,,,,,,,,,,,,,,,,,,,"[5,3,4,9,2,7,6,8]",7,0,7,0,1,,,,,,,,,,,,,,,,,,,,,,,,,,,,,,,,,,,,,,,,,,,,,,,,
,,60131babd3a5ad18ed8b15a3,2022-09-08_12h56.38.530,CGTgamblingSpanTasks,2022.2.1,Win32,60.08893162,,,,,,,,,,,,,,,,,,,,,,,,,,,,,,,,,,,,,,,,,,,,,,,,,,,,,,,,,,,,,,,0,,,,,,,,,,,,,,,,,,,,,,,,,53294768,-0.005729167,-0.398148155,1,0,0,cont_button,0,6,6,6,1,7,,,,,,,,,,,,,,,,,,,,,,,,,,,,,,,,,,,
,,60131babd3a5ad18ed8b15a3,2022-09-08_12h56.38.530,CGTgamblingSpanTasks,2022.2.1,Win32,60.08893162,,,,,,,,,,,,,,,,,,,,,,,,,,,,,,,,,,,,,,,,,,,,,,,,,,,,,,,,,,,,,,,,,,,,,,,,,,,,,,,,,,"[7,6,1,5,8,9,4]",0,0,0,0,1,,,,,,,,,,,,,,,,,,,,,,,,,,,,,,,,,,,,,,,,,,,,,,,,
,,60131babd3a5ad18ed8b15a3,2022-09-08_12h56.38.530,CGTgamblingSpanTasks,2022.2.1,Win32,60.08893162,,,,,,,,,,,,,,,,,,,,,,,,,,,,,,,,,,,,,,,,,,,,,,,,,,,,,,,,,,,,,,,,,,,,,,,,,,,,,,,,,,"[7,6,1,5,8,9,4]",1,0,1,0,1,,,,,,,,,,,,,,,,,,,,,,,,,,,,,,,,,,,,,,,,,,,,,,,,
,,60131babd3a5ad18ed8b15a3,2022-09-08_12h56.38.530,CGTgamblingSpanTasks,2022.2.1,Win32,60.08893162,,,,,,,,,,,,,,,,,,,,,,,,,,,,,,,,,,,,,,,,,,,,,,,,,,,,,,,,,,,,,,,,,,,,,,,,,,,,,,,,,,"[7,6,1,5,8,9,4]",2,0,2,0,1,,,,,,,,,,,,,,,,,,,,,,,,,,,,,,,,,,,,,,,,,,,,,,,,
,,60131babd3a5ad18ed8b15a3,2022-09-08_12h56.38.530,CGTgamblingSpanTasks,2022.2.1,Win32,60.08893162,,,,,,,,,,,,,,,,,,,,,,,,,,,,,,,,,,,,,,,,,,,,,,,,,,,,,,,,,,,,,,,,,,,,,,,,,,,,,,,,,,"[7,6,1,5,8,9,4]",3,0,3,0,1,,,,,,,,,,,,,,,,,,,,,,,,,,,,,,,,,,,,,,,,,,,,,,,,
,,60131babd3a5ad18ed8b15a3,2022-09-08_12h56.38.530,CGTgamblingSpanTasks,2022.2.1,Win32,60.08893162,,,,,,,,,,,,,,,,,,,,,,,,,,,,,,,,,,,,,,,,,,,,,,,,,,,,,,,,,,,,,,,,,,,,,,,,,,,,,,,,,,"[7,6,1,5,8,9,4]",4,0,4,0,1,,,,,,,,,,,,,,,,,,,,,,,,,,,,,,,,,,,,,,,,,,,,,,,,
,,60131babd3a5ad18ed8b15a3,2022-09-08_12h56.38.530,CGTgamblingSpanTasks,2022.2.1,Win32,60.08893162,,,,,,,,,,,,,,,,,,,,,,,,,,,,,,,,,,,,,,,,,,,,,,,,,,,,,,,,,,,,,,,,,,,,,,,,,,,,,,,,,,"[7,6,1,5,8,9,4]",5,0,5,0,1,,,,,,,,,,,,,,,,,,,,,,,,,,,,,,,,,,,,,,,,,,,,,,,,
,,60131babd3a5ad18ed8b15a3,2022-09-08_12h56.38.530,CGTgamblingSpanTasks,2022.2.1,Win32,60.08893162,,,,,,,,,,,,,,,,,,,,,,,,,,,,,,,,,,,,,,,,,,,,,,,,,,,,,,,,,,,,,,,,,,,,,,,,,,,,,,,,,,"[7,6,1,5,8,9,4]",6,0,6,0,1,,,,,,,,,,,,,,,,,,,,,,,,,,,,,,,,,,,,,,,,,,,,,,,,
,,60131babd3a5ad18ed8b15a3,2022-09-08_12h56.38.530,CGTgamblingSpanTasks,2022.2.1,Win32,60.08893162,,,,,,,,,,,,,,,,,,,,,,,,,,,,,,,,,,,,,,,,,,,,,,,,,,,,,,,,,,,,,,,0,,,,,,,,,,,,,,,,,,,,,,,,,765894,-0.005729167,-0.398148155,1,0,0,cont_button,0,7,7,7,1,8,,,,,,,,,,,,,,,,,,,,,,,,,,,,,,,,,,,
,,60131babd3a5ad18ed8b15a3,2022-09-08_12h56.38.530,CGTgamblingSpanTasks,2022.2.1,Win32,60.08893162,,,,,,,,,,,,,,,,,,,,,,,,,,,,,,,,,,,,,,,,,,,,,,,,,,,,,,,,,,,,,,,,,,,,,,,,,,,,,,,,,,"[8,9,7,4,1,3,6]",0,0,0,0,1,,,,,,,,,,,,,,,,,,,,,,,,,,,,,,,,,,,,,,,,,,,,,,,,
,,60131babd3a5ad18ed8b15a3,2022-09-08_12h56.38.530,CGTgamblingSpanTasks,2022.2.1,Win32,60.08893162,,,,,,,,,,,,,,,,,,,,,,,,,,,,,,,,,,,,,,,,,,,,,,,,,,,,,,,,,,,,,,,,,,,,,,,,,,,,,,,,,,"[8,9,7,4,1,3,6]",1,0,1,0,1,,,,,,,,,,,,,,,,,,,,,,,,,,,,,,,,,,,,,,,,,,,,,,,,
,,60131babd3a5ad18ed8b15a3,2022-09-08_12h56.38.530,CGTgamblingSpanTasks,2022.2.1,Win32,60.08893162,,,,,,,,,,,,,,,,,,,,,,,,,,,,,,,,,,,,,,,,,,,,,,,,,,,,,,,,,,,,,,,,,,,,,,,,,,,,,,,,,,"[8,9,7,4,1,3,6]",2,0,2,0,1,,,,,,,,,,,,,,,,,,,,,,,,,,,,,,,,,,,,,,,,,,,,,,,,
,,60131babd3a5ad18ed8b15a3,2022-09-08_12h56.38.530,CGTgamblingSpanTasks,2022.2.1,Win32,60.08893162,,,,,,,,,,,,,,,,,,,,,,,,,,,,,,,,,,,,,,,,,,,,,,,,,,,,,,,,,,,,,,,,,,,,,,,,,,,,,,,,,,"[8,9,7,4,1,3,6]",3,0,3,0,1,,,,,,,,,,,,,,,,,,,,,,,,,,,,,,,,,,,,,,,,,,,,,,,,
,,60131babd3a5ad18ed8b15a3,2022-09-08_12h56.38.530,CGTgamblingSpanTasks,2022.2.1,Win32,60.08893162,,,,,,,,,,,,,,,,,,,,,,,,,,,,,,,,,,,,,,,,,,,,,,,,,,,,,,,,,,,,,,,,,,,,,,,,,,,,,,,,,,"[8,9,7,4,1,3,6]",4,0,4,0,1,,,,,,,,,,,,,,,,,,,,,,,,,,,,,,,,,,,,,,,,,,,,,,,,
,,60131babd3a5ad18ed8b15a3,2022-09-08_12h56.38.530,CGTgamblingSpanTasks,2022.2.1,Win32,60.08893162,,,,,,,,,,,,,,,,,,,,,,,,,,,,,,,,,,,,,,,,,,,,,,,,,,,,,,,,,,,,,,,,,,,,,,,,,,,,,,,,,,"[8,9,7,4,1,3,6]",5,0,5,0,1,,,,,,,,,,,,,,,,,,,,,,,,,,,,,,,,,,,,,,,,,,,,,,,,
,,60131babd3a5ad18ed8b15a3,2022-09-08_12h56.38.530,CGTgamblingSpanTasks,2022.2.1,Win32,60.08893162,,,,,,,,,,,,,,,,,,,,,,,,,,,,,,,,,,,,,,,,,,,,,,,,,,,,,,,,,,,,,,,,,,,,,,,,,,,,,,,,,,"[8,9,7,4,1,3,6]",6,0,6,0,1,,,,,,,,,,,,,,,,,,,,,,,,,,,,,,,,,,,,,,,,,,,,,,,,
,,60131babd3a5ad18ed8b15a3,2022-09-08_12h56.38.530,CGTgamblingSpanTasks,2022.2.1,Win32,60.08893162,,,,,,,,,,,,,,,,,,,,,,,,,,,,,,,,,,,,,,,,,,,,,,,,,,,,,,,,,,,,,,,1,,,,,,,,,,,,,,,,,,,,,,,,,8974136,-0.005729167,-0.398148155,1,0,0,cont_button,0,8,8,8,1,9,,,,,,,,,,,,,,,,,,,,,,,,,,,,,,,,,,,
,,60131babd3a5ad18ed8b15a3,2022-09-08_12h56.38.530,CGTgamblingSpanTasks,2022.2.1,Win32,60.08893162,,,,,,,,,,,,,,,,,,,,,,,,,,,,,,,,,,,,,,,,,,,,,,,,,,,,,,,,,,,,,,,,,,,,,,,,,,,,,,,,,,"[4,1,5,6,9,3,7,8]",0,0,0,0,1,,,,,,,,,,,,,,,,,,,,,,,,,,,,,,,,,,,,,,,,,,,,,,,,
,,60131babd3a5ad18ed8b15a3,2022-09-08_12h56.38.530,CGTgamblingSpanTasks,2022.2.1,Win32,60.08893162,,,,,,,,,,,,,,,,,,,,,,,,,,,,,,,,,,,,,,,,,,,,,,,,,,,,,,,,,,,,,,,,,,,,,,,,,,,,,,,,,,"[4,1,5,6,9,3,7,8]",1,0,1,0,1,,,,,,,,,,,,,,,,,,,,,,,,,,,,,,,,,,,,,,,,,,,,,,,,
,,60131babd3a5ad18ed8b15a3,2022-09-08_12h56.38.530,CGTgamblingSpanTasks,2022.2.1,Win32,60.08893162,,,,,,,,,,,,,,,,,,,,,,,,,,,,,,,,,,,,,,,,,,,,,,,,,,,,,,,,,,,,,,,,,,,,,,,,,,,,,,,,,,"[4,1,5,6,9,3,7,8]",2,0,2,0,1,,,,,,,,,,,,,,,,,,,,,,,,,,,,,,,,,,,,,,,,,,,,,,,,
,,60131babd3a5ad18ed8b15a3,2022-09-08_12h56.38.530,CGTgamblingSpanTasks,2022.2.1,Win32,60.08893162,,,,,,,,,,,,,,,,,,,,,,,,,,,,,,,,,,,,,,,,,,,,,,,,,,,,,,,,,,,,,,,,,,,,,,,,,,,,,,,,,,"[4,1,5,6,9,3,7,8]",3,0,3,0,1,,,,,,,,,,,,,,,,,,,,,,,,,,,,,,,,,,,,,,,,,,,,,,,,
,,60131babd3a5ad18ed8b15a3,2022-09-08_12h56.38.530,CGTgamblingSpanTasks,2022.2.1,Win32,60.08893162,,,,,,,,,,,,,,,,,,,,,,,,,,,,,,,,,,,,,,,,,,,,,,,,,,,,,,,,,,,,,,,,,,,,,,,,,,,,,,,,,,"[4,1,5,6,9,3,7,8]",4,0,4,0,1,,,,,,,,,,,,,,,,,,,,,,,,,,,,,,,,,,,,,,,,,,,,,,,,
,,60131babd3a5ad18ed8b15a3,2022-09-08_12h56.38.530,CGTgamblingSpanTasks,2022.2.1,Win32,60.08893162,,,,,,,,,,,,,,,,,,,,,,,,,,,,,,,,,,,,,,,,,,,,,,,,,,,,,,,,,,,,,,,,,,,,,,,,,,,,,,,,,,"[4,1,5,6,9,3,7,8]",5,0,5,0,1,,,,,,,,,,,,,,,,,,,,,,,,,,,,,,,,,,,,,,,,,,,,,,,,
,,60131babd3a5ad18ed8b15a3,2022-09-08_12h56.38.530,CGTgamblingSpanTasks,2022.2.1,Win32,60.08893162,,,,,,,,,,,,,,,,,,,,,,,,,,,,,,,,,,,,,,,,,,,,,,,,,,,,,,,,,,,,,,,,,,,,,,,,,,,,,,,,,,"[4,1,5,6,9,3,7,8]",6,0,6,0,1,,,,,,,,,,,,,,,,,,,,,,,,,,,,,,,,,,,,,,,,,,,,,,,,
,,60131babd3a5ad18ed8b15a3,2022-09-08_12h56.38.530,CGTgamblingSpanTasks,2022.2.1,Win32,60.08893162,,,,,,,,,,,,,,,,,,,,,,,,,,,,,,,,,,,,,,,,,,,,,,,,,,,,,,,,,,,,,,,,,,,,,,,,,,,,,,,,,,"[4,1,5,6,9,3,7,8]",7,0,7,0,1,,,,,,,,,,,,,,,,,,,,,,,,,,,,,,,,,,,,,,,,,,,,,,,,
,,60131babd3a5ad18ed8b15a3,2022-09-08_12h56.38.530,CGTgamblingSpanTasks,2022.2.1,Win32,60.08893162,,,,,,,,,,,,,,,,,,,,,,,,,,,,,,,,,,,,,,,,,,,,,,,,,,,,,,,,,,,,,,,0,,,,,,,,,,,,,,,,,,,,,,,,,4156938,0.028530121,-0.39629631,1,0,0,cont_button,0,9,9,9,1,10,,,,,,,,,,,,,,,,,,,,,,,,,,,,,,,,,,,
,,60131babd3a5ad18ed8b15a3,2022-09-08_12h56.38.530,CGTgamblingSpanTasks,2022.2.1,Win32,60.08893162,,,,,,,,,,,,,,,,,,,,,,,,,,,,,,,,,,,,,,,,,,,,,,,,,,,,,,,,,,,,,,,,,,,,,,,,,,,,,,,,,,"[8,7,3,1,6,9,2,4]",0,0,0,0,1,,,,,,,,,,,,,,,,,,,,,,,,,,,,,,,,,,,,,,,,,,,,,,,,
,,60131babd3a5ad18ed8b15a3,2022-09-08_12h56.38.530,CGTgamblingSpanTasks,2022.2.1,Win32,60.08893162,,,,,,,,,,,,,,,,,,,,,,,,,,,,,,,,,,,,,,,,,,,,,,,,,,,,,,,,,,,,,,,,,,,,,,,,,,,,,,,,,,"[8,7,3,1,6,9,2,4]",1,0,1,0,1,,,,,,,,,,,,,,,,,,,,,,,,,,,,,,,,,,,,,,,,,,,,,,,,
,,60131babd3a5ad18ed8b15a3,2022-09-08_12h56.38.530,CGTgamblingSpanTasks,2022.2.1,Win32,60.08893162,,,,,,,,,,,,,,,,,,,,,,,,,,,,,,,,,,,,,,,,,,,,,,,,,,,,,,,,,,,,,,,,,,,,,,,,,,,,,,,,,,"[8,7,3,1,6,9,2,4]",2,0,2,0,1,,,,,,,,,,,,,,,,,,,,,,,,,,,,,,,,,,,,,,,,,,,,,,,,
,,60131babd3a5ad18ed8b15a3,2022-09-08_12h56.38.530,CGTgamblingSpanTasks,2022.2.1,Win32,60.08893162,,,,,,,,,,,,,,,,,,,,,,,,,,,,,,,,,,,,,,,,,,,,,,,,,,,,,,,,,,,,,,,,,,,,,,,,,,,,,,,,,,"[8,7,3,1,6,9,2,4]",3,0,3,0,1,,,,,,,,,,,,,,,,,,,,,,,,,,,,,,,,,,,,,,,,,,,,,,,,
,,60131babd3a5ad18ed8b15a3,2022-09-08_12h56.38.530,CGTgamblingSpanTasks,2022.2.1,Win32,60.08893162,,,,,,,,,,,,,,,,,,,,,,,,,,,,,,,,,,,,,,,,,,,,,,,,,,,,,,,,,,,,,,,,,,,,,,,,,,,,,,,,,,"[8,7,3,1,6,9,2,4]",4,0,4,0,1,,,,,,,,,,,,,,,,,,,,,,,,,,,,,,,,,,,,,,,,,,,,,,,,
,,60131babd3a5ad18ed8b15a3,2022-09-08_12h56.38.530,CGTgamblingSpanTasks,2022.2.1,Win32,60.08893162,,,,,,,,,,,,,,,,,,,,,,,,,,,,,,,,,,,,,,,,,,,,,,,,,,,,,,,,,,,,,,,,,,,,,,,,,,,,,,,,,,"[8,7,3,1,6,9,2,4]",5,0,5,0,1,,,,,,,,,,,,,,,,,,,,,,,,,,,,,,,,,,,,,,,,,,,,,,,,
,,60131babd3a5ad18ed8b15a3,2022-09-08_12h56.38.530,CGTgamblingSpanTasks,2022.2.1,Win32,60.08893162,,,,,,,,,,,,,,,,,,,,,,,,,,,,,,,,,,,,,,,,,,,,,,,,,,,,,,,,,,,,,,,,,,,,,,,,,,,,,,,,,,"[8,7,3,1,6,9,2,4]",6,0,6,0,1,,,,,,,,,,,,,,,,,,,,,,,,,,,,,,,,,,,,,,,,,,,,,,,,
,,60131babd3a5ad18ed8b15a3,2022-09-08_12h56.38.530,CGTgamblingSpanTasks,2022.2.1,Win32,60.08893162,,,,,,,,,,,,,,,,,,,,,,,,,,,,,,,,,,,,,,,,,,,,,,,,,,,,,,,,,,,,,,,,,,,,,,,,,,,,,,,,,,"[8,7,3,1,6,9,2,4]",7,0,7,0,1,,,,,,,,,,,,,,,,,,,,,,,,,,,,,,,,,,,,,,,,,,,,,,,,
,,60131babd3a5ad18ed8b15a3,2022-09-08_12h56.38.530,CGTgamblingSpanTasks,2022.2.1,Win32,60.08893162,,,,,,,,,,,,,,,,,,,,,,,,,,,,,,,,,,,,,,,,,,,,,,,,,,,,,,,,,,,,,,,0,,,,,,,,,,,,,,,,,,,,,,,,,874316,0.028530121,-0.39629631,1,0,0,cont_button,0,10,10,10,1,11,,,,,,,,,,,,,,,,,,,,,,,,,,,,,,,,,,,
,,60131babd3a5ad18ed8b15a3,2022-09-08_12h56.38.530,CGTgamblingSpanTasks,2022.2.1,Win32,60.08893162,,,,,,,,,,,,,,,,,,,,,,,,,,,,,,,,,,,,,,,,,,,,,,,,,,,,,,,,,,,,,,,,,,,,,,,,,,,,,,,,,,"[4,7,5,9,6,3,1]",0,0,0,0,1,,,,,,,,,,,,,,,,,,,,,,,,,,,,,,,,,,,,,,,,,,,,,,,,
,,60131babd3a5ad18ed8b15a3,2022-09-08_12h56.38.530,CGTgamblingSpanTasks,2022.2.1,Win32,60.08893162,,,,,,,,,,,,,,,,,,,,,,,,,,,,,,,,,,,,,,,,,,,,,,,,,,,,,,,,,,,,,,,,,,,,,,,,,,,,,,,,,,"[4,7,5,9,6,3,1]",1,0,1,0,1,,,,,,,,,,,,,,,,,,,,,,,,,,,,,,,,,,,,,,,,,,,,,,,,
,,60131babd3a5ad18ed8b15a3,2022-09-08_12h56.38.530,CGTgamblingSpanTasks,2022.2.1,Win32,60.08893162,,,,,,,,,,,,,,,,,,,,,,,,,,,,,,,,,,,,,,,,,,,,,,,,,,,,,,,,,,,,,,,,,,,,,,,,,,,,,,,,,,"[4,7,5,9,6,3,1]",2,0,2,0,1,,,,,,,,,,,,,,,,,,,,,,,,,,,,,,,,,,,,,,,,,,,,,,,,
,,60131babd3a5ad18ed8b15a3,2022-09-08_12h56.38.530,CGTgamblingSpanTasks,2022.2.1,Win32,60.08893162,,,,,,,,,,,,,,,,,,,,,,,,,,,,,,,,,,,,,,,,,,,,,,,,,,,,,,,,,,,,,,,,,,,,,,,,,,,,,,,,,,"[4,7,5,9,6,3,1]",3,0,3,0,1,,,,,,,,,,,,,,,,,,,,,,,,,,,,,,,,,,,,,,,,,,,,,,,,
,,60131babd3a5ad18ed8b15a3,2022-09-08_12h56.38.530,CGTgamblingSpanTasks,2022.2.1,Win32,60.08893162,,,,,,,,,,,,,,,,,,,,,,,,,,,,,,,,,,,,,,,,,,,,,,,,,,,,,,,,,,,,,,,,,,,,,,,,,,,,,,,,,,"[4,7,5,9,6,3,1]",4,0,4,0,1,,,,,,,,,,,,,,,,,,,,,,,,,,,,,,,,,,,,,,,,,,,,,,,,
,,60131babd3a5ad18ed8b15a3,2022-09-08_12h56.38.530,CGTgamblingSpanTasks,2022.2.1,Win32,60.08893162,,,,,,,,,,,,,,,,,,,,,,,,,,,,,,,,,,,,,,,,,,,,,,,,,,,,,,,,,,,,,,,,,,,,,,,,,,,,,,,,,,"[4,7,5,9,6,3,1]",5,0,5,0,1,,,,,,,,,,,,,,,,,,,,,,,,,,,,,,,,,,,,,,,,,,,,,,,,
,,60131babd3a5ad18ed8b15a3,2022-09-08_12h56.38.530,CGTgamblingSpanTasks,2022.2.1,Win32,60.08893162,,,,,,,,,,,,,,,,,,,,,,,,,,,,,,,,,,,,,,,,,,,,,,,,,,,,,,,,,,,,,,,,,,,,,,,,,,,,,,,,,,"[4,7,5,9,6,3,1]",6,0,6,0,1,,,,,,,,,,,,,,,,,,,,,,,,,,,,,,,,,,,,,,,,,,,,,,,,
,,60131babd3a5ad18ed8b15a3,2022-09-08_12h56.38.530,CGTgamblingSpanTasks,2022.2.1,Win32,60.08893162,,,,,,,,,,,,,,,,,,,,,,,,,,,,,,,,,,,,,,,,,,,,,,,,,,,,,,,,,,,,,,,1,,,,,,,,,,,,,,,,,,,,,,,,,4759631,0.028530121,-0.39629631,1,0,0,cont_button,0,11,11,11,1,12,,,,,,,,,,,,,,,,,,,,,,,,,,,,,,,,,,,
,,60131babd3a5ad18ed8b15a3,2022-09-08_12h56.38.530,CGTgamblingSpanTasks,2022.2.1,Win32,60.08893162,,,,,,,,,,,,,,,,,,,,,,,,,,,,,,,,,,,,,,,,,,,,,,,,,,,,,,,,,,,,,,,,,,,,,,,,,,,,,,,,,,"[2,7,9,6,1,5,4,8]",0,0,0,0,1,,,,,,,,,,,,,,,,,,,,,,,,,,,,,,,,,,,,,,,,,,,,,,,,
,,60131babd3a5ad18ed8b15a3,2022-09-08_12h56.38.530,CGTgamblingSpanTasks,2022.2.1,Win32,60.08893162,,,,,,,,,,,,,,,,,,,,,,,,,,,,,,,,,,,,,,,,,,,,,,,,,,,,,,,,,,,,,,,,,,,,,,,,,,,,,,,,,,"[2,7,9,6,1,5,4,8]",1,0,1,0,1,,,,,,,,,,,,,,,,,,,,,,,,,,,,,,,,,,,,,,,,,,,,,,,,
,,60131babd3a5ad18ed8b15a3,2022-09-08_12h56.38.530,CGTgamblingSpanTasks,2022.2.1,Win32,60.08893162,,,,,,,,,,,,,,,,,,,,,,,,,,,,,,,,,,,,,,,,,,,,,,,,,,,,,,,,,,,,,,,,,,,,,,,,,,,,,,,,,,"[2,7,9,6,1,5,4,8]",2,0,2,0,1,,,,,,,,,,,,,,,,,,,,,,,,,,,,,,,,,,,,,,,,,,,,,,,,
,,60131babd3a5ad18ed8b15a3,2022-09-08_12h56.38.530,CGTgamblingSpanTasks,2022.2.1,Win32,60.08893162,,,,,,,,,,,,,,,,,,,,,,,,,,,,,,,,,,,,,,,,,,,,,,,,,,,,,,,,,,,,,,,,,,,,,,,,,,,,,,,,,,"[2,7,9,6,1,5,4,8]",3,0,3,0,1,,,,,,,,,,,,,,,,,,,,,,,,,,,,,,,,,,,,,,,,,,,,,,,,
,,60131babd3a5ad18ed8b15a3,2022-09-08_12h56.38.530,CGTgamblingSpanTasks,2022.2.1,Win32,60.08893162,,,,,,,,,,,,,,,,,,,,,,,,,,,,,,,,,,,,,,,,,,,,,,,,,,,,,,,,,,,,,,,,,,,,,,,,,,,,,,,,,,"[2,7,9,6,1,5,4,8]",4,0,4,0,1,,,,,,,,,,,,,,,,,,,,,,,,,,,,,,,,,,,,,,,,,,,,,,,,
,,60131babd3a5ad18ed8b15a3,2022-09-08_12h56.38.530,CGTgamblingSpanTasks,2022.2.1,Win32,60.08893162,,,,,,,,,,,,,,,,,,,,,,,,,,,,,,,,,,,,,,,,,,,,,,,,,,,,,,,,,,,,,,,,,,,,,,,,,,,,,,,,,,"[2,7,9,6,1,5,4,8]",5,0,5,0,1,,,,,,,,,,,,,,,,,,,,,,,,,,,,,,,,,,,,,,,,,,,,,,,,
,,60131babd3a5ad18ed8b15a3,2022-09-08_12h56.38.530,CGTgamblingSpanTasks,2022.2.1,Win32,60.08893162,,,,,,,,,,,,,,,,,,,,,,,,,,,,,,,,,,,,,,,,,,,,,,,,,,,,,,,,,,,,,,,,,,,,,,,,,,,,,,,,,,"[2,7,9,6,1,5,4,8]",6,0,6,0,1,,,,,,,,,,,,,,,,,,,,,,,,,,,,,,,,,,,,,,,,,,,,,,,,
,,60131babd3a5ad18ed8b15a3,2022-09-08_12h56.38.530,CGTgamblingSpanTasks,2022.2.1,Win32,60.08893162,,,,,,,,,,,,,,,,,,,,,,,,,,,,,,,,,,,,,,,,,,,,,,,,,,,,,,,,,,,,,,,,,,,,,,,,,,,,,,,,,,"[2,7,9,6,1,5,4,8]",7,0,7,0,1,,,,,,,,,,,,,,,,,,,,,,,,,,,,,,,,,,,,,,,,,,,,,,,,
,,60131babd3a5ad18ed8b15a3,2022-09-08_12h56.38.530,CGTgamblingSpanTasks,2022.2.1,Win32,60.08893162,,,,,,,,,,,,,,,,,,,,,,,,,,,,,,,,,,,,,,,,,,,,,,,,,,,,,,,,,,,,,,,0,,,,,,,,,,,,,,,,,,,,,,,,,2796158,0.028530121,-0.39629631,1,0,0,cont_button,0,12,12,12,1,13,,,,,,,,,,,,,,,,,,,,,,,,,,,,,,,,,,,
,,60131babd3a5ad18ed8b15a3,2022-09-08_12h56.38.530,CGTgamblingSpanTasks,2022.2.1,Win32,60.08893162,,,,,,,,,,,,,,,,,,,,,,,,,,,,,,,,,,,,,,,,,,,,,,,,,,,,,,,,,,,,,,,,,,,,,,,,,,,,,,,,,,"[8,3,1,7,5,2,6,9]",0,0,0,0,1,,,,,,,,,,,,,,,,,,,,,,,,,,,,,,,,,,,,,,,,,,,,,,,,
,,60131babd3a5ad18ed8b15a3,2022-09-08_12h56.38.530,CGTgamblingSpanTasks,2022.2.1,Win32,60.08893162,,,,,,,,,,,,,,,,,,,,,,,,,,,,,,,,,,,,,,,,,,,,,,,,,,,,,,,,,,,,,,,,,,,,,,,,,,,,,,,,,,"[8,3,1,7,5,2,6,9]",1,0,1,0,1,,,,,,,,,,,,,,,,,,,,,,,,,,,,,,,,,,,,,,,,,,,,,,,,
,,60131babd3a5ad18ed8b15a3,2022-09-08_12h56.38.530,CGTgamblingSpanTasks,2022.2.1,Win32,60.08893162,,,,,,,,,,,,,,,,,,,,,,,,,,,,,,,,,,,,,,,,,,,,,,,,,,,,,,,,,,,,,,,,,,,,,,,,,,,,,,,,,,"[8,3,1,7,5,2,6,9]",2,0,2,0,1,,,,,,,,,,,,,,,,,,,,,,,,,,,,,,,,,,,,,,,,,,,,,,,,
,,60131babd3a5ad18ed8b15a3,2022-09-08_12h56.38.530,CGTgamblingSpanTasks,2022.2.1,Win32,60.08893162,,,,,,,,,,,,,,,,,,,,,,,,,,,,,,,,,,,,,,,,,,,,,,,,,,,,,,,,,,,,,,,,,,,,,,,,,,,,,,,,,,"[8,3,1,7,5,2,6,9]",3,0,3,0,1,,,,,,,,,,,,,,,,,,,,,,,,,,,,,,,,,,,,,,,,,,,,,,,,
,,60131babd3a5ad18ed8b15a3,2022-09-08_12h56.38.530,CGTgamblingSpanTasks,2022.2.1,Win32,60.08893162,,,,,,,,,,,,,,,,,,,,,,,,,,,,,,,,,,,,,,,,,,,,,,,,,,,,,,,,,,,,,,,,,,,,,,,,,,,,,,,,,,"[8,3,1,7,5,2,6,9]",4,0,4,0,1,,,,,,,,,,,,,,,,,,,,,,,,,,,,,,,,,,,,,,,,,,,,,,,,
,,60131babd3a5ad18ed8b15a3,2022-09-08_12h56.38.530,CGTgamblingSpanTasks,2022.2.1,Win32,60.08893162,,,,,,,,,,,,,,,,,,,,,,,,,,,,,,,,,,,,,,,,,,,,,,,,,,,,,,,,,,,,,,,,,,,,,,,,,,,,,,,,,,"[8,3,1,7,5,2,6,9]",5,0,5,0,1,,,,,,,,,,,,,,,,,,,,,,,,,,,,,,,,,,,,,,,,,,,,,,,,
,,60131babd3a5ad18ed8b15a3,2022-09-08_12h56.38.530,CGTgamblingSpanTasks,2022.2.1,Win32,60.08893162,,,,,,,,,,,,,,,,,,,,,,,,,,,,,,,,,,,,,,,,,,,,,,,,,,,,,,,,,,,,,,,,,,,,,,,,,,,,,,,,,,"[8,3,1,7,5,2,6,9]",6,0,6,0,1,,,,,,,,,,,,,,,,,,,,,,,,,,,,,,,,,,,,,,,,,,,,,,,,
,,60131babd3a5ad18ed8b15a3,2022-09-08_12h56.38.530,CGTgamblingSpanTasks,2022.2.1,Win32,60.08893162,,,,,,,,,,,,,,,,,,,,,,,,,,,,,,,,,,,,,,,,,,,,,,,,,,,,,,,,,,,,,,,,,,,,,,,,,,,,,,,,,,"[8,3,1,7,5,2,6,9]",7,0,7,0,1,,,,,,,,,,,,,,,,,,,,,,,,,,,,,,,,,,,,,,,,,,,,,,,,
,,60131babd3a5ad18ed8b15a3,2022-09-08_12h56.38.530,CGTgamblingSpanTasks,2022.2.1,Win32,60.08893162,,,,,,,,,,,,,,,,,,,,,,,,,,,,,,,,,,,,,,,,,,,,,,,,,,,,,,,,,,,,,,,0,,,,,,,,,,,,,,,,,,,,,,,,,83541692,0.044270833,-0.39629631,1,0,0,cont_button,0,13,13,13,1,14,,,,,,,,,,,,,,,,,,,,,,,,,,,,,,,,,,,
,,60131babd3a5ad18ed8b15a3,2022-09-08_12h56.38.530,CGTgamblingSpanTasks,2022.2.1,Win32,60.08893162,,,,,,,,,,,,,,,,,,,,,,,,,,,,,,,,,,,,,,,,,,,,,,,,,,,,,,,,,,,,,,,,,,,,,,,,,,,,,,,,,,,,,,,,,,,,,,,,,,,,,return,2.7066,,,,,,,,,,,,,,,,,,,,,,,,,,,,,,,,,
,,60131babd3a5ad18ed8b15a3,2022-09-08_12h56.38.530,CGTgamblingSpanTasks,2022.2.1,Win32,60.08893162,,,,,,,,,,,,,,,,,,,,,,,,,,,,,,,,,,,,,,,,,,,,,,,,,,,,,,,,,,,,,,,,,,,,,,,,,,,,,,,,,,,,,,,,,,,,,,,,,,,,,,,return,11.8267,,,,,,,,,,,,,,,,,,,,,,,,,,,,,,,
,,60131babd3a5ad18ed8b15a3,2022-09-08_12h56.38.530,CGTgamblingSpanTasks,2022.2.1,Win32,60.08893162,,,,,,,,,,,,,,,,,,,,,,,,,,,,,,,,,,,,,,,,,,,,,,,,,,,,,,,,,,,,,,,1,,,,,,,,,,,,3,342,24,2,42,,,,,,,,,,,,,,,,,,,,,,,,,,42,0.044270833,-0.39629631,1,0,0,cont_buttonPractice_2,0,0,0,0,1,,,,,,,,,,,,,,,,,,,
,,60131babd3a5ad18ed8b15a3,2022-09-08_12h56.38.530,CGTgamblingSpanTasks,2022.2.1,Win32,60.08893162,,,,,,,,,,,,,,,,,,,,,,,,,,,,,,,,,,,,,,,,,,,,,,,,,,,,,,,,,,,,,,,1,,,,,,,,,,,,3,937,73,2,37,,,,,,,,,,,,,,,,,,,,,,,,,,37,0.044270833,-0.39629631,1,0,0,cont_buttonPractice_2,0,1,1,1,1,,,,,,,,,,,,,,,,,,,
,,60131babd3a5ad18ed8b15a3,2022-09-08_12h56.38.530,CGTgamblingSpanTasks,2022.2.1,Win32,60.08893162,,,,,,,,,,,,,,,,,,,,,,,,,,,,,,,,,,,,,,,,,,,,,,,,,,,,,,,,,,,,,,,,,,,,,,,,,,,,,,,,,,,,,,,,,,,,,,,,,,,,,,,,,,,,,,,,,,,,,return,6.2639,,,,,,,,,,,,,,,,,
,,60131babd3a5ad18ed8b15a3,2022-09-08_12h56.38.530,CGTgamblingSpanTasks,2022.2.1,Win32,60.08893162,,,,,,,,,,,,,,,,,,,,,,,,,,,,,,,,,,,,,,,,,,,,,,,,,,,,,,,,,,,,,,,,,,,,,,,,,,,,,,,,,,"[5,4]",,,,,,,,,,,,,,,,,,,,,,,,,,,,,,,,,,,,,0,0,0,0,1,,,,,,,,,,,,
,,60131babd3a5ad18ed8b15a3,2022-09-08_12h56.38.530,CGTgamblingSpanTasks,2022.2.1,Win32,60.08893162,,,,,,,,,,,,,,,,,,,,,,,,,,,,,,,,,,,,,,,,,,,,,,,,,,,,,,,,,,,,,,,,,,,,,,,,,,,,,,,,,,"[5,4]",,,,,,,,,,,,,,,,,,,,,,,,,,,,,,,,,,,,,1,0,1,0,1,,,,,,,,,,,,
,,60131babd3a5ad18ed8b15a3,2022-09-08_12h56.38.530,CGTgamblingSpanTasks,2022.2.1,Win32,60.08893162,,,,,,,,,,,,,,,,,,,,,,,,,,,,,,,,,,,,,,,,,,,,,,,,,,,,,,,,,,,,,,,1,,,,,,,,,,,,,,,,,,,,,,,,,,,,,,,,,,,,,1,,,,,,,,,,,,,,,,,,,,,,,,45,0.044270833,-0.39629631,1,0,0,cont_buttonBS,0,0,0,0,1
,,60131babd3a5ad18ed8b15a3,2022-09-08_12h56.38.530,CGTgamblingSpanTasks,2022.2.1,Win32,60.08893162,,,,,,,,,,,,,,,,,,,,,,,,,,,,,,,,,,,,,,,,,,,,,,,,,,,,,,,,,,,,,,,,,,,,,,,,,,,,,,,,,,"[9,5,2]",,,,,,,,,,,,,,,,,,,,,,,,,,,,,,,,,,,,,0,0,0,0,1,,,,,,,,,,,,
,,60131babd3a5ad18ed8b15a3,2022-09-08_12h56.38.530,CGTgamblingSpanTasks,2022.2.1,Win32,60.08893162,,,,,,,,,,,,,,,,,,,,,,,,,,,,,,,,,,,,,,,,,,,,,,,,,,,,,,,,,,,,,,,,,,,,,,,,,,,,,,,,,,"[9,5,2]",,,,,,,,,,,,,,,,,,,,,,,,,,,,,,,,,,,,,1,0,1,0,1,,,,,,,,,,,,
,,60131babd3a5ad18ed8b15a3,2022-09-08_12h56.38.530,CGTgamblingSpanTasks,2022.2.1,Win32,60.08893162,,,,,,,,,,,,,,,,,,,,,,,,,,,,,,,,,,,,,,,,,,,,,,,,,,,,,,,,,,,,,,,,,,,,,,,,,,,,,,,,,,"[9,5,2]",,,,,,,,,,,,,,,,,,,,,,,,,,,,,,,,,,,,,2,0,2,0,1,,,,,,,,,,,,
,,60131babd3a5ad18ed8b15a3,2022-09-08_12h56.38.530,CGTgamblingSpanTasks,2022.2.1,Win32,60.08893162,,,,,,,,,,,,,,,,,,,,,,,,,,,,,,,,,,,,,,,,,,,,,,,,,,,,,,,,,,,,,,,1,,,,,,,,,,,,,,,,,,,,,,,,,,,,,,,,,,,,,2,,,,,,,,,,,,,,,,,,,,,,,,259,0.044270833,-0.39629631,1,0,0,cont_buttonBS,0,1,1,1,1
,,60131babd3a5ad18ed8b15a3,2022-09-08_12h56.38.530,CGTgamblingSpanTasks,2022.2.1,Win32,60.08893162,,,,,,,,,,,,,,,,,,,,,,,,,,,,,,,,,,,,,,,,,,,,,,,,,,,,,,,,,,,,,,,,,,,,,,,,,,,,,,,,,,"[5,2,8,4]",,,,,,,,,,,,,,,,,,,,,,,,,,,,,,,,,,,,,0,0,0,0,1,,,,,,,,,,,,
,,60131babd3a5ad18ed8b15a3,2022-09-08_12h56.38.530,CGTgamblingSpanTasks,2022.2.1,Win32,60.08893162,,,,,,,,,,,,,,,,,,,,,,,,,,,,,,,,,,,,,,,,,,,,,,,,,,,,,,,,,,,,,,,,,,,,,,,,,,,,,,,,,,"[5,2,8,4]",,,,,,,,,,,,,,,,,,,,,,,,,,,,,,,,,,,,,1,0,1,0,1,,,,,,,,,,,,
,,60131babd3a5ad18ed8b15a3,2022-09-08_12h56.38.530,CGTgamblingSpanTasks,2022.2.1,Win32,60.08893162,,,,,,,,,,,,,,,,,,,,,,,,,,,,,,,,,,,,,,,,,,,,,,,,,,,,,,,,,,,,,,,,,,,,,,,,,,,,,,,,,,"[5,2,8,4]",,,,,,,,,,,,,,,,,,,,,,,,,,,,,,,,,,,,,2,0,2,0,1,,,,,,,,,,,,
,,60131babd3a5ad18ed8b15a3,2022-09-08_12h56.38.530,CGTgamblingSpanTasks,2022.2.1,Win32,60.08893162,,,,,,,,,,,,,,,,,,,,,,,,,,,,,,,,,,,,,,,,,,,,,,,,,,,,,,,,,,,,,,,,,,,,,,,,,,,,,,,,,,"[5,2,8,4]",,,,,,,,,,,,,,,,,,,,,,,,,,,,,,,,,,,,,3,0,3,0,1,,,,,,,,,,,,
,,60131babd3a5ad18ed8b15a3,2022-09-08_12h56.38.530,CGTgamblingSpanTasks,2022.2.1,Win32,60.08893162,,,,,,,,,,,,,,,,,,,,,,,,,,,,,,,,,,,,,,,,,,,,,,,,,,,,,,,,,,,,,,,1,,,,,,,,,,,,,,,,,,,,,,,,,,,,,,,,,,,,,3,,,,,,,,,,,,,,,,,,,,,,,,4825,0.050752322,-0.397222201,1,0,0,cont_buttonBS,0,2,2,2,1
,,60131babd3a5ad18ed8b15a3,2022-09-08_12h56.38.530,CGTgamblingSpanTasks,2022.2.1,Win32,60.08893162,,,,,,,,,,,,,,,,,,,,,,,,,,,,,,,,,,,,,,,,,,,,,,,,,,,,,,,,,,,,,,,,,,,,,,,,,,,,,,,,,,"[4,6,5,9,7]",,,,,,,,,,,,,,,,,,,,,,,,,,,,,,,,,,,,,0,0,0,0,1,,,,,,,,,,,,
,,60131babd3a5ad18ed8b15a3,2022-09-08_12h56.38.530,CGTgamblingSpanTasks,2022.2.1,Win32,60.08893162,,,,,,,,,,,,,,,,,,,,,,,,,,,,,,,,,,,,,,,,,,,,,,,,,,,,,,,,,,,,,,,,,,,,,,,,,,,,,,,,,,"[4,6,5,9,7]",,,,,,,,,,,,,,,,,,,,,,,,,,,,,,,,,,,,,1,0,1,0,1,,,,,,,,,,,,
,,60131babd3a5ad18ed8b15a3,2022-09-08_12h56.38.530,CGTgamblingSpanTasks,2022.2.1,Win32,60.08893162,,,,,,,,,,,,,,,,,,,,,,,,,,,,,,,,,,,,,,,,,,,,,,,,,,,,,,,,,,,,,,,,,,,,,,,,,,,,,,,,,,"[4,6,5,9,7]",,,,,,,,,,,,,,,,,,,,,,,,,,,,,,,,,,,,,2,0,2,0,1,,,,,,,,,,,,
,,60131babd3a5ad18ed8b15a3,2022-09-08_12h56.38.530,CGTgamblingSpanTasks,2022.2.1,Win32,60.08893162,,,,,,,,,,,,,,,,,,,,,,,,,,,,,,,,,,,,,,,,,,,,,,,,,,,,,,,,,,,,,,,,,,,,,,,,,,,,,,,,,,"[4,6,5,9,7]",,,,,,,,,,,,,,,,,,,,,,,,,,,,,,,,,,,,,3,0,3,0,1,,,,,,,,,,,,
,,60131babd3a5ad18ed8b15a3,2022-09-08_12h56.38.530,CGTgamblingSpanTasks,2022.2.1,Win32,60.08893162,,,,,,,,,,,,,,,,,,,,,,,,,,,,,,,,,,,,,,,,,,,,,,,,,,,,,,,,,,,,,,,,,,,,,,,,,,,,,,,,,,"[4,6,5,9,7]",,,,,,,,,,,,,,,,,,,,,,,,,,,,,,,,,,,,,4,0,4,0,1,,,,,,,,,,,,
,,60131babd3a5ad18ed8b15a3,2022-09-08_12h56.38.530,CGTgamblingSpanTasks,2022.2.1,Win32,60.08893162,,,,,,,,,,,,,,,,,,,,,,,,,,,,,,,,,,,,,,,,,,,,,,,,,,,,,,,,,,,,,,,1,,,,,,,,,,,,,,,,,,,,,,,,,,,,,,,,,,,,,4,,,,,,,,,,,,,,,,,,,,,,,,79564,0.051678276,-0.397222201,1,0,0,cont_buttonBS,0,3,3,3,1
,,60131babd3a5ad18ed8b15a3,2022-09-08_12h56.38.530,CGTgamblingSpanTasks,2022.2.1,Win32,60.08893162,,,,,,,,,,,,,,,,,,,,,,,,,,,,,,,,,,,,,,,,,,,,,,,,,,,,,,,,,,,,,,,,,,,,,,,,,,,,,,,,,,"[9,1,8,6,7,2]",,,,,,,,,,,,,,,,,,,,,,,,,,,,,,,,,,,,,0,0,0,0,1,,,,,,,,,,,,
,,60131babd3a5ad18ed8b15a3,2022-09-08_12h56.38.530,CGTgamblingSpanTasks,2022.2.1,Win32,60.08893162,,,,,,,,,,,,,,,,,,,,,,,,,,,,,,,,,,,,,,,,,,,,,,,,,,,,,,,,,,,,,,,,,,,,,,,,,,,,,,,,,,"[9,1,8,6,7,2]",,,,,,,,,,,,,,,,,,,,,,,,,,,,,,,,,,,,,1,0,1,0,1,,,,,,,,,,,,
,,60131babd3a5ad18ed8b15a3,2022-09-08_12h56.38.530,CGTgamblingSpanTasks,2022.2.1,Win32,60.08893162,,,,,,,,,,,,,,,,,,,,,,,,,,,,,,,,,,,,,,,,,,,,,,,,,,,,,,,,,,,,,,,,,,,,,,,,,,,,,,,,,,"[9,1,8,6,7,2]",,,,,,,,,,,,,,,,,,,,,,,,,,,,,,,,,,,,,2,0,2,0,1,,,,,,,,,,,,
,,60131babd3a5ad18ed8b15a3,2022-09-08_12h56.38.530,CGTgamblingSpanTasks,2022.2.1,Win32,60.08893162,,,,,,,,,,,,,,,,,,,,,,,,,,,,,,,,,,,,,,,,,,,,,,,,,,,,,,,,,,,,,,,,,,,,,,,,,,,,,,,,,,"[9,1,8,6,7,2]",,,,,,,,,,,,,,,,,,,,,,,,,,,,,,,,,,,,,3,0,3,0,1,,,,,,,,,,,,
,,60131babd3a5ad18ed8b15a3,2022-09-08_12h56.38.530,CGTgamblingSpanTasks,2022.2.1,Win32,60.08893162,,,,,,,,,,,,,,,,,,,,,,,,,,,,,,,,,,,,,,,,,,,,,,,,,,,,,,,,,,,,,,,,,,,,,,,,,,,,,,,,,,"[9,1,8,6,7,2]",,,,,,,,,,,,,,,,,,,,,,,,,,,,,,,,,,,,,4,0,4,0,1,,,,,,,,,,,,
,,60131babd3a5ad18ed8b15a3,2022-09-08_12h56.38.530,CGTgamblingSpanTasks,2022.2.1,Win32,60.08893162,,,,,,,,,,,,,,,,,,,,,,,,,,,,,,,,,,,,,,,,,,,,,,,,,,,,,,,,,,,,,,,,,,,,,,,,,,,,,,,,,,"[9,1,8,6,7,2]",,,,,,,,,,,,,,,,,,,,,,,,,,,,,,,,,,,,,5,0,5,0,1,,,,,,,,,,,,
,,60131babd3a5ad18ed8b15a3,2022-09-08_12h56.38.530,CGTgamblingSpanTasks,2022.2.1,Win32,60.08893162,,,,,,,,,,,,,,,,,,,,,,,,,,,,,,,,,,,,,,,,,,,,,,,,,,,,,,,,,,,,,,,0,,,,,,,,,,,,,,,,,,,,,,,,,,,,,,,,,,,,,5,,,,,,,,,,,,,,,,,,,,,,,,27619,0.051678276,-0.397222201,1,0,0,cont_buttonBS,0,4,4,4,1
,,60131babd3a5ad18ed8b15a3,2022-09-08_12h56.38.530,CGTgamblingSpanTasks,2022.2.1,Win32,60.08893162,,,,,,,,,,,,,,,,,,,,,,,,,,,,,,,,,,,,,,,,,,,,,,,,,,,,,,,,,,,,,,,,,,,,,,,,,,,,,,,,,,"[7,6,8,4,3,9]",,,,,,,,,,,,,,,,,,,,,,,,,,,,,,,,,,,,,0,0,0,0,1,,,,,,,,,,,,
,,60131babd3a5ad18ed8b15a3,2022-09-08_12h56.38.530,CGTgamblingSpanTasks,2022.2.1,Win32,60.08893162,,,,,,,,,,,,,,,,,,,,,,,,,,,,,,,,,,,,,,,,,,,,,,,,,,,,,,,,,,,,,,,,,,,,,,,,,,,,,,,,,,"[7,6,8,4,3,9]",,,,,,,,,,,,,,,,,,,,,,,,,,,,,,,,,,,,,1,0,1,0,1,,,,,,,,,,,,
,,60131babd3a5ad18ed8b15a3,2022-09-08_12h56.38.530,CGTgamblingSpanTasks,2022.2.1,Win32,60.08893162,,,,,,,,,,,,,,,,,,,,,,,,,,,,,,,,,,,,,,,,,,,,,,,,,,,,,,,,,,,,,,,,,,,,,,,,,,,,,,,,,,"[7,6,8,4,3,9]",,,,,,,,,,,,,,,,,,,,,,,,,,,,,,,,,,,,,2,0,2,0,1,,,,,,,,,,,,
,,60131babd3a5ad18ed8b15a3,2022-09-08_12h56.38.530,CGTgamblingSpanTasks,2022.2.1,Win32,60.08893162,,,,,,,,,,,,,,,,,,,,,,,,,,,,,,,,,,,,,,,,,,,,,,,,,,,,,,,,,,,,,,,,,,,,,,,,,,,,,,,,,,"[7,6,8,4,3,9]",,,,,,,,,,,,,,,,,,,,,,,,,,,,,,,,,,,,,3,0,3,0,1,,,,,,,,,,,,
,,60131babd3a5ad18ed8b15a3,2022-09-08_12h56.38.530,CGTgamblingSpanTasks,2022.2.1,Win32,60.08893162,,,,,,,,,,,,,,,,,,,,,,,,,,,,,,,,,,,,,,,,,,,,,,,,,,,,,,,,,,,,,,,,,,,,,,,,,,,,,,,,,,"[7,6,8,4,3,9]",,,,,,,,,,,,,,,,,,,,,,,,,,,,,,,,,,,,,4,0,4,0,1,,,,,,,,,,,,
,,60131babd3a5ad18ed8b15a3,2022-09-08_12h56.38.530,CGTgamblingSpanTasks,2022.2.1,Win32,60.08893162,,,,,,,,,,,,,,,,,,,,,,,,,,,,,,,,,,,,,,,,,,,,,,,,,,,,,,,,,,,,,,,,,,,,,,,,,,,,,,,,,,"[7,6,8,4,3,9]",,,,,,,,,,,,,,,,,,,,,,,,,,,,,,,,,,,,,5,0,5,0,1,,,,,,,,,,,,
,,60131babd3a5ad18ed8b15a3,2022-09-08_12h56.38.530,CGTgamblingSpanTasks,2022.2.1,Win32,60.08893162,,,,,,,,,,,,,,,,,,,,,,,,,,,,,,,,,,,,,,,,,,,,,,,,,,,,,,,,,,,,,,,1,,,,,,,,,,,,,,,,,,,,,,,,,,,,,,,,,,,,,6,,,,,,,,,,,,,,,,,,,,,,,,934867,0.051678276,-0.397222201,1,0,0,cont_buttonBS,0,5,5,5,1
,,60131babd3a5ad18ed8b15a3,2022-09-08_12h56.38.530,CGTgamblingSpanTasks,2022.2.1,Win32,60.08893162,,,,,,,,,,,,,,,,,,,,,,,,,,,,,,,,,,,,,,,,,,,,,,,,,,,,,,,,,,,,,,,,,,,,,,,,,,,,,,,,,,"[1,5,8,6,7,9,2]",,,,,,,,,,,,,,,,,,,,,,,,,,,,,,,,,,,,,0,0,0,0,1,,,,,,,,,,,,
,,60131babd3a5ad18ed8b15a3,2022-09-08_12h56.38.530,CGTgamblingSpanTasks,2022.2.1,Win32,60.08893162,,,,,,,,,,,,,,,,,,,,,,,,,,,,,,,,,,,,,,,,,,,,,,,,,,,,,,,,,,,,,,,,,,,,,,,,,,,,,,,,,,"[1,5,8,6,7,9,2]",,,,,,,,,,,,,,,,,,,,,,,,,,,,,,,,,,,,,1,0,1,0,1,,,,,,,,,,,,
,,60131babd3a5ad18ed8b15a3,2022-09-08_12h56.38.530,CGTgamblingSpanTasks,2022.2.1,Win32,60.08893162,,,,,,,,,,,,,,,,,,,,,,,,,,,,,,,,,,,,,,,,,,,,,,,,,,,,,,,,,,,,,,,,,,,,,,,,,,,,,,,,,,"[1,5,8,6,7,9,2]",,,,,,,,,,,,,,,,,,,,,,,,,,,,,,,,,,,,,2,0,2,0,1,,,,,,,,,,,,
,,60131babd3a5ad18ed8b15a3,2022-09-08_12h56.38.530,CGTgamblingSpanTasks,2022.2.1,Win32,60.08893162,,,,,,,,,,,,,,,,,,,,,,,,,,,,,,,,,,,,,,,,,,,,,,,,,,,,,,,,,,,,,,,,,,,,,,,,,,,,,,,,,,"[1,5,8,6,7,9,2]",,,,,,,,,,,,,,,,,,,,,,,,,,,,,,,,,,,,,3,0,3,0,1,,,,,,,,,,,,
,,60131babd3a5ad18ed8b15a3,2022-09-08_12h56.38.530,CGTgamblingSpanTasks,2022.2.1,Win32,60.08893162,,,,,,,,,,,,,,,,,,,,,,,,,,,,,,,,,,,,,,,,,,,,,,,,,,,,,,,,,,,,,,,,,,,,,,,,,,,,,,,,,,"[1,5,8,6,7,9,2]",,,,,,,,,,,,,,,,,,,,,,,,,,,,,,,,,,,,,4,0,4,0,1,,,,,,,,,,,,
,,60131babd3a5ad18ed8b15a3,2022-09-08_12h56.38.530,CGTgamblingSpanTasks,2022.2.1,Win32,60.08893162,,,,,,,,,,,,,,,,,,,,,,,,,,,,,,,,,,,,,,,,,,,,,,,,,,,,,,,,,,,,,,,,,,,,,,,,,,,,,,,,,,"[1,5,8,6,7,9,2]",,,,,,,,,,,,,,,,,,,,,,,,,,,,,,,,,,,,,5,0,5,0,1,,,,,,,,,,,,
,,60131babd3a5ad18ed8b15a3,2022-09-08_12h56.38.530,CGTgamblingSpanTasks,2022.2.1,Win32,60.08893162,,,,,,,,,,,,,,,,,,,,,,,,,,,,,,,,,,,,,,,,,,,,,,,,,,,,,,,,,,,,,,,,,,,,,,,,,,,,,,,,,,"[1,5,8,6,7,9,2]",,,,,,,,,,,,,,,,,,,,,,,,,,,,,,,,,,,,,6,0,6,0,1,,,,,,,,,,,,
,,60131babd3a5ad18ed8b15a3,2022-09-08_12h56.38.530,CGTgamblingSpanTasks,2022.2.1,Win32,60.08893162,,,,,,,,,,,,,,,,,,,,,,,,,,,,,,,,,,,,,,,,,,,,,,,,,,,,,,,,,,,,,,,0,,,,,,,,,,,,,,,,,,,,,,,,,,,,,,,,,,,,,7,,,,,,,,,,,,,,,,,,,,,,,,2978651,0.051678276,-0.397222201,1,0,0,cont_buttonBS,0,6,6,6,1
,,60131babd3a5ad18ed8b15a3,2022-09-08_12h56.38.530,CGTgamblingSpanTasks,2022.2.1,Win32,60.08893162,,,,,,,,,,,,,,,,,,,,,,,,,,,,,,,,,,,,,,,,,,,,,,,,,,,,,,,,,,,,,,,,,,,,,,,,,,,,,,,,,,"[7,9,5,4,8,2,3]",,,,,,,,,,,,,,,,,,,,,,,,,,,,,,,,,,,,,0,0,0,0,1,,,,,,,,,,,,
,,60131babd3a5ad18ed8b15a3,2022-09-08_12h56.38.530,CGTgamblingSpanTasks,2022.2.1,Win32,60.08893162,,,,,,,,,,,,,,,,,,,,,,,,,,,,,,,,,,,,,,,,,,,,,,,,,,,,,,,,,,,,,,,,,,,,,,,,,,,,,,,,,,"[7,9,5,4,8,2,3]",,,,,,,,,,,,,,,,,,,,,,,,,,,,,,,,,,,,,1,0,1,0,1,,,,,,,,,,,,
,,60131babd3a5ad18ed8b15a3,2022-09-08_12h56.38.530,CGTgamblingSpanTasks,2022.2.1,Win32,60.08893162,,,,,,,,,,,,,,,,,,,,,,,,,,,,,,,,,,,,,,,,,,,,,,,,,,,,,,,,,,,,,,,,,,,,,,,,,,,,,,,,,,"[7,9,5,4,8,2,3]",,,,,,,,,,,,,,,,,,,,,,,,,,,,,,,,,,,,,2,0,2,0,1,,,,,,,,,,,,
,,60131babd3a5ad18ed8b15a3,2022-09-08_12h56.38.530,CGTgamblingSpanTasks,2022.2.1,Win32,60.08893162,,,,,,,,,,,,,,,,,,,,,,,,,,,,,,,,,,,,,,,,,,,,,,,,,,,,,,,,,,,,,,,,,,,,,,,,,,,,,,,,,,"[7,9,5,4,8,2,3]",,,,,,,,,,,,,,,,,,,,,,,,,,,,,,,,,,,,,3,0,3,0,1,,,,,,,,,,,,
,,60131babd3a5ad18ed8b15a3,2022-09-08_12h56.38.530,CGTgamblingSpanTasks,2022.2.1,Win32,60.08893162,,,,,,,,,,,,,,,,,,,,,,,,,,,,,,,,,,,,,,,,,,,,,,,,,,,,,,,,,,,,,,,,,,,,,,,,,,,,,,,,,,"[7,9,5,4,8,2,3]",,,,,,,,,,,,,,,,,,,,,,,,,,,,,,,,,,,,,4,0,4,0,1,,,,,,,,,,,,
,,60131babd3a5ad18ed8b15a3,2022-09-08_12h56.38.530,CGTgamblingSpanTasks,2022.2.1,Win32,60.08893162,,,,,,,,,,,,,,,,,,,,,,,,,,,,,,,,,,,,,,,,,,,,,,,,,,,,,,,,,,,,,,,,,,,,,,,,,,,,,,,,,,"[7,9,5,4,8,2,3]",,,,,,,,,,,,,,,,,,,,,,,,,,,,,,,,,,,,,5,0,5,0,1,,,,,,,,,,,,
