initITIstatic,initITIdynamic,participant,date,expName,psychopyVersion,OS,frameRate,inst1.keys,inst1.rt,startPracResp.keys,startPracResp.rt,choice1.keys,choice1.rt,outcome,extraITI,trials.thisRepN,trials.thisTrialN,trials.thisN,trials.thisIndex,trials.ran,riskyGain,riskyLoss,alternative,isi,iti,loc,postPractResp.keys,postPractResp.rt,realloc,realChoice.keys,realChoice.rt,outcomes,choices,actualITI,init ITI,staticRDM.thisRepN,staticRDM.thisTrialN,staticRDM.thisN,staticRDM.thisIndex,staticRDM.ran,riskyoption1,riskyoption2,safeoption,ischecktrial,dynamicChoiceSetName,dynamicChoiceSetPath,bestRho,bestMu,trials_2.thisRepN,trials_2.thisTrialN,trials_2.thisN,trials_2.thisIndex,trials_2.ran,key_resp.keys,key_resp.rt,dynamicRDM.thisRepN,dynamicRDM.thisTrialN,dynamicRDM.thisN,dynamicRDM.thisIndex,dynamicRDM.ran,choiceP,easy0difficult1,stopBreak.keys,stopBreak.rt,movealong.keys,movealong.rt,startPractice.keys,startPractice.rt,textboxPractice.text,correct,mousePractice.x,mousePractice.y,mousePractice.leftButton,mousePractice.midButton,mousePractice.rightButton,mousePractice.clicked_name,trialFSPractice.thisRepN,trialFSPractice.thisTrialN,trialFSPractice.thisN,trialFSPractice.thisIndex,trialFSPractice.ran,digitSpanForward,digits,digitsReverse,digitSpanReverse,digitsReverseCorrAnswer,startFSreal.keys,startFSreal.rt,digitsForTrial,digitLoop.thisRepN,digitLoop.thisTrialN,digitLoop.thisN,digitLoop.thisIndex,digitLoop.ran,textbox.text,mouse_3.x,mouse_3.y,mouse_3.leftButton,mouse_3.midButton,mouse_3.rightButton,mouse_3.clicked_name,trialsFS.thisRepN,trialsFS.thisTrialN,trialsFS.thisN,trialsFS.thisIndex,trialsFS.ran,trialNumber,moveToBS.keys,moveToBS.rt,startBSprac.keys,startBSprac.rt,textboxPractice_2.text,mousePractice_2.x,mousePractice_2.y,mousePractice_2.leftButton,mousePractice_2.midButton,mousePractice_2.rightButton,mousePractice_2.clicked_name,trialsPracticeBS.thisRepN,trialsPracticeBS.thisTrialN,trialsPracticeBS.thisN,trialsPracticeBS.thisIndex,trialsPracticeBS.ran,startBSreal.keys,startBSreal.rt,digitLoopBS.thisRepN,digitLoopBS.thisTrialN,digitLoopBS.thisN,digitLoopBS.thisIndex,digitLoopBS.ran,textboxBS.text,mouseBS.x,mouseBS.y,mouseBS.leftButton,mouseBS.midButton,mouseBS.rightButton,mouseBS.clicked_name,trialsBS.thisRepN,trialsBS.thisTrialN,trialsBS.thisN,trialsBS.thisIndex,trialsBS.ran
"[1.5,1,1.5,1,1,1,1.5,1.5,1.5,1,1.5,1.5,1,1,1,1,1,1.5,1,1.5,1,1.5,1.5,1.5,1,1.5,1,1,1.5,1.5,1,1.5,1.5,1,1.5,1.5,1,1.5,1,1,1.5,1,1.5,1,1,1,1.5,1.5,1,1.5]","[1,1.5,1.5,1.5,1,1.5,1.5,1.5,1,1,1.5,1.5,1,1,1.5,1,1,1,1.5,1.5,1,1.5,1.5,1.5,1.5,1,1,1.5,1.5,1.5,1,1,1,1,1.5,1.5,1,1.5,1,1,1.5,1,1.5,1.5,1.5,1,1.5,1.5,1.5,1.5,1.5,1,1.5,1,1.5,1.5,1.5,1.5,1.5,1.5,1.5,1,1,1.5,1,1.5,1,1,1,1,1,1.5,1.5,1,1,1.5,1,1.5,1.5,1.5,1,1.5,1,1,1,1,1,1,1,1,1.5,1.5,1,1,1,1.5,1.5,1,1,1.5,1,1.5,1,1,1,1.5,1,1.5,1,1,1,1.5,1,1,1.5,1.5,1.5,1,1.5,1]",5f63cec2fc0d7912ab4e3d6c,2022-09-08_12h45.18.716,CGTgamblingSpanTasks,2022.2.1,Win32,60.0240096,,,,,,,,,,,,,,,,,,,,,,,,,,,,,,,,,,,,,,,,,,,,,,,,,,,,,,,,,,,,,,,,,,,,,,,,,,,,,,,,,,,,,,,,,,,,,,,,,,,,,,,,,,,,,,,,,,,,,,,,,,,,,,,,,,,,,,,
,,5f63cec2fc0d7912ab4e3d6c,2022-09-08_12h45.18.716,CGTgamblingSpanTasks,2022.2.1,Win32,60.0240096,return,1.75,,,,,,,,,,,,,,,,,,,,,,,,,,,,,,,,,,,,,,,,,,,,,,,,,,,,,,,,,,,,,,,,,,,,,,,,,,,,,,,,,,,,,,,,,,,,,,,,,,,,,,,,,,,,,,,,,,,,,,,,,,,,,,,,,,,,,
,,5f63cec2fc0d7912ab4e3d6c,2022-09-08_12h45.18.716,CGTgamblingSpanTasks,2022.2.1,Win32,60.0240096,,,v,1.253,,,,,,,,,,,,,,,,,,,,,,,,,,,,,,,,,,,,,,,,,,,,,,,,,,,,,,,,,,,,,,,,,,,,,,,,,,,,,,,,,,,,,,,,,,,,,,,,,,,,,,,,,,,,,,,,,,,,,,,,,,,,,,,,,,,
,,5f63cec2fc0d7912ab4e3d6c,2022-09-08_12h45.18.716,CGTgamblingSpanTasks,2022.2.1,Win32,60.0240096,,,,,v,2.588,18.23,1.412,0,0,0,0,1,18.23,0,9.45,2,1,1,,,,,,,,,,,,,,,,,,,,,,,,,,,,,,,,,,,,,,,,,,,,,,,,,,,,,,,,,,,,,,,,,,,,,,,,,,,,,,,,,,,,,,,,,,,,,,,,,,,,,,,,,,,,,,,,,,,,
,,5f63cec2fc0d7912ab4e3d6c,2022-09-08_12h45.18.716,CGTgamblingSpanTasks,2022.2.1,Win32,60.0240096,,,,,n,2.214,35.16,1.786,0,1,1,1,1,53.27,0,35.16,1,1.5,1,,,,,,,,,,,,,,,,,,,,,,,,,,,,,,,,,,,,,,,,,,,,,,,,,,,,,,,,,,,,,,,,,,,,,,,,,,,,,,,,,,,,,,,,,,,,,,,,,,,,,,,,,,,,,,,,,,,,
,,5f63cec2fc0d7912ab4e3d6c,2022-09-08_12h45.18.716,CGTgamblingSpanTasks,2022.2.1,Win32,60.0240096,,,,,n,2.184,0,1.816,0,2,2,2,1,8.27,0,1.15,1,1.5,2,,,,,,,,,,,,,,,,,,,,,,,,,,,,,,,,,,,,,,,,,,,,,,,,,,,,,,,,,,,,,,,,,,,,,,,,,,,,,,,,,,,,,,,,,,,,,,,,,,,,,,,,,,,,,,,,,,,,
,,5f63cec2fc0d7912ab4e3d6c,2022-09-08_12h45.18.716,CGTgamblingSpanTasks,2022.2.1,Win32,60.0240096,,,,,n,1.697,40.41,2.303,0,3,3,3,1,45.88,0,40.41,3,1,1,,,,,,,,,,,,,,,,,,,,,,,,,,,,,,,,,,,,,,,,,,,,,,,,,,,,,,,,,,,,,,,,,,,,,,,,,,,,,,,,,,,,,,,,,,,,,,,,,,,,,,,,,,,,,,,,,,,,
,,5f63cec2fc0d7912ab4e3d6c,2022-09-08_12h45.18.716,CGTgamblingSpanTasks,2022.2.1,Win32,60.0240096,,,,,v,2.716,11.96,1.284,0,4,4,4,1,21.56,0,11.96,1,1.5,2,,,,,,,,,,,,,,,,,,,,,,,,,,,,,,,,,,,,,,,,,,,,,,,,,,,,,,,,,,,,,,,,,,,,,,,,,,,,,,,,,,,,,,,,,,,,,,,,,,,,,,,,,,,,,,,,,,,,
,,5f63cec2fc0d7912ab4e3d6c,2022-09-08_12h45.18.716,CGTgamblingSpanTasks,2022.2.1,Win32,60.0240096,,,,,,,,,,,,,,,,,,,,v,2.865,,,,,,,,,,,,,,,,,,,,,,,,,,,,,,,,,,,,,,,,,,,,,,,,,,,,,,,,,,,,,,,,,,,,,,,,,,,,,,,,,,,,,,,,,,,,,,,,,,,,,,,,,,,,,,,,,,
,,5f63cec2fc0d7912ab4e3d6c,2022-09-08_12h45.18.716,CGTgamblingSpanTasks,2022.2.1,Win32,60.0240096,,,,,,,,2.618,,,,,,,,,,,,,,1,n,1.382,10.27,0,4.118,1.5,0,0,0,35,1,15.47,0,10.27,0,,,,,,,,,,,,,,,,,,,,,,,,,,,,,,,,,,,,,,,,,,,,,,,,,,,,,,,,,,,,,,,,,,,,,,,,,,,,,,,,,,,,,,,,,,,,,,,,,,
,,5f63cec2fc0d7912ab4e3d6c,2022-09-08_12h45.18.716,CGTgamblingSpanTasks,2022.2.1,Win32,60.0240096,,,,,,,,2.085,,,,,,,,,,,,,,1,v,1.915,12.68,1,3.085,1,0,1,1,14,1,12.68,0,5.66,0,,,,,,,,,,,,,,,,,,,,,,,,,,,,,,,,,,,,,,,,,,,,,,,,,,,,,,,,,,,,,,,,,,,,,,,,,,,,,,,,,,,,,,,,,,,,,,,,,,
,,5f63cec2fc0d7912ab4e3d6c,2022-09-08_12h45.18.716,CGTgamblingSpanTasks,2022.2.1,Win32,60.0240096,,,,,,,,1.782,,,,,,,,,,,,,,1,n,2.218,6.53,0,3.282,1.5,0,2,2,28,1,10.95,0,6.53,0,,,,,,,,,,,,,,,,,,,,,,,,,,,,,,,,,,,,,,,,,,,,,,,,,,,,,,,,,,,,,,,,,,,,,,,,,,,,,,,,,,,,,,,,,,,,,,,,,,
,,5f63cec2fc0d7912ab4e3d6c,2022-09-08_12h45.18.716,CGTgamblingSpanTasks,2022.2.1,Win32,60.0240096,,,,,,,,2.092,,,,,,,,,,,,,,2,n,1.908,0,1,3.092,1,0,3,3,8,1,13.94,0,5.03,0,,,,,,,,,,,,,,,,,,,,,,,,,,,,,,,,,,,,,,,,,,,,,,,,,,,,,,,,,,,,,,,,,,,,,,,,,,,,,,,,,,,,,,,,,,,,,,,,,,
,,5f63cec2fc0d7912ab4e3d6c,2022-09-08_12h45.18.716,CGTgamblingSpanTasks,2022.2.1,Win32,60.0240096,,,,,,,,2.505,,,,,,,,,,,,,,2,n,1.495,0,1,3.505,1,0,4,4,41,1,14.26,0,0,1,,,,,,,,,,,,,,,,,,,,,,,,,,,,,,,,,,,,,,,,,,,,,,,,,,,,,,,,,,,,,,,,,,,,,,,,,,,,,,,,,,,,,,,,,,,,,,,,,,
,,5f63cec2fc0d7912ab4e3d6c,2022-09-08_12h45.18.716,CGTgamblingSpanTasks,2022.2.1,Win32,60.0240096,,,,,,,,2.21,,,,,,,,,,,,,,1,n,1.79,10.37,0,3.21,1,0,5,5,37,1,15.27,0,10.37,0,,,,,,,,,,,,,,,,,,,,,,,,,,,,,,,,,,,,,,,,,,,,,,,,,,,,,,,,,,,,,,,,,,,,,,,,,,,,,,,,,,,,,,,,,,,,,,,,,,
,,5f63cec2fc0d7912ab4e3d6c,2022-09-08_12h45.18.716,CGTgamblingSpanTasks,2022.2.1,Win32,60.0240096,,,,,,,,1.461,,,,,,,,,,,,,,2,n,2.539,0,1,2.961,1.5,0,6,6,25,1,17,0,9.5,0,,,,,,,,,,,,,,,,,,,,,,,,,,,,,,,,,,,,,,,,,,,,,,,,,,,,,,,,,,,,,,,,,,,,,,,,,,,,,,,,,,,,,,,,,,,,,,,,,,
,,5f63cec2fc0d7912ab4e3d6c,2022-09-08_12h45.18.716,CGTgamblingSpanTasks,2022.2.1,Win32,60.0240096,,,,,,,,2.692,,,,,,,,,,,,,,1,n,1.308,9.92,0,4.192,1.5,0,7,7,49,1,6.79,0,9.92,1,,,,,,,,,,,,,,,,,,,,,,,,,,,,,,,,,,,,,,,,,,,,,,,,,,,,,,,,,,,,,,,,,,,,,,,,,,,,,,,,,,,,,,,,,,,,,,,,,,
,,5f63cec2fc0d7912ab4e3d6c,2022-09-08_12h45.18.716,CGTgamblingSpanTasks,2022.2.1,Win32,60.0240096,,,,,,,,2.649,,,,,,,,,,,,,,1,v,1.351,16.26,1,4.149,1.5,0,8,8,29,1,16.26,0,9.87,0,,,,,,,,,,,,,,,,,,,,,,,,,,,,,,,,,,,,,,,,,,,,,,,,,,,,,,,,,,,,,,,,,,,,,,,,,,,,,,,,,,,,,,,,,,,,,,,,,,
,,5f63cec2fc0d7912ab4e3d6c,2022-09-08_12h45.18.716,CGTgamblingSpanTasks,2022.2.1,Win32,60.0240096,,,,,,,,2.57,,,,,,,,,,,,,,2,n,1.43,0,1,3.57,1,0,9,9,15,1,18.77,0,8.61,0,,,,,,,,,,,,,,,,,,,,,,,,,,,,,,,,,,,,,,,,,,,,,,,,,,,,,,,,,,,,,,,,,,,,,,,,,,,,,,,,,,,,,,,,,,,,,,,,,,
,,5f63cec2fc0d7912ab4e3d6c,2022-09-08_12h45.18.716,CGTgamblingSpanTasks,2022.2.1,Win32,60.0240096,,,,,,,,2.669,,,,,,,,,,,,,,1,v,1.331,14.72,1,4.169,1.5,0,10,10,6,1,14.72,0,4.64,0,,,,,,,,,,,,,,,,,,,,,,,,,,,,,,,,,,,,,,,,,,,,,,,,,,,,,,,,,,,,,,,,,,,,,,,,,,,,,,,,,,,,,,,,,,,,,,,,,,
,,5f63cec2fc0d7912ab4e3d6c,2022-09-08_12h45.18.716,CGTgamblingSpanTasks,2022.2.1,Win32,60.0240096,,,,,,,,2.735,,,,,,,,,,,,,,2,v,1.265,6.73,0,4.235,1.5,0,11,11,32,1,10.55,0,6.73,0,,,,,,,,,,,,,,,,,,,,,,,,,,,,,,,,,,,,,,,,,,,,,,,,,,,,,,,,,,,,,,,,,,,,,,,,,,,,,,,,,,,,,,,,,,,,,,,,,,
,,5f63cec2fc0d7912ab4e3d6c,2022-09-08_12h45.18.716,CGTgamblingSpanTasks,2022.2.1,Win32,60.0240096,,,,,,,,2.877,,,,,,,,,,,,,,2,n,1.123,22.97,1,3.877,1,0,12,12,5,1,22.97,0,6.51,0,,,,,,,,,,,,,,,,,,,,,,,,,,,,,,,,,,,,,,,,,,,,,,,,,,,,,,,,,,,,,,,,,,,,,,,,,,,,,,,,,,,,,,,,,,,,,,,,,,
,,5f63cec2fc0d7912ab4e3d6c,2022-09-08_12h45.18.716,CGTgamblingSpanTasks,2022.2.1,Win32,60.0240096,,,,,,,,2.986,,,,,,,,,,,,,,1,v,1.014,20.53,1,3.986,1,0,13,13,9,1,20.53,0,7.73,0,,,,,,,,,,,,,,,,,,,,,,,,,,,,,,,,,,,,,,,,,,,,,,,,,,,,,,,,,,,,,,,,,,,,,,,,,,,,,,,,,,,,,,,,,,,,,,,,,,
,,5f63cec2fc0d7912ab4e3d6c,2022-09-08_12h45.18.716,CGTgamblingSpanTasks,2022.2.1,Win32,60.0240096,,,,,,,,2.353,,,,,,,,,,,,,,1,n,1.647,9.2,0,3.353,1,0,14,14,21,1,17.59,0,9.2,0,,,,,,,,,,,,,,,,,,,,,,,,,,,,,,,,,,,,,,,,,,,,,,,,,,,,,,,,,,,,,,,,,,,,,,,,,,,,,,,,,,,,,,,,,,,,,,,,,,
,,5f63cec2fc0d7912ab4e3d6c,2022-09-08_12h45.18.716,CGTgamblingSpanTasks,2022.2.1,Win32,60.0240096,,,,,,,,2.812,,,,,,,,,,,,,,2,n,1.188,0,1,3.812,1,0,15,15,0,1,20.03,0,1.99,0,,,,,,,,,,,,,,,,,,,,,,,,,,,,,,,,,,,,,,,,,,,,,,,,,,,,,,,,,,,,,,,,,,,,,,,,,,,,,,,,,,,,,,,,,,,,,,,,,,
,,5f63cec2fc0d7912ab4e3d6c,2022-09-08_12h45.18.716,CGTgamblingSpanTasks,2022.2.1,Win32,60.0240096,,,,,,,,1.712,,,,,,,,,,,,,,2,v,2.288,6.4,0,2.712,1,0,16,16,26,1,11.2,0,6.4,0,,,,,,,,,,,,,,,,,,,,,,,,,,,,,,,,,,,,,,,,,,,,,,,,,,,,,,,,,,,,,,,,,,,,,,,,,,,,,,,,,,,,,,,,,,,,,,,,,,
,,5f63cec2fc0d7912ab4e3d6c,2022-09-08_12h45.18.716,CGTgamblingSpanTasks,2022.2.1,Win32,60.0240096,,,,,,,,3.017,,,,,,,,,,,,,,2,v,0.983,7.55,0,4.517,1.5,0,17,17,45,1,0,0,7.55,1,,,,,,,,,,,,,,,,,,,,,,,,,,,,,,,,,,,,,,,,,,,,,,,,,,,,,,,,,,,,,,,,,,,,,,,,,,,,,,,,,,,,,,,,,,,,,,,,,,
,,5f63cec2fc0d7912ab4e3d6c,2022-09-08_12h45.18.716,CGTgamblingSpanTasks,2022.2.1,Win32,60.0240096,,,,,,,,2.77,,,,,,,,,,,,,,1,n,1.23,6.08,0,3.77,1,0,18,18,20,1,11.84,0,6.08,0,,,,,,,,,,,,,,,,,,,,,,,,,,,,,,,,,,,,,,,,,,,,,,,,,,,,,,,,,,,,,,,,,,,,,,,,,,,,,,,,,,,,,,,,,,,,,,,,,,
,,5f63cec2fc0d7912ab4e3d6c,2022-09-08_12h45.18.716,CGTgamblingSpanTasks,2022.2.1,Win32,60.0240096,,,,,,,,3.02,,,,,,,,,,,,,,2,n,0.98,21.32,1,4.52,1.5,0,19,19,7,1,21.32,0,7.34,0,,,,,,,,,,,,,,,,,,,,,,,,,,,,,,,,,,,,,,,,,,,,,,,,,,,,,,,,,,,,,,,,,,,,,,,,,,,,,,,,,,,,,,,,,,,,,,,,,,
,,5f63cec2fc0d7912ab4e3d6c,2022-09-08_12h45.18.716,CGTgamblingSpanTasks,2022.2.1,Win32,60.0240096,,,,,,,,2.837,,,,,,,,,,,,,,1,n,1.163,10.46,0,3.837,1,0,20,20,39,1,15.09,0,10.46,0,,,,,,,,,,,,,,,,,,,,,,,,,,,,,,,,,,,,,,,,,,,,,,,,,,,,,,,,,,,,,,,,,,,,,,,,,,,,,,,,,,,,,,,,,,,,,,,,,,
,,5f63cec2fc0d7912ab4e3d6c,2022-09-08_12h45.18.716,CGTgamblingSpanTasks,2022.2.1,Win32,60.0240096,,,,,,,,2.819,,,,,,,,,,,,,,2,v,1.181,6.63,0,4.319,1.5,0,21,21,30,1,10.73,0,6.63,0,,,,,,,,,,,,,,,,,,,,,,,,,,,,,,,,,,,,,,,,,,,,,,,,,,,,,,,,,,,,,,,,,,,,,,,,,,,,,,,,,,,,,,,,,,,,,,,,,,
,,5f63cec2fc0d7912ab4e3d6c,2022-09-08_12h45.18.716,CGTgamblingSpanTasks,2022.2.1,Win32,60.0240096,,,,,,,,2.866,,,,,,,,,,,,,,1,v,1.134,17.28,1,4.366,1.5,0,22,22,23,1,17.28,0,9.36,0,,,,,,,,,,,,,,,,,,,,,,,,,,,,,,,,,,,,,,,,,,,,,,,,,,,,,,,,,,,,,,,,,,,,,,,,,,,,,,,,,,,,,,,,,,,,,,,,,,
,,5f63cec2fc0d7912ab4e3d6c,2022-09-08_12h45.18.716,CGTgamblingSpanTasks,2022.2.1,Win32,60.0240096,,,,,,,,2.087,,,,,,,,,,,,,,1,n,1.913,10.02,0,3.587,1.5,0,23,23,31,1,15.96,0,10.02,0,,,,,,,,,,,,,,,,,,,,,,,,,,,,,,,,,,,,,,,,,,,,,,,,,,,,,,,,,,,,,,,,,,,,,,,,,,,,,,,,,,,,,,,,,,,,,,,,,,
,,5f63cec2fc0d7912ab4e3d6c,2022-09-08_12h45.18.716,CGTgamblingSpanTasks,2022.2.1,Win32,60.0240096,,,,,,,,2.731,,,,,,,,,,,,,,2,n,1.269,0,1,3.731,1,0,24,24,16,1,12.36,0,5.82,0,,,,,,,,,,,,,,,,,,,,,,,,,,,,,,,,,,,,,,,,,,,,,,,,,,,,,,,,,,,,,,,,,,,,,,,,,,,,,,,,,,,,,,,,,,,,,,,,,,
,,5f63cec2fc0d7912ab4e3d6c,2022-09-08_12h45.18.716,CGTgamblingSpanTasks,2022.2.1,Win32,60.0240096,,,,,,,,2.915,,,,,,,,,,,,,,1,v,1.085,0,1,4.415,1.5,0,25,25,17,1,18.33,0,8.84,0,,,,,,,,,,,,,,,,,,,,,,,,,,,,,,,,,,,,,,,,,,,,,,,,,,,,,,,,,,,,,,,,,,,,,,,,,,,,,,,,,,,,,,,,,,,,,,,,,,
,,5f63cec2fc0d7912ab4e3d6c,2022-09-08_12h45.18.716,CGTgamblingSpanTasks,2022.2.1,Win32,60.0240096,,,,,,,,2.802,,,,,,,,,,,,,,1,v,1.198,0,1,3.802,1,0,26,26,11,1,19.86,0,8.07,0,,,,,,,,,,,,,,,,,,,,,,,,,,,,,,,,,,,,,,,,,,,,,,,,,,,,,,,,,,,,,,,,,,,,,,,,,,,,,,,,,,,,,,,,,,,,,,,,,,
,,5f63cec2fc0d7912ab4e3d6c,2022-09-08_12h45.18.716,CGTgamblingSpanTasks,2022.2.1,Win32,60.0240096,,,,,,,,2.953,,,,,,,,,,,,,,2,n,1.047,16.6,1,3.953,1,0,27,27,27,1,16.6,0,9.7,0,,,,,,,,,,,,,,,,,,,,,,,,,,,,,,,,,,,,,,,,,,,,,,,,,,,,,,,,,,,,,,,,,,,,,,,,,,,,,,,,,,,,,,,,,,,,,,,,,,
,,5f63cec2fc0d7912ab4e3d6c,2022-09-08_12h45.18.716,CGTgamblingSpanTasks,2022.2.1,Win32,60.0240096,,,,,,,,2.338,,,,,,,,,,,,,,1,n,1.662,6.29,0,3.838,1.5,0,28,28,24,1,11.43,0,6.29,0,,,,,,,,,,,,,,,,,,,,,,,,,,,,,,,,,,,,,,,,,,,,,,,,,,,,,,,,,,,,,,,,,,,,,,,,,,,,,,,,,,,,,,,,,,,,,,,,,,
,,5f63cec2fc0d7912ab4e3d6c,2022-09-08_12h45.18.716,CGTgamblingSpanTasks,2022.2.1,Win32,60.0240096,,,,,,,,2.781,,,,,,,,,,,,,,1,v,1.219,13.45,1,4.281,1.5,0,29,29,10,1,13.45,0,5.27,0,,,,,,,,,,,,,,,,,,,,,,,,,,,,,,,,,,,,,,,,,,,,,,,,,,,,,,,,,,,,,,,,,,,,,,,,,,,,,,,,,,,,,,,,,,,,,,,,,,
,,5f63cec2fc0d7912ab4e3d6c,2022-09-08_12h45.18.716,CGTgamblingSpanTasks,2022.2.1,Win32,60.0240096,,,,,,,,2.999,,,,,,,,,,,,,,1,v,1.001,16,1,3.999,1,0,30,30,4,1,16,0,4,0,,,,,,,,,,,,,,,,,,,,,,,,,,,,,,,,,,,,,,,,,,,,,,,,,,,,,,,,,,,,,,,,,,,,,,,,,,,,,,,,,,,,,,,,,,,,,,,,,,
,,5f63cec2fc0d7912ab4e3d6c,2022-09-08_12h45.18.716,CGTgamblingSpanTasks,2022.2.1,Win32,60.0240096,,,,,,,,2.978,,,,,,,,,,,,,,1,n,1.022,10.15,0,4.478,1.5,0,31,31,33,1,15.7,0,10.15,0,,,,,,,,,,,,,,,,,,,,,,,,,,,,,,,,,,,,,,,,,,,,,,,,,,,,,,,,,,,,,,,,,,,,,,,,,,,,,,,,,,,,,,,,,,,,,,,,,,
,,5f63cec2fc0d7912ab4e3d6c,2022-09-08_12h45.18.716,CGTgamblingSpanTasks,2022.2.1,Win32,60.0240096,,,,,,,,3.148,,,,,,,,,,,,,,2,n,0.852,7.73,1,4.648,1.5,0,32,32,44,1,13.1,7.73,4.68,1,,,,,,,,,,,,,,,,,,,,,,,,,,,,,,,,,,,,,,,,,,,,,,,,,,,,,,,,,,,,,,,,,,,,,,,,,,,,,,,,,,,,,,,,,,,,,,,,,,
,,5f63cec2fc0d7912ab4e3d6c,2022-09-08_12h45.18.716,CGTgamblingSpanTasks,2022.2.1,Win32,60.0240096,,,,,,,,2.424,,,,,,,,,,,,,,2,n,1.576,0,1,3.424,1,0,33,33,12,1,13.04,0,5.48,0,,,,,,,,,,,,,,,,,,,,,,,,,,,,,,,,,,,,,,,,,,,,,,,,,,,,,,,,,,,,,,,,,,,,,,,,,,,,,,,,,,,,,,,,,,,,,,,,,,
,,5f63cec2fc0d7912ab4e3d6c,2022-09-08_12h45.18.716,CGTgamblingSpanTasks,2022.2.1,Win32,60.0240096,,,,,,,,3.202,,,,,,,,,,,,,,1,v,0.798,0,1,4.702,1.5,0,34,34,13,1,19.28,0,8.36,0,,,,,,,,,,,,,,,,,,,,,,,,,,,,,,,,,,,,,,,,,,,,,,,,,,,,,,,,,,,,,,,,,,,,,,,,,,,,,,,,,,,,,,,,,,,,,,,,,,
,,5f63cec2fc0d7912ab4e3d6c,2022-09-08_12h45.18.716,CGTgamblingSpanTasks,2022.2.1,Win32,60.0240096,,,,,,,,2.736,,,,,,,,,,,,,,1,n,1.264,10.25,0,4.236,1.5,0,35,35,46,1,0,0,10.25,1,,,,,,,,,,,,,,,,,,,,,,,,,,,,,,,,,,,,,,,,,,,,,,,,,,,,,,,,,,,,,,,,,,,,,,,,,,,,,,,,,,,,,,,,,,,,,,,,,,
,,5f63cec2fc0d7912ab4e3d6c,2022-09-08_12h45.18.716,CGTgamblingSpanTasks,2022.2.1,Win32,60.0240096,,,,,,,,2.169,,,,,,,,,,,,,,1,n,1.831,6.94,0,3.169,1,0,36,36,38,1,10.12,0,6.94,0,,,,,,,,,,,,,,,,,,,,,,,,,,,,,,,,,,,,,,,,,,,,,,,,,,,,,,,,,,,,,,,,,,,,,,,,,,,,,,,,,,,,,,,,,,,,,,,,,,
,,5f63cec2fc0d7912ab4e3d6c,2022-09-08_12h45.18.716,CGTgamblingSpanTasks,2022.2.1,Win32,60.0240096,,,,,,,,2.918,,,,,,,,,,,,,,1,v,1.082,25.2,1,4.418,1.5,0,37,37,3,1,25.2,0,5.4,0,,,,,,,,,,,,,,,,,,,,,,,,,,,,,,,,,,,,,,,,,,,,,,,,,,,,,,,,,,,,,,,,,,,,,,,,,,,,,,,,,,,,,,,,,,,,,,,,,,
,,5f63cec2fc0d7912ab4e3d6c,2022-09-08_12h45.18.716,CGTgamblingSpanTasks,2022.2.1,Win32,60.0240096,,,,,,,,2.718,,,,,,,,,,,,,,2,n,1.282,0,1,3.718,1,0,38,38,18,1,12.08,0,5.96,0,,,,,,,,,,,,,,,,,,,,,,,,,,,,,,,,,,,,,,,,,,,,,,,,,,,,,,,,,,,,,,,,,,,,,,,,,,,,,,,,,,,,,,,,,,,,,,,,,,
,,5f63cec2fc0d7912ab4e3d6c,2022-09-08_12h45.18.716,CGTgamblingSpanTasks,2022.2.1,Win32,60.0240096,,,,,,,,2.679,,,,,,,,,,,,,,2,n,1.321,0,1,3.679,1,0,39,39,19,1,17.94,0,9.03,0,,,,,,,,,,,,,,,,,,,,,,,,,,,,,,,,,,,,,,,,,,,,,,,,,,,,,,,,,,,,,,,,,,,,,,,,,,,,,,,,,,,,,,,,,,,,,,,,,,
,,5f63cec2fc0d7912ab4e3d6c,2022-09-08_12h45.18.716,CGTgamblingSpanTasks,2022.2.1,Win32,60.0240096,,,,,,,,2.963,,,,,,,,,,,,,,2,n,1.037,0,1,4.463,1.5,0,40,40,1,1,28.21,0,3.89,0,,,,,,,,,,,,,,,,,,,,,,,,,,,,,,,,,,,,,,,,,,,,,,,,,,,,,,,,,,,,,,,,,,,,,,,,,,,,,,,,,,,,,,,,,,,,,,,,,,
,,5f63cec2fc0d7912ab4e3d6c,2022-09-08_12h45.18.716,CGTgamblingSpanTasks,2022.2.1,Win32,60.0240096,,,,,,,,2.885,,,,,,,,,,,,,,1,v,1.115,0,1,3.885,1,0,41,41,2,1,17.73,0,3.13,0,,,,,,,,,,,,,,,,,,,,,,,,,,,,,,,,,,,,,,,,,,,,,,,,,,,,,,,,,,,,,,,,,,,,,,,,,,,,,,,,,,,,,,,,,,,,,,,,,,
,,5f63cec2fc0d7912ab4e3d6c,2022-09-08_12h45.18.716,CGTgamblingSpanTasks,2022.2.1,Win32,60.0240096,,,,,,,,2.728,,,,,,,,,,,,,,2,v,1.272,3.13,0,4.228,1.5,0,42,42,47,1,0,0,3.13,1,,,,,,,,,,,,,,,,,,,,,,,,,,,,,,,,,,,,,,,,,,,,,,,,,,,,,,,,,,,,,,,,,,,,,,,,,,,,,,,,,,,,,,,,,,,,,,,,,,
,,5f63cec2fc0d7912ab4e3d6c,2022-09-08_12h45.18.716,CGTgamblingSpanTasks,2022.2.1,Win32,60.0240096,,,,,,,,2.9,,,,,,,,,,,,,,1,n,1.1,6.81,0,3.9,1,0,43,43,34,1,10.39,0,6.81,0,,,,,,,,,,,,,,,,,,,,,,,,,,,,,,,,,,,,,,,,,,,,,,,,,,,,,,,,,,,,,,,,,,,,,,,,,,,,,,,,,,,,,,,,,,,,,,,,,,
,,5f63cec2fc0d7912ab4e3d6c,2022-09-08_12h45.18.716,CGTgamblingSpanTasks,2022.2.1,Win32,60.0240096,,,,,,,,2.753,,,,,,,,,,,,,,1,n,1.247,10.68,0,3.753,1,0,44,44,48,1,10.68,0,10.68,1,,,,,,,,,,,,,,,,,,,,,,,,,,,,,,,,,,,,,,,,,,,,,,,,,,,,,,,,,,,,,,,,,,,,,,,,,,,,,,,,,,,,,,,,,,,,,,,,,,
,,5f63cec2fc0d7912ab4e3d6c,2022-09-08_12h45.18.716,CGTgamblingSpanTasks,2022.2.1,Win32,60.0240096,,,,,,,,1.899,,,,,,,,,,,,,,2,v,2.101,6.19,0,2.899,1,0,45,45,22,1,11.62,0,6.19,0,,,,,,,,,,,,,,,,,,,,,,,,,,,,,,,,,,,,,,,,,,,,,,,,,,,,,,,,,,,,,,,,,,,,,,,,,,,,,,,,,,,,,,,,,,,,,,,,,,
,,5f63cec2fc0d7912ab4e3d6c,2022-09-08_12h45.18.716,CGTgamblingSpanTasks,2022.2.1,Win32,60.0240096,,,,,,,,2.633,,,,,,,,,,,,,,1,v,1.367,0,1,4.133,1.5,0,46,46,40,1,10.35,0,0,1,,,,,,,,,,,,,,,,,,,,,,,,,,,,,,,,,,,,,,,,,,,,,,,,,,,,,,,,,,,,,,,,,,,,,,,,,,,,,,,,,,,,,,,,,,,,,,,,,,
,,5f63cec2fc0d7912ab4e3d6c,2022-09-08_12h45.18.716,CGTgamblingSpanTasks,2022.2.1,Win32,60.0240096,,,,,,,,2.502,,,,,,,,,,,,,,1,v,1.498,6.99,1,4.002,1.5,0,47,47,43,1,16.11,6.99,6.99,1,,,,,,,,,,,,,,,,,,,,,,,,,,,,,,,,,,,,,,,,,,,,,,,,,,,,,,,,,,,,,,,,,,,,,,,,,,,,,,,,,,,,,,,,,,,,,,,,,,
,,5f63cec2fc0d7912ab4e3d6c,2022-09-08_12h45.18.716,CGTgamblingSpanTasks,2022.2.1,Win32,60.0240096,,,,,,,,2.998,,,,,,,,,,,,,,1,v,1.002,19.86,1,3.998,1,0,48,48,42,1,19.86,0,0,1,,,,,,,,,,,,,,,,,,,,,,,,,,,,,,,,,,,,,,,,,,,,,,,,,,,,,,,,,,,,,,,,,,,,,,,,,,,,,,,,,,,,,,,,,,,,,,,,,,
,,5f63cec2fc0d7912ab4e3d6c,2022-09-08_12h45.18.716,CGTgamblingSpanTasks,2022.2.1,Win32,60.0240096,,,,,,,,2.338,,,,,,,,,,,,,,1,n,1.662,6.88,0,3.838,1.5,0,49,49,36,1,10.24,0,6.88,0,,,,,,,,,,,,,,,,,,,,,,,,,,,,,,,,,,,,,,,,,,,,,,,,,,,,,,,,,,,,,,,,,,,,,,,,,,,,,,,,,,,,,,,,,,,,,,,,,,
,,5f63cec2fc0d7912ab4e3d6c,2022-09-08_12h45.18.716,CGTgamblingSpanTasks,2022.2.1,Win32,60.0240096,,,,,,,,,,,,,,,,,,,,,,,,,,,,,,,,,,,,,,bespoke_choiceset_rhoInd093_muInd140.csv,bespoke_choicesets/bespoke_choiceset_rhoInd093_muInd140.csv,93,140,0,0,0,0,1,,,,,,,,,,,,,,,,,,,,,,,,,,,,,,,,,,,,,,,,,,,,,,,,,,,,,,,,,,,,,,,,,,,,,,,,,,,,,,,,,,,,,,,,,
,,5f63cec2fc0d7912ab4e3d6c,2022-09-08_12h45.18.716,CGTgamblingSpanTasks,2022.2.1,Win32,60.0240096,,,,,,,,,,,,,,,,,,,,,,,,,,,,,,,,,,,,,,,,,,,,,,,,,,,,,,,,,,,,,,,,,,,,,,,,,,,,,,,,,,,,,,,,,,,,,,,,,,,,,,,,,,,,,,,,,,,,,,,,,,,,,,,,,,,,,,,
,,5f63cec2fc0d7912ab4e3d6c,2022-09-08_12h45.18.716,CGTgamblingSpanTasks,2022.2.1,Win32,60.0240096,,,,,,,,,,,,,,,,,,,,,,,,,,,,,,,,,,,,,,,,,,,,,,,v,39.883,,,,,,,,,,,,,,,,,,,,,,,,,,,,,,,,,,,,,,,,,,,,,,,,,,,,,,,,,,,,,,,,,,,,,,,,,,,,,,,,,,,,,,,
,,5f63cec2fc0d7912ab4e3d6c,2022-09-08_12h45.18.716,CGTgamblingSpanTasks,2022.2.1,Win32,60.0240096,,,,,,,,2.943,,,,,,,,,,,,,,2,n,1.057,0,1,3.943,1,,,,,,18.51345298,0,1.932334278,,,,,,,,,,,,,0,0,0,31,1,0.48658696,1,,,,,,,,,,,,,,,,,,,,,,,,,,,,,,,,,,,,,,,,,,,,,,,,,,,,,,,,,,,,,,,,,,,,,,,,,,,,,,,,
,,5f63cec2fc0d7912ab4e3d6c,2022-09-08_12h45.18.716,CGTgamblingSpanTasks,2022.2.1,Win32,60.0240096,,,,,,,,2.649,,,,,,,,,,,,,,1,n,1.351,5.683635938,0,4.149,1.5,,,,,,4.941039335,0,5.683635938,,,,,,,,,,,,,0,1,1,9,1,0.025481984,0,,,,,,,,,,,,,,,,,,,,,,,,,,,,,,,,,,,,,,,,,,,,,,,,,,,,,,,,,,,,,,,,,,,,,,,,,,,,,,,,
,,5f63cec2fc0d7912ab4e3d6c,2022-09-08_12h45.18.716,CGTgamblingSpanTasks,2022.2.1,Win32,60.0240096,,,,,,,,3.018,,,,,,,,,,,,,,1,v,0.982,0,1,4.518,1.5,,,,,,17.23907308,0,2.055848574,,,,,,,,,,,,,0,2,2,66,1,0.450504458,1,,,,,,,,,,,,,,,,,,,,,,,,,,,,,,,,,,,,,,,,,,,,,,,,,,,,,,,,,,,,,,,,,,,,,,,,,,,,,,,,
,,5f63cec2fc0d7912ab4e3d6c,2022-09-08_12h45.18.716,CGTgamblingSpanTasks,2022.2.1,Win32,60.0240096,,,,,,,,2.403,,,,,,,,,,,,,,2,v,1.597,10.68505773,0,3.903,1.5,,,,,,17.64114152,0,10.68505773,,,,,,,,,,,,,0,3,3,98,1,0.074299362,0,,,,,,,,,,,,,,,,,,,,,,,,,,,,,,,,,,,,,,,,,,,,,,,,,,,,,,,,,,,,,,,,,,,,,,,,,,,,,,,,
,,5f63cec2fc0d7912ab4e3d6c,2022-09-08_12h45.18.716,CGTgamblingSpanTasks,2022.2.1,Win32,60.0240096,,,,,,,,2.969,,,,,,,,,,,,,,2,n,1.031,19.30622782,1,3.969,1,,,,,,19.30622782,0,10.31611309,,,,,,,,,,,,,0,4,4,1,1,0.091105656,0,,,,,,,,,,,,,,,,,,,,,,,,,,,,,,,,,,,,,,,,,,,,,,,,,,,,,,,,,,,,,,,,,,,,,,,,,,,,,,,,
,,5f63cec2fc0d7912ab4e3d6c,2022-09-08_12h45.18.716,CGTgamblingSpanTasks,2022.2.1,Win32,60.0240096,,,,,,,,3.101,,,,,,,,,,,,,,1,v,0.899,0,1,4.601,1.5,,,,,,25.76582409,0,2.393193076,,,,,,,,,,,,,0,5,5,46,1,0.517129855,1,,,,,,,,,,,,,,,,,,,,,,,,,,,,,,,,,,,,,,,,,,,,,,,,,,,,,,,,,,,,,,,,,,,,,,,,,,,,,,,,
,,5f63cec2fc0d7912ab4e3d6c,2022-09-08_12h45.18.716,CGTgamblingSpanTasks,2022.2.1,Win32,60.0240096,,,,,,,,2.834,,,,,,,,,,,,,,2,n,1.166,21.17800335,1,4.334,1.5,,,,,,21.17800335,0,0.059830985,,,,,,,,,,,,,0,6,6,67,1,0.908594974,0,,,,,,,,,,,,,,,,,,,,,,,,,,,,,,,,,,,,,,,,,,,,,,,,,,,,,,,,,,,,,,,,,,,,,,,,,,,,,,,,
,,5f63cec2fc0d7912ab4e3d6c,2022-09-08_12h45.18.716,CGTgamblingSpanTasks,2022.2.1,Win32,60.0240096,,,,,,,,2.875,,,,,,,,,,,,,,1,v,1.125,0,1,4.375,1.5,,,,,,13.96521039,0,1.591282699,,,,,,,,,,,,,0,7,7,49,1,0.462956344,1,,,,,,,,,,,,,,,,,,,,,,,,,,,,,,,,,,,,,,,,,,,,,,,,,,,,,,,,,,,,,,,,,,,,,,,,,,,,,,,,
,,5f63cec2fc0d7912ab4e3d6c,2022-09-08_12h45.18.716,CGTgamblingSpanTasks,2022.2.1,Win32,60.0240096,,,,,,,,2.985,,,,,,,,,,,,,,1,v,1.015,9.012590634,1,3.985,1,,,,,,9.012590634,0,1.002188111,,,,,,,,,,,,,0,8,8,12,1,0.46958041,1,,,,,,,,,,,,,,,,,,,,,,,,,,,,,,,,,,,,,,,,,,,,,,,,,,,,,,,,,,,,,,,,,,,,,,,,,,,,,,,,
,,5f63cec2fc0d7912ab4e3d6c,2022-09-08_12h45.18.716,CGTgamblingSpanTasks,2022.2.1,Win32,60.0240096,,,,,,,,3.069,,,,,,,,,,,,,,1,v,0.931,27.2532142,1,4.069,1,,,,,,27.2532142,0,0.08089327,,,,,,,,,,,,,0,9,9,119,1,0.907091845,0,,,,,,,,,,,,,,,,,,,,,,,,,,,,,,,,,,,,,,,,,,,,,,,,,,,,,,,,,,,,,,,,,,,,,,,,,,,,,,,,
,,5f63cec2fc0d7912ab4e3d6c,2022-09-08_12h45.18.716,CGTgamblingSpanTasks,2022.2.1,Win32,60.0240096,,,,,,,,3.12,,,,,,,,,,,,,,2,n,0.88,27.53810185,1,4.62,1.5,,,,,,27.53810185,0,0.097022401,,,,,,,,,,,,,0,10,10,50,1,0.901515865,0,,,,,,,,,,,,,,,,,,,,,,,,,,,,,,,,,,,,,,,,,,,,,,,,,,,,,,,,,,,,,,,,,,,,,,,,,,,,,,,,
,,5f63cec2fc0d7912ab4e3d6c,2022-09-08_12h45.18.716,CGTgamblingSpanTasks,2022.2.1,Win32,60.0240096,,,,,,,,2.902,,,,,,,,,,,,,,1,n,1.098,7.50753835,0,4.402,1.5,,,,,,2.231316635,0,7.50753835,,,,,,,,,,,,,0,11,11,29,1,0.010273427,0,,,,,,,,,,,,,,,,,,,,,,,,,,,,,,,,,,,,,,,,,,,,,,,,,,,,,,,,,,,,,,,,,,,,,,,,,,,,,,,,
,,5f63cec2fc0d7912ab4e3d6c,2022-09-08_12h45.18.716,CGTgamblingSpanTasks,2022.2.1,Win32,60.0240096,,,,,,,,3.148,,,,,,,,,,,,,,2,n,0.852,0,1,4.148,1,,,,,,11.08143071,0,1.207538756,,,,,,,,,,,,,0,12,12,84,1,0.475047453,1,,,,,,,,,,,,,,,,,,,,,,,,,,,,,,,,,,,,,,,,,,,,,,,,,,,,,,,,,,,,,,,,,,,,,,,,,,,,,,,,
,,5f63cec2fc0d7912ab4e3d6c,2022-09-08_12h45.18.716,CGTgamblingSpanTasks,2022.2.1,Win32,60.0240096,,,,,,,,3.233,,,,,,,,,,,,,,2,n,0.767,0,1,4.233,1,,,,,,27.77179191,0,0.074524436,,,,,,,,,,,,,0,13,13,99,1,0.910114387,0,,,,,,,,,,,,,,,,,,,,,,,,,,,,,,,,,,,,,,,,,,,,,,,,,,,,,,,,,,,,,,,,,,,,,,,,,,,,,,,,
,,5f63cec2fc0d7912ab4e3d6c,2022-09-08_12h45.18.716,CGTgamblingSpanTasks,2022.2.1,Win32,60.0240096,,,,,,,,2.014,,,,,,,,,,,,,,2,n,1.986,20.97851654,1,3.514,1.5,,,,,,20.97851654,0,11.39288827,,,,,,,,,,,,,0,14,14,2,1,0.088791079,0,,,,,,,,,,,,,,,,,,,,,,,,,,,,,,,,,,,,,,,,,,,,,,,,,,,,,,,,,,,,,,,,,,,,,,,,,,,,,,,,
,,5f63cec2fc0d7912ab4e3d6c,2022-09-08_12h45.18.716,CGTgamblingSpanTasks,2022.2.1,Win32,60.0240096,,,,,,,,3.203,,,,,,,,,,,,,,2,n,0.797,0,1,4.203,1,,,,,,21.46599803,0,0.059789256,,,,,,,,,,,,,0,15,15,8,1,0.909019081,0,,,,,,,,,,,,,,,,,,,,,,,,,,,,,,,,,,,,,,,,,,,,,,,,,,,,,,,,,,,,,,,,,,,,,,,,,,,,,,,,
,,5f63cec2fc0d7912ab4e3d6c,2022-09-08_12h45.18.716,CGTgamblingSpanTasks,2022.2.1,Win32,60.0240096,,,,,,,,2.813,,,,,,,,,,,,,,1,n,1.187,8.512335864,0,3.813,1,,,,,,10.05300841,0,8.512335864,,,,,,,,,,,,,0,16,16,74,1,0.040729225,0,,,,,,,,,,,,,,,,,,,,,,,,,,,,,,,,,,,,,,,,,,,,,,,,,,,,,,,,,,,,,,,,,,,,,,,,,,,,,,,,
,,5f63cec2fc0d7912ab4e3d6c,2022-09-08_12h45.18.716,CGTgamblingSpanTasks,2022.2.1,Win32,60.0240096,,,,,,,,3.1,,,,,,,,,,,,,,1,v,0.9,0,1,4.1,1,,,,,,20.5726842,0,0.073558523,,,,,,,,,,,,,0,17,17,26,1,0.901008565,0,,,,,,,,,,,,,,,,,,,,,,,,,,,,,,,,,,,,,,,,,,,,,,,,,,,,,,,,,,,,,,,,,,,,,,,,,,,,,,,,
,,5f63cec2fc0d7912ab4e3d6c,2022-09-08_12h45.18.716,CGTgamblingSpanTasks,2022.2.1,Win32,60.0240096,,,,,,,,3.102,,,,,,,,,,,,,,1,v,0.898,23.0613391,1,4.602,1.5,,,,,,23.0613391,0,2.387726776,,,,,,,,,,,,,0,18,18,69,1,0.488727763,1,,,,,,,,,,,,,,,,,,,,,,,,,,,,,,,,,,,,,,,,,,,,,,,,,,,,,,,,,,,,,,,,,,,,,,,,,,,,,,,,
,,5f63cec2fc0d7912ab4e3d6c,2022-09-08_12h45.18.716,CGTgamblingSpanTasks,2022.2.1,Win32,60.0240096,,,,,,,,3.235,,,,,,,,,,,,,,2,n,0.765,0,1,4.735,1.5,,,,,,27.76752685,0,0.083968035,,,,,,,,,,,,,0,19,19,13,1,0.906513967,0,,,,,,,,,,,,,,,,,,,,,,,,,,,,,,,,,,,,,,,,,,,,,,,,,,,,,,,,,,,,,,,,,,,,,,,,,,,,,,,,
,,5f63cec2fc0d7912ab4e3d6c,2022-09-08_12h45.18.716,CGTgamblingSpanTasks,2022.2.1,Win32,60.0240096,,,,,,,,3.087,,,,,,,,,,,,,,1,v,0.913,0,1,4.087,1,,,,,,17.30137174,0,1.716380842,,,,,,,,,,,,,0,20,20,20,1,0.500020285,1,,,,,,,,,,,,,,,,,,,,,,,,,,,,,,,,,,,,,,,,,,,,,,,,,,,,,,,,,,,,,,,,,,,,,,,,,,,,,,,,
,,5f63cec2fc0d7912ab4e3d6c,2022-09-08_12h45.18.716,CGTgamblingSpanTasks,2022.2.1,Win32,60.0240096,,,,,,,,3.171,,,,,,,,,,,,,,1,v,0.829,0,1,4.671,1.5,,,,,,25.54604005,0,0.088845411,,,,,,,,,,,,,0,21,21,79,1,0.901957831,0,,,,,,,,,,,,,,,,,,,,,,,,,,,,,,,,,,,,,,,,,,,,,,,,,,,,,,,,,,,,,,,,,,,,,,,,,,,,,,,,
,,5f63cec2fc0d7912ab4e3d6c,2022-09-08_12h45.18.716,CGTgamblingSpanTasks,2022.2.1,Win32,60.0240096,,,,,,,,2.784,,,,,,,,,,,,,,2,v,1.216,6.091504705,0,4.284,1.5,,,,,,6.662965216,0,6.091504705,,,,,,,,,,,,,0,22,22,102,1,0.035087099,0,,,,,,,,,,,,,,,,,,,,,,,,,,,,,,,,,,,,,,,,,,,,,,,,,,,,,,,,,,,,,,,,,,,,,,,,,,,,,,,,
,,5f63cec2fc0d7912ab4e3d6c,2022-09-08_12h45.18.716,CGTgamblingSpanTasks,2022.2.1,Win32,60.0240096,,,,,,,,3.197,,,,,,,,,,,,,,2,n,0.803,17.4320197,1,4.697,1.5,,,,,,17.4320197,0,1.448620949,,,,,,,,,,,,,0,23,23,30,1,0.545178213,1,,,,,,,,,,,,,,,,,,,,,,,,,,,,,,,,,,,,,,,,,,,,,,,,,,,,,,,,,,,,,,,,,,,,,,,,,,,,,,,,
,,5f63cec2fc0d7912ab4e3d6c,2022-09-08_12h45.18.716,CGTgamblingSpanTasks,2022.2.1,Win32,60.0240096,,,,,,,,3.065,,,,,,,,,,,,,,1,v,0.935,0,1,4.565,1.5,,,,,,24.35708027,0,2.738695417,,,,,,,,,,,,,0,24,24,114,1,0.466573634,1,,,,,,,,,,,,,,,,,,,,,,,,,,,,,,,,,,,,,,,,,,,,,,,,,,,,,,,,,,,,,,,,,,,,,,,,,,,,,,,,
,,5f63cec2fc0d7912ab4e3d6c,2022-09-08_12h45.18.716,CGTgamblingSpanTasks,2022.2.1,Win32,60.0240096,,,,,,,,2.912,,,,,,,,,,,,,,1,v,1.088,28.14876717,1,3.912,1,,,,,,28.14876717,0,3.117906378,,,,,,,,,,,,,0,25,25,76,1,0.470636736,1,,,,,,,,,,,,,,,,,,,,,,,,,,,,,,,,,,,,,,,,,,,,,,,,,,,,,,,,,,,,,,,,,,,,,,,,,,,,,,,,
,,5f63cec2fc0d7912ab4e3d6c,2022-09-08_12h45.18.716,CGTgamblingSpanTasks,2022.2.1,Win32,60.0240096,,,,,,,,3.101,,,,,,,,,,,,,,2,n,0.899,0,1,4.101,1,,,,,,27.12325385,0,0.080932047,,,,,,,,,,,,,0,26,26,14,1,0.906929184,0,,,,,,,,,,,,,,,,,,,,,,,,,,,,,,,,,,,,,,,,,,,,,,,,,,,,,,,,,,,,,,,,,,,,,,,,,,,,,,,,
,,5f63cec2fc0d7912ab4e3d6c,2022-09-08_12h45.18.716,CGTgamblingSpanTasks,2022.2.1,Win32,60.0240096,,,,,,,,2.753,,,,,,,,,,,,,,2,v,1.247,10.41201161,0,4.253,1.5,,,,,,6.307062696,0,10.41201161,,,,,,,,,,,,,0,27,27,23,1,0.018187109,0,,,,,,,,,,,,,,,,,,,,,,,,,,,,,,,,,,,,,,,,,,,,,,,,,,,,,,,,,,,,,,,,,,,,,,,,,,,,,,,,
,,5f63cec2fc0d7912ab4e3d6c,2022-09-08_12h45.18.716,CGTgamblingSpanTasks,2022.2.1,Win32,60.0240096,,,,,,,,2.931,,,,,,,,,,,,,,2,v,1.069,4.462262453,0,4.431,1.5,,,,,,0.192759042,0,4.462262453,,,,,,,,,,,,,0,28,28,52,1,0.003553223,0,,,,,,,,,,,,,,,,,,,,,,,,,,,,,,,,,,,,,,,,,,,,,,,,,,,,,,,,,,,,,,,,,,,,,,,,,,,,,,,,
,,5f63cec2fc0d7912ab4e3d6c,2022-09-08_12h45.18.716,CGTgamblingSpanTasks,2022.2.1,Win32,60.0240096,,,,,,,,3.165,,,,,,,,,,,,,,1,v,0.835,25.0707644,1,4.665,1.5,,,,,,25.0707644,0,0.067651625,,,,,,,,,,,,,0,29,29,70,1,0.909952349,0,,,,,,,,,,,,,,,,,,,,,,,,,,,,,,,,,,,,,,,,,,,,,,,,,,,,,,,,,,,,,,,,,,,,,,,,,,,,,,,,
,,5f63cec2fc0d7912ab4e3d6c,2022-09-08_12h45.18.716,CGTgamblingSpanTasks,2022.2.1,Win32,60.0240096,,,,,,,,3.096,,,,,,,,,,,,,,2,n,0.904,0,1,4.096,1,,,,,,28.9323758,0,2.893007023,,,,,,,,,,,,,0,30,30,11,1,0.497943321,1,,,,,,,,,,,,,,,,,,,,,,,,,,,,,,,,,,,,,,,,,,,,,,,,,,,,,,,,,,,,,,,,,,,,,,,,,,,,,,,,
,,5f63cec2fc0d7912ab4e3d6c,2022-09-08_12h45.18.716,CGTgamblingSpanTasks,2022.2.1,Win32,60.0240096,,,,,,,,3.203,,,,,,,,,,,,,,2,n,0.797,0,1,4.203,1,,,,,,23.4214135,0,2.485985001,,,,,,,,,,,,,0,31,31,81,1,0.482105905,1,,,,,,,,,,,,,,,,,,,,,,,,,,,,,,,,,,,,,,,,,,,,,,,,,,,,,,,,,,,,,,,,,,,,,,,,,,,,,,,,
,,5f63cec2fc0d7912ab4e3d6c,2022-09-08_12h45.18.716,CGTgamblingSpanTasks,2022.2.1,Win32,60.0240096,,,,,,,,2.869,,,,,,,,,,,,,,1,v,1.131,14.3363647,1,3.869,1,,,,,,14.3363647,0,1.396635362,,,,,,,,,,,,,0,32,32,78,1,0.504775474,1,,,,,,,,,,,,,,,,,,,,,,,,,,,,,,,,,,,,,,,,,,,,,,,,,,,,,,,,,,,,,,,,,,,,,,,,,,,,,,,,
,,5f63cec2fc0d7912ab4e3d6c,2022-09-08_12h45.18.716,CGTgamblingSpanTasks,2022.2.1,Win32,60.0240096,,,,,,,,2.82,,,,,,,,,,,,,,1,v,1.18,27.57491653,1,3.82,1,,,,,,27.57491653,0,2.99133314,,,,,,,,,,,,,0,33,33,10,1,0.47625893,1,,,,,,,,,,,,,,,,,,,,,,,,,,,,,,,,,,,,,,,,,,,,,,,,,,,,,,,,,,,,,,,,,,,,,,,,,,,,,,,,
,,5f63cec2fc0d7912ab4e3d6c,2022-09-08_12h45.18.716,CGTgamblingSpanTasks,2022.2.1,Win32,60.0240096,,,,,,,,2.052,,,,,,,,,,,,,,1,n,1.948,8.830252162,0,3.552,1.5,,,,,,15.73000491,0,8.830252162,,,,,,,,,,,,,0,34,34,95,1,0.084193143,0,,,,,,,,,,,,,,,,,,,,,,,,,,,,,,,,,,,,,,,,,,,,,,,,,,,,,,,,,,,,,,,,,,,,,,,,,,,,,,,,
,,5f63cec2fc0d7912ab4e3d6c,2022-09-08_12h45.18.716,CGTgamblingSpanTasks,2022.2.1,Win32,60.0240096,,,,,,,,2.161,,,,,,,,,,,,,,2,v,1.839,10.3417501,0,3.661,1.5,,,,,,15.21435748,0,10.3417501,,,,,,,,,,,,,0,35,35,72,1,0.060969226,0,,,,,,,,,,,,,,,,,,,,,,,,,,,,,,,,,,,,,,,,,,,,,,,,,,,,,,,,,,,,,,,,,,,,,,,,,,,,,,,,
,,5f63cec2fc0d7912ab4e3d6c,2022-09-08_12h45.18.716,CGTgamblingSpanTasks,2022.2.1,Win32,60.0240096,,,,,,,,3.072,,,,,,,,,,,,,,2,n,0.928,0,1,4.072,1,,,,,,22.0050376,0,2.257683666,,,,,,,,,,,,,0,36,36,4,1,0.491147312,1,,,,,,,,,,,,,,,,,,,,,,,,,,,,,,,,,,,,,,,,,,,,,,,,,,,,,,,,,,,,,,,,,,,,,,,,,,,,,,,,
,,5f63cec2fc0d7912ab4e3d6c,2022-09-08_12h45.18.716,CGTgamblingSpanTasks,2022.2.1,Win32,60.0240096,,,,,,,,3.003,,,,,,,,,,,,,,1,v,0.997,27.88092897,1,4.503,1.5,,,,,,27.88092897,0,2.771762788,,,,,,,,,,,,,0,37,37,117,1,0.499466648,1,,,,,,,,,,,,,,,,,,,,,,,,,,,,,,,,,,,,,,,,,,,,,,,,,,,,,,,,,,,,,,,,,,,,,,,,,,,,,,,,
,,5f63cec2fc0d7912ab4e3d6c,2022-09-08_12h45.18.716,CGTgamblingSpanTasks,2022.2.1,Win32,60.0240096,,,,,,,,3.151,,,,,,,,,,,,,,2,n,0.849,0,1,4.151,1,,,,,,24.66627941,0,2.765426402,,,,,,,,,,,,,0,38,38,24,1,0.467360588,1,,,,,,,,,,,,,,,,,,,,,,,,,,,,,,,,,,,,,,,,,,,,,,,,,,,,,,,,,,,,,,,,,,,,,,,,,,,,,,,,
,,5f63cec2fc0d7912ab4e3d6c,2022-09-08_12h45.18.716,CGTgamblingSpanTasks,2022.2.1,Win32,60.0240096,,,,,,,,3.15,,,,,,,,,,,,,,2,n,0.85,17.5608285,1,4.15,1,,,,,,17.5608285,0,1.825111303,,,,,,,,,,,,,0,39,39,104,1,0.487721116,1,,,,,,,,,,,,,,,,,,,,,,,,,,,,,,,,,,,,,,,,,,,,,,,,,,,,,,,,,,,,,,,,,,,,,,,,,,,,,,,,
,,5f63cec2fc0d7912ab4e3d6c,2022-09-08_12h45.18.716,CGTgamblingSpanTasks,2022.2.1,Win32,60.0240096,,,,,,,,3.168,,,,,,,,,,,,,,2,n,0.832,18.16238569,1,4.668,1.5,,,,,,18.16238569,0,1.540604093,,,,,,,,,,,,,0,40,40,34,1,0.540092491,1,,,,,,,,,,,,,,,,,,,,,,,,,,,,,,,,,,,,,,,,,,,,,,,,,,,,,,,,,,,,,,,,,,,,,,,,,,,,,,,,
,,5f63cec2fc0d7912ab4e3d6c,2022-09-08_12h45.18.716,CGTgamblingSpanTasks,2022.2.1,Win32,60.0240096,,,,,,,,2.654,,,,,,,,,,,,,,1,v,1.346,15.13999312,1,3.654,1,,,,,,15.13999312,0,8.653432553,,,,,,,,,,,,,0,41,41,54,1,0.081767484,0,,,,,,,,,,,,,,,,,,,,,,,,,,,,,,,,,,,,,,,,,,,,,,,,,,,,,,,,,,,,,,,,,,,,,,,,,,,,,,,,
,,5f63cec2fc0d7912ab4e3d6c,2022-09-08_12h45.18.716,CGTgamblingSpanTasks,2022.2.1,Win32,60.0240096,,,,,,,,2.686,,,,,,,,,,,,,,1,n,1.314,4.251676631,0,4.186,1.5,,,,,,3.395192929,0,4.251676631,,,,,,,,,,,,,0,42,42,7,1,0.023467153,0,,,,,,,,,,,,,,,,,,,,,,,,,,,,,,,,,,,,,,,,,,,,,,,,,,,,,,,,,,,,,,,,,,,,,,,,,,,,,,,,
,,5f63cec2fc0d7912ab4e3d6c,2022-09-08_12h45.18.716,CGTgamblingSpanTasks,2022.2.1,Win32,60.0240096,,,,,,,,2.851,,,,,,,,,,,,,,2,n,1.149,0,1,4.351,1.5,,,,,,19.3050342,0,2.030232342,,,,,,,,,,,,,0,43,43,73,1,0.484573227,1,,,,,,,,,,,,,,,,,,,,,,,,,,,,,,,,,,,,,,,,,,,,,,,,,,,,,,,,,,,,,,,,,,,,,,,,,,,,,,,,
,,5f63cec2fc0d7912ab4e3d6c,2022-09-08_12h45.18.716,CGTgamblingSpanTasks,2022.2.1,Win32,60.0240096,,,,,,,,2.919,,,,,,,,,,,,,,2,v,1.081,7.646213173,0,4.419,1.5,,,,,,2.042350179,0,7.646213173,,,,,,,,,,,,,0,44,44,53,1,0.009522273,0,,,,,,,,,,,,,,,,,,,,,,,,,,,,,,,,,,,,,,,,,,,,,,,,,,,,,,,,,,,,,,,,,,,,,,,,,,,,,,,,
,,5f63cec2fc0d7912ab4e3d6c,2022-09-08_12h45.18.716,CGTgamblingSpanTasks,2022.2.1,Win32,60.0240096,,,,,,,,3.147,,,,,,,,,,,,,,2,n,0.853,0,1,4.147,1,,,,,,22.72923833,0,0.067170781,,,,,,,,,,,,,0,45,45,86,1,0.907226703,0,,,,,,,,,,,,,,,,,,,,,,,,,,,,,,,,,,,,,,,,,,,,,,,,,,,,,,,,,,,,,,,,,,,,,,,,,,,,,,,,
,,5f63cec2fc0d7912ab4e3d6c,2022-09-08_12h45.18.716,CGTgamblingSpanTasks,2022.2.1,Win32,60.0240096,,,,,,,,3.131,,,,,,,,,,,,,,2,n,0.869,0,1,4.631,1.5,,,,,,13.4287264,0,1.317368801,,,,,,,,,,,,,0,46,46,100,1,0.502953125,1,,,,,,,,,,,,,,,,,,,,,,,,,,,,,,,,,,,,,,,,,,,,,,,,,,,,,,,,,,,,,,,,,,,,,,,,,,,,,,,,
,,5f63cec2fc0d7912ab4e3d6c,2022-09-08_12h45.18.716,CGTgamblingSpanTasks,2022.2.1,Win32,60.0240096,,,,,,,,3.054,,,,,,,,,,,,,,2,n,0.946,28.94627214,1,4.554,1.5,,,,,,28.94627214,0,2.701896413,,,,,,,,,,,,,0,47,47,111,1,0.515860759,1,,,,,,,,,,,,,,,,,,,,,,,,,,,,,,,,,,,,,,,,,,,,,,,,,,,,,,,,,,,,,,,,,,,,,,,,,,,,,,,,
,,5f63cec2fc0d7912ab4e3d6c,2022-09-08_12h45.18.716,CGTgamblingSpanTasks,2022.2.1,Win32,60.0240096,,,,,,,,2.564,,,,,,,,,,,,,,2,v,1.436,11.41737518,0,4.064,1.5,,,,,,18.11029021,0,11.41737518,,,,,,,,,,,,,0,48,48,48,1,0.069445859,0,,,,,,,,,,,,,,,,,,,,,,,,,,,,,,,,,,,,,,,,,,,,,,,,,,,,,,,,,,,,,,,,,,,,,,,,,,,,,,,,
,,5f63cec2fc0d7912ab4e3d6c,2022-09-08_12h45.18.716,CGTgamblingSpanTasks,2022.2.1,Win32,60.0240096,,,,,,,,3.168,,,,,,,,,,,,,,1,v,0.832,21.00799273,1,4.668,1.5,,,,,,21.00799273,0,0.067969053,,,,,,,,,,,,,0,49,49,92,1,0.904360262,0,,,,,,,,,,,,,,,,,,,,,,,,,,,,,,,,,,,,,,,,,,,,,,,,,,,,,,,,,,,,,,,,,,,,,,,,,,,,,,,,
,,5f63cec2fc0d7912ab4e3d6c,2022-09-08_12h45.18.716,CGTgamblingSpanTasks,2022.2.1,Win32,60.0240096,,,,,,,,3.137,,,,,,,,,,,,,,2,n,0.863,0,1,4.637,1.5,,,,,,25.26994993,0,2.78925142,,,,,,,,,,,,,0,50,50,108,1,0.471582922,1,,,,,,,,,,,,,,,,,,,,,,,,,,,,,,,,,,,,,,,,,,,,,,,,,,,,,,,,,,,,,,,,,,,,,,,,,,,,,,,,
,,5f63cec2fc0d7912ab4e3d6c,2022-09-08_12h45.18.716,CGTgamblingSpanTasks,2022.2.1,Win32,60.0240096,,,,,,,,3.184,,,,,,,,,,,,,,2,n,0.816,0,1,4.184,1,,,,,,19.36415485,0,1.966229494,,,,,,,,,,,,,0,51,51,96,1,0.493893111,1,,,,,,,,,,,,,,,,,,,,,,,,,,,,,,,,,,,,,,,,,,,,,,,,,,,,,,,,,,,,,,,,,,,,,,,,,,,,,,,,
,,5f63cec2fc0d7912ab4e3d6c,2022-09-08_12h45.18.716,CGTgamblingSpanTasks,2022.2.1,Win32,60.0240096,,,,,,,,3.269,,,,,,,,,,,,,,2,n,0.731,0,1,4.769,1.5,,,,,,8.670591867,0,1.025847652,,,,,,,,,,,,,0,52,52,18,1,0.452680459,1,,,,,,,,,,,,,,,,,,,,,,,,,,,,,,,,,,,,,,,,,,,,,,,,,,,,,,,,,,,,,,,,,,,,,,,,,,,,,,,,
,,5f63cec2fc0d7912ab4e3d6c,2022-09-08_12h45.18.716,CGTgamblingSpanTasks,2022.2.1,Win32,60.0240096,,,,,,,,2.38,,,,,,,,,,,,,,1,n,1.62,11.35147481,0,3.38,1,,,,,,17.67865084,0,11.35147481,,,,,,,,,,,,,0,53,53,91,1,0.067304606,0,,,,,,,,,,,,,,,,,,,,,,,,,,,,,,,,,,,,,,,,,,,,,,,,,,,,,,,,,,,,,,,,,,,,,,,,,,,,,,,,
,,5f63cec2fc0d7912ab4e3d6c,2022-09-08_12h45.18.716,CGTgamblingSpanTasks,2022.2.1,Win32,60.0240096,,,,,,,,2.097,,,,,,,,,,,,,,2,v,1.903,5.526483034,0,3.597,1.5,,,,,,9.725876653,0,5.526483034,,,,,,,,,,,,,0,54,54,44,1,0.082550696,0,,,,,,,,,,,,,,,,,,,,,,,,,,,,,,,,,,,,,,,,,,,,,,,,,,,,,,,,,,,,,,,,,,,,,,,,,,,,,,,,
,,5f63cec2fc0d7912ab4e3d6c,2022-09-08_12h45.18.716,CGTgamblingSpanTasks,2022.2.1,Win32,60.0240096,,,,,,,,3.198,,,,,,,,,,,,,,2,n,0.802,17.92584289,1,4.698,1.5,,,,,,17.92584289,0,1.878232496,,,,,,,,,,,,,0,55,55,5,1,0.485559263,1,,,,,,,,,,,,,,,,,,,,,,,,,,,,,,,,,,,,,,,,,,,,,,,,,,,,,,,,,,,,,,,,,,,,,,,,,,,,,,,,
,,5f63cec2fc0d7912ab4e3d6c,2022-09-08_12h45.18.716,CGTgamblingSpanTasks,2022.2.1,Win32,60.0240096,,,,,,,,3.05,,,,,,,,,,,,,,2,v,0.95,6.833409611,0,4.55,1.5,,,,,,6.325091157,0,6.833409611,,,,,,,,,,,,,0,56,56,58,1,0.027113638,0,,,,,,,,,,,,,,,,,,,,,,,,,,,,,,,,,,,,,,,,,,,,,,,,,,,,,,,,,,,,,,,,,,,,,,,,,,,,,,,,
,,5f63cec2fc0d7912ab4e3d6c,2022-09-08_12h45.18.716,CGTgamblingSpanTasks,2022.2.1,Win32,60.0240096,,,,,,,,3.034,,,,,,,,,,,,,,1,v,0.966,20.31034258,1,4.534,1.5,,,,,,20.31034258,0,1.870404296,,,,,,,,,,,,,0,57,57,85,1,0.519325853,1,,,,,,,,,,,,,,,,,,,,,,,,,,,,,,,,,,,,,,,,,,,,,,,,,,,,,,,,,,,,,,,,,,,,,,,,,,,,,,,,
,,5f63cec2fc0d7912ab4e3d6c,2022-09-08_12h45.18.716,CGTgamblingSpanTasks,2022.2.1,Win32,60.0240096,,,,,,,,2.719,,,,,,,,,,,,,,2,v,1.281,11.93550497,0,4.219,1.5,,,,,,14.20587264,0,11.93550497,,,,,,,,,,,,,0,58,58,21,1,0.041340301,0,,,,,,,,,,,,,,,,,,,,,,,,,,,,,,,,,,,,,,,,,,,,,,,,,,,,,,,,,,,,,,,,,,,,,,,,,,,,,,,,
,,5f63cec2fc0d7912ab4e3d6c,2022-09-08_12h45.18.716,CGTgamblingSpanTasks,2022.2.1,Win32,60.0240096,,,,,,,,3.136,,,,,,,,,,,,,,1,v,0.864,0,1,4.636,1.5,,,,,,18.20422443,0,1.635040165,,,,,,,,,,,,,0,59,59,82,1,0.525708991,1,,,,,,,,,,,,,,,,,,,,,,,,,,,,,,,,,,,,,,,,,,,,,,,,,,,,,,,,,,,,,,,,,,,,,,,,,,,,,,,,
,,5f63cec2fc0d7912ab4e3d6c,2022-09-08_12h45.18.716,CGTgamblingSpanTasks,2022.2.1,Win32,60.0240096,,,,,,,,3.205,,,,,,,,,,,,,,2,n,0.795,27.93093084,1,4.705,1.5,,,,,,27.93093084,0,0.050207531,,,,,,,,,,,,,0,60,60,83,1,0.920505936,0,,,,,,,,,,,,,,,,,,,,,,,,,,,,,,,,,,,,,,,,,,,,,,,,,,,,,,,,,,,,,,,,,,,,,,,,,,,,,,,,
,,5f63cec2fc0d7912ab4e3d6c,2022-09-08_12h45.18.716,CGTgamblingSpanTasks,2022.2.1,Win32,60.0240096,,,,,,,,2.97,,,,,,,,,,,,,,2,v,1.03,6.781500919,0,3.97,1,,,,,,8.363821911,0,6.781500919,,,,,,,,,,,,,0,61,61,61,1,0.044227959,0,,,,,,,,,,,,,,,,,,,,,,,,,,,,,,,,,,,,,,,,,,,,,,,,,,,,,,,,,,,,,,,,,,,,,,,,,,,,,,,,
,,5f63cec2fc0d7912ab4e3d6c,2022-09-08_12h45.18.716,CGTgamblingSpanTasks,2022.2.1,Win32,60.0240096,,,,,,,,3.266,,,,,,,,,,,,,,1,v,0.734,0,1,4.266,1,,,,,,25.65316415,0,0.079652925,,,,,,,,,,,,,0,62,62,109,1,0.90568168,0,,,,,,,,,,,,,,,,,,,,,,,,,,,,,,,,,,,,,,,,,,,,,,,,,,,,,,,,,,,,,,,,,,,,,,,,,,,,,,,,
,,5f63cec2fc0d7912ab4e3d6c,2022-09-08_12h45.18.716,CGTgamblingSpanTasks,2022.2.1,Win32,60.0240096,,,,,,,,3.186,,,,,,,,,,,,,,2,n,0.814,26.36733703,1,4.686,1.5,,,,,,26.36733703,0,2.201057101,,,,,,,,,,,,,0,63,63,90,1,0.544064207,1,,,,,,,,,,,,,,,,,,,,,,,,,,,,,,,,,,,,,,,,,,,,,,,,,,,,,,,,,,,,,,,,,,,,,,,,,,,,,,,,
,,5f63cec2fc0d7912ab4e3d6c,2022-09-08_12h45.18.716,CGTgamblingSpanTasks,2022.2.1,Win32,60.0240096,,,,,,,,3.302,,,,,,,,,,,,,,2,n,0.698,27.7711693,1,4.302,1,,,,,,27.7711693,0,2.320849632,,,,,,,,,,,,,0,64,64,94,1,0.543786368,1,,,,,,,,,,,,,,,,,,,,,,,,,,,,,,,,,,,,,,,,,,,,,,,,,,,,,,,,,,,,,,,,,,,,,,,,,,,,,,,,
,,5f63cec2fc0d7912ab4e3d6c,2022-09-08_12h45.18.716,CGTgamblingSpanTasks,2022.2.1,Win32,60.0240096,,,,,,,,3.249,,,,,,,,,,,,,,1,v,0.751,0,1,4.749,1.5,,,,,,19.5450126,0,2.123581464,,,,,,,,,,,,,0,65,65,65,1,0.475836144,1,,,,,,,,,,,,,,,,,,,,,,,,,,,,,,,,,,,,,,,,,,,,,,,,,,,,,,,,,,,,,,,,,,,,,,,,,,,,,,,,
,,5f63cec2fc0d7912ab4e3d6c,2022-09-08_12h45.18.716,CGTgamblingSpanTasks,2022.2.1,Win32,60.0240096,,,,,,,,3.218,,,,,,,,,,,,,,1,v,0.782,0,1,4.218,1,,,,,,19.68065872,0,1.843597162,,,,,,,,,,,,,0,66,66,80,1,0.514941058,1,,,,,,,,,,,,,,,,,,,,,,,,,,,,,,,,,,,,,,,,,,,,,,,,,,,,,,,,,,,,,,,,,,,,,,,,,,,,,,,,
,,5f63cec2fc0d7912ab4e3d6c,2022-09-08_12h45.18.716,CGTgamblingSpanTasks,2022.2.1,Win32,60.0240096,,,,,,,,2.854,,,,,,,,,,,,,,1,v,1.146,18.50662664,1,3.854,1,,,,,,18.50662664,0,0.052546026,,,,,,,,,,,,,0,67,67,112,1,0.908444837,0,,,,,,,,,,,,,,,,,,,,,,,,,,,,,,,,,,,,,,,,,,,,,,,,,,,,,,,,,,,,,,,,,,,,,,,,,,,,,,,,
,,5f63cec2fc0d7912ab4e3d6c,2022-09-08_12h45.18.716,CGTgamblingSpanTasks,2022.2.1,Win32,60.0240096,,,,,,,,2.851,,,,,,,,,,,,,,1,v,1.149,27.4965044,1,3.851,1,,,,,,27.4965044,0,2.461467004,,,,,,,,,,,,,0,68,68,36,1,0.526550878,1,,,,,,,,,,,,,,,,,,,,,,,,,,,,,,,,,,,,,,,,,,,,,,,,,,,,,,,,,,,,,,,,,,,,,,,,,,,,,,,,
,,5f63cec2fc0d7912ab4e3d6c,2022-09-08_12h45.18.716,CGTgamblingSpanTasks,2022.2.1,Win32,60.0240096,,,,,,,,3.141,,,,,,,,,,,,,,2,n,0.859,0,1,4.141,1,,,,,,21.16780451,0,2.469465385,,,,,,,,,,,,,0,69,69,32,1,0.456531699,1,,,,,,,,,,,,,,,,,,,,,,,,,,,,,,,,,,,,,,,,,,,,,,,,,,,,,,,,,,,,,,,,,,,,,,,,,,,,,,,,
,,5f63cec2fc0d7912ab4e3d6c,2022-09-08_12h45.18.716,CGTgamblingSpanTasks,2022.2.1,Win32,60.0240096,,,,,,,,2.137,,,,,,,,,,,,,,1,v,1.863,0,1,3.137,1,,,,,,15.87668502,0,8.42547829,,,,,,,,,,,,,0,70,70,56,1,0.092099462,0,,,,,,,,,,,,,,,,,,,,,,,,,,,,,,,,,,,,,,,,,,,,,,,,,,,,,,,,,,,,,,,,,,,,,,,,,,,,,,,,
,,5f63cec2fc0d7912ab4e3d6c,2022-09-08_12h45.18.716,CGTgamblingSpanTasks,2022.2.1,Win32,60.0240096,,,,,,,,3.12,,,,,,,,,,,,,,2,n,0.88,29.77342428,1,4.62,1.5,,,,,,29.77342428,0,2.838865588,,,,,,,,,,,,,0,71,71,57,1,0.510363415,1,,,,,,,,,,,,,,,,,,,,,,,,,,,,,,,,,,,,,,,,,,,,,,,,,,,,,,,,,,,,,,,,,,,,,,,,,,,,,,,,
,,5f63cec2fc0d7912ab4e3d6c,2022-09-08_12h45.18.716,CGTgamblingSpanTasks,2022.2.1,Win32,60.0240096,,,,,,,,3.266,,,,,,,,,,,,,,2,n,0.734,24.479109,1,4.766,1.5,,,,,,24.479109,0,0.089582697,,,,,,,,,,,,,0,72,72,89,1,0.900200232,0,,,,,,,,,,,,,,,,,,,,,,,,,,,,,,,,,,,,,,,,,,,,,,,,,,,,,,,,,,,,,,,,,,,,,,,,,,,,,,,,
,,5f63cec2fc0d7912ab4e3d6c,2022-09-08_12h45.18.716,CGTgamblingSpanTasks,2022.2.1,Win32,60.0240096,,,,,,,,3.131,,,,,,,,,,,,,,1,v,0.869,0,1,4.131,1,,,,,,25.56803059,0,2.543951743,,,,,,,,,,,,,0,73,73,41,1,0.499247217,1,,,,,,,,,,,,,,,,,,,,,,,,,,,,,,,,,,,,,,,,,,,,,,,,,,,,,,,,,,,,,,,,,,,,,,,,,,,,,,,,
,,5f63cec2fc0d7912ab4e3d6c,2022-09-08_12h45.18.716,CGTgamblingSpanTasks,2022.2.1,Win32,60.0240096,,,,,,,,3.284,,,,,,,,,,,,,,1,v,0.716,0,1,4.284,1,,,,,,28.33977875,0,2.768313633,,,,,,,,,,,,,0,74,74,116,1,0.50406901,1,,,,,,,,,,,,,,,,,,,,,,,,,,,,,,,,,,,,,,,,,,,,,,,,,,,,,,,,,,,,,,,,,,,,,,,,,,,,,,,,
,,5f63cec2fc0d7912ab4e3d6c,2022-09-08_12h45.18.716,CGTgamblingSpanTasks,2022.2.1,Win32,60.0240096,,,,,,,,3.288,,,,,,,,,,,,,,2,n,0.712,0,1,4.788,1.5,,,,,,24.57684014,0,0.061756244,,,,,,,,,,,,,0,75,75,68,1,0.911988903,0,,,,,,,,,,,,,,,,,,,,,,,,,,,,,,,,,,,,,,,,,,,,,,,,,,,,,,,,,,,,,,,,,,,,,,,,,,,,,,,,
,,5f63cec2fc0d7912ab4e3d6c,2022-09-08_12h45.18.716,CGTgamblingSpanTasks,2022.2.1,Win32,60.0240096,,,,,,,,3.014,,,,,,,,,,,,,,2,n,0.986,27.94544945,1,4.014,1,,,,,,27.94544945,0,2.32030209,,,,,,,,,,,,,0,76,76,115,1,0.545390564,1,,,,,,,,,,,,,,,,,,,,,,,,,,,,,,,,,,,,,,,,,,,,,,,,,,,,,,,,,,,,,,,,,,,,,,,,,,,,,,,,
,,5f63cec2fc0d7912ab4e3d6c,2022-09-08_12h45.18.716,CGTgamblingSpanTasks,2022.2.1,Win32,60.0240096,,,,,,,,2.251,,,,,,,,,,,,,,1,v,1.749,0,1,3.751,1.5,,,,,,19.58698544,0,9.936178001,,,,,,,,,,,,,0,77,77,77,1,0.098812204,0,,,,,,,,,,,,,,,,,,,,,,,,,,,,,,,,,,,,,,,,,,,,,,,,,,,,,,,,,,,,,,,,,,,,,,,,,,,,,,,,
,,5f63cec2fc0d7912ab4e3d6c,2022-09-08_12h45.18.716,CGTgamblingSpanTasks,2022.2.1,Win32,60.0240096,,,,,,,,3.249,,,,,,,,,,,,,,2,n,0.751,0,1,4.749,1.5,,,,,,7.066129113,0,0.585581699,,,,,,,,,,,,,0,78,78,19,1,0.545860632,1,,,,,,,,,,,,,,,,,,,,,,,,,,,,,,,,,,,,,,,,,,,,,,,,,,,,,,,,,,,,,,,,,,,,,,,,,,,,,,,,
,,5f63cec2fc0d7912ab4e3d6c,2022-09-08_12h45.18.716,CGTgamblingSpanTasks,2022.2.1,Win32,60.0240096,,,,,,,,2.902,,,,,,,,,,,,,,2,v,1.098,11.61882862,0,4.402,1.5,,,,,,4.022743614,0,11.61882862,,,,,,,,,,,,,0,79,79,38,1,0.011499376,0,,,,,,,,,,,,,,,,,,,,,,,,,,,,,,,,,,,,,,,,,,,,,,,,,,,,,,,,,,,,,,,,,,,,,,,,,,,,,,,,
,,5f63cec2fc0d7912ab4e3d6c,2022-09-08_12h45.18.716,CGTgamblingSpanTasks,2022.2.1,Win32,60.0240096,,,,,,,,3.319,,,,,,,,,,,,,,2,n,0.681,0,1,4.319,1,,,,,,22.86604061,0,2.293289792,,,,,,,,,,,,,0,80,80,51,1,0.49715382,1,,,,,,,,,,,,,,,,,,,,,,,,,,,,,,,,,,,,,,,,,,,,,,,,,,,,,,,,,,,,,,,,,,,,,,,,,,,,,,,,
,,5f63cec2fc0d7912ab4e3d6c,2022-09-08_12h45.18.716,CGTgamblingSpanTasks,2022.2.1,Win32,60.0240096,,,,,,,,2.669,,,,,,,,,,,,,,1,v,1.331,0,1,4.169,1.5,,,,,,26.4985979,0,0.051324376,,,,,,,,,,,,,0,81,81,106,1,0.918747215,0,,,,,,,,,,,,,,,,,,,,,,,,,,,,,,,,,,,,,,,,,,,,,,,,,,,,,,,,,,,,,,,,,,,,,,,,,,,,,,,,
,,5f63cec2fc0d7912ab4e3d6c,2022-09-08_12h45.18.716,CGTgamblingSpanTasks,2022.2.1,Win32,60.0240096,,,,,,,,2.852,,,,,,,,,,,,,,2,v,1.148,4.904872644,0,3.852,1,,,,,,4.698775357,0,4.904872644,,,,,,,,,,,,,0,82,82,75,1,0.028064484,0,,,,,,,,,,,,,,,,,,,,,,,,,,,,,,,,,,,,,,,,,,,,,,,,,,,,,,,,,,,,,,,,,,,,,,,,,,,,,,,,
,,5f63cec2fc0d7912ab4e3d6c,2022-09-08_12h45.18.716,CGTgamblingSpanTasks,2022.2.1,Win32,60.0240096,,,,,,,,3.084,,,,,,,,,,,,,,1,v,0.916,29.75778644,1,4.084,1,,,,,,29.75778644,0,2.810531415,,,,,,,,,,,,,0,83,83,113,1,0.512824233,1,,,,,,,,,,,,,,,,,,,,,,,,,,,,,,,,,,,,,,,,,,,,,,,,,,,,,,,,,,,,,,,,,,,,,,,,,,,,,,,,
,,5f63cec2fc0d7912ab4e3d6c,2022-09-08_12h45.18.716,CGTgamblingSpanTasks,2022.2.1,Win32,60.0240096,,,,,,,,3.196,,,,,,,,,,,,,,2,n,0.804,0,1,4.196,1,,,,,,22.87092517,0,0.059276504,,,,,,,,,,,,,0,84,84,27,1,0.911114935,0,,,,,,,,,,,,,,,,,,,,,,,,,,,,,,,,,,,,,,,,,,,,,,,,,,,,,,,,,,,,,,,,,,,,,,,,,,,,,,,,
,,5f63cec2fc0d7912ab4e3d6c,2022-09-08_12h45.18.716,CGTgamblingSpanTasks,2022.2.1,Win32,60.0240096,,,,,,,,3.252,,,,,,,,,,,,,,2,n,0.748,0,1,4.252,1,,,,,,25.21882231,0,0.085746782,,,,,,,,,,,,,0,85,85,64,1,0.90272076,0,,,,,,,,,,,,,,,,,,,,,,,,,,,,,,,,,,,,,,,,,,,,,,,,,,,,,,,,,,,,,,,,,,,,,,,,,,,,,,,,
,,5f63cec2fc0d7912ab4e3d6c,2022-09-08_12h45.18.716,CGTgamblingSpanTasks,2022.2.1,Win32,60.0240096,,,,,,,,3.08,,,,,,,,,,,,,,1,v,0.92,15.43649625,1,4.08,1,,,,,,15.43649625,0,1.65459324,,,,,,,,,,,,,0,86,86,33,1,0.479480163,1,,,,,,,,,,,,,,,,,,,,,,,,,,,,,,,,,,,,,,,,,,,,,,,,,,,,,,,,,,,,,,,,,,,,,,,,,,,,,,,,
,,5f63cec2fc0d7912ab4e3d6c,2022-09-08_12h45.18.716,CGTgamblingSpanTasks,2022.2.1,Win32,60.0240096,,,,,,,,3.061,,,,,,,,,,,,,,1,v,0.939,0,1,4.061,1,,,,,,21.03408097,0,2.208275162,,,,,,,,,,,,,0,87,87,0,1,0.485031246,1,,,,,,,,,,,,,,,,,,,,,,,,,,,,,,,,,,,,,,,,,,,,,,,,,,,,,,,,,,,,,,,,,,,,,,,,,,,,,,,,
,,5f63cec2fc0d7912ab4e3d6c,2022-09-08_12h45.18.716,CGTgamblingSpanTasks,2022.2.1,Win32,60.0240096,,,,,,,,3.248,,,,,,,,,,,,,,1,v,0.752,0,1,4.248,1,,,,,,28.13634754,0,2.532806323,,,,,,,,,,,,,0,88,88,28,1,0.525136524,1,,,,,,,,,,,,,,,,,,,,,,,,,,,,,,,,,,,,,,,,,,,,,,,,,,,,,,,,,,,,,,,,,,,,,,,,,,,,,,,,
,,5f63cec2fc0d7912ab4e3d6c,2022-09-08_12h45.18.716,CGTgamblingSpanTasks,2022.2.1,Win32,60.0240096,,,,,,,,3.125,,,,,,,,,,,,,,2,n,0.875,0,1,4.125,1,,,,,,21.7711579,0,2.502728921,,,,,,,,,,,,,0,89,89,101,1,0.460552621,1,,,,,,,,,,,,,,,,,,,,,,,,,,,,,,,,,,,,,,,,,,,,,,,,,,,,,,,,,,,,,,,,,,,,,,,,,,,,,,,,
,,5f63cec2fc0d7912ab4e3d6c,2022-09-08_12h45.18.716,CGTgamblingSpanTasks,2022.2.1,Win32,60.0240096,,,,,,,,3.101,,,,,,,,,,,,,,2,n,0.899,0,1,4.601,1.5,,,,,,7.534278541,0,0.747140182,,,,,,,,,,,,,0,90,90,37,1,0.50012466,1,,,,,,,,,,,,,,,,,,,,,,,,,,,,,,,,,,,,,,,,,,,,,,,,,,,,,,,,,,,,,,,,,,,,,,,,,,,,,,,,
,,5f63cec2fc0d7912ab4e3d6c,2022-09-08_12h45.18.716,CGTgamblingSpanTasks,2022.2.1,Win32,60.0240096,,,,,,,,3.047,,,,,,,,,,,,,,2,n,0.953,13.84410806,1,4.547,1.5,,,,,,13.84410806,0,1.535873964,,,,,,,,,,,,,0,91,91,88,1,0.470209002,1,,,,,,,,,,,,,,,,,,,,,,,,,,,,,,,,,,,,,,,,,,,,,,,,,,,,,,,,,,,,,,,,,,,,,,,,,,,,,,,,
,,5f63cec2fc0d7912ab4e3d6c,2022-09-08_12h45.18.716,CGTgamblingSpanTasks,2022.2.1,Win32,60.0240096,,,,,,,,3.197,,,,,,,,,,,,,,1,v,0.803,0,1,4.197,1,,,,,,21.48443242,0,2.229247341,,,,,,,,,,,,,0,92,92,63,1,0.488155912,1,,,,,,,,,,,,,,,,,,,,,,,,,,,,,,,,,,,,,,,,,,,,,,,,,,,,,,,,,,,,,,,,,,,,,,,,,,,,,,,,
,,5f63cec2fc0d7912ab4e3d6c,2022-09-08_12h45.18.716,CGTgamblingSpanTasks,2022.2.1,Win32,60.0240096,,,,,,,,3.152,,,,,,,,,,,,,,1,v,0.848,0,1,4.152,1,,,,,,23.59556381,0,2.464662219,,,,,,,,,,,,,0,93,93,22,1,0.486383205,1,,,,,,,,,,,,,,,,,,,,,,,,,,,,,,,,,,,,,,,,,,,,,,,,,,,,,,,,,,,,,,,,,,,,,,,,,,,,,,,,
,,5f63cec2fc0d7912ab4e3d6c,2022-09-08_12h45.18.716,CGTgamblingSpanTasks,2022.2.1,Win32,60.0240096,,,,,,,,2.718,,,,,,,,,,,,,,2,v,1.282,11.42134125,0,3.718,1,,,,,,12.9904115,0,11.42134125,,,,,,,,,,,,,0,94,94,118,1,0.037876033,0,,,,,,,,,,,,,,,,,,,,,,,,,,,,,,,,,,,,,,,,,,,,,,,,,,,,,,,,,,,,,,,,,,,,,,,,,,,,,,,,
,,5f63cec2fc0d7912ab4e3d6c,2022-09-08_12h45.18.716,CGTgamblingSpanTasks,2022.2.1,Win32,60.0240096,,,,,,,,3.07,,,,,,,,,,,,,,2,n,0.93,26.16821818,1,4.57,1.5,,,,,,26.16821818,0,0.093528069,,,,,,,,,,,,,0,95,95,42,1,0.901022427,0,,,,,,,,,,,,,,,,,,,,,,,,,,,,,,,,,,,,,,,,,,,,,,,,,,,,,,,,,,,,,,,,,,,,,,,,,,,,,,,,
,,5f63cec2fc0d7912ab4e3d6c,2022-09-08_12h45.18.716,CGTgamblingSpanTasks,2022.2.1,Win32,60.0240096,,,,,,,,3.003,,,,,,,,,,,,,,1,v,0.997,0,1,4.503,1.5,,,,,,27.39221343,0,2.743407746,,,,,,,,,,,,,0,96,96,47,1,0.49752044,1,,,,,,,,,,,,,,,,,,,,,,,,,,,,,,,,,,,,,,,,,,,,,,,,,,,,,,,,,,,,,,,,,,,,,,,,,,,,,,,,
,,5f63cec2fc0d7912ab4e3d6c,2022-09-08_12h45.18.716,CGTgamblingSpanTasks,2022.2.1,Win32,60.0240096,,,,,,,,3.252,,,,,,,,,,,,,,2,n,0.748,0,1,4.252,1,,,,,,21.39646914,0,0.072474078,,,,,,,,,,,,,0,97,97,3,1,0.902848133,0,,,,,,,,,,,,,,,,,,,,,,,,,,,,,,,,,,,,,,,,,,,,,,,,,,,,,,,,,,,,,,,,,,,,,,,,,,,,,,,,
,,5f63cec2fc0d7912ab4e3d6c,2022-09-08_12h45.18.716,CGTgamblingSpanTasks,2022.2.1,Win32,60.0240096,,,,,,,,3.184,,,,,,,,,,,,,,1,v,0.816,0,1,4.184,1,,,,,,22.25959835,0,0.065383587,,,,,,,,,,,,,0,98,98,97,1,0.907413875,0,,,,,,,,,,,,,,,,,,,,,,,,,,,,,,,,,,,,,,,,,,,,,,,,,,,,,,,,,,,,,,,,,,,,,,,,,,,,,,,,
,,5f63cec2fc0d7912ab4e3d6c,2022-09-08_12h45.18.716,CGTgamblingSpanTasks,2022.2.1,Win32,60.0240096,,,,,,,,2.91,,,,,,,,,,,,,,2,v,1.09,3.877530383,0,4.41,1.5,,,,,,3.471484939,0,3.877530383,,,,,,,,,,,,,0,99,99,40,1,0.02623078,0,,,,,,,,,,,,,,,,,,,,,,,,,,,,,,,,,,,,,,,,,,,,,,,,,,,,,,,,,,,,,,,,,,,,,,,,,,,,,,,,
,,5f63cec2fc0d7912ab4e3d6c,2022-09-08_12h45.18.716,CGTgamblingSpanTasks,2022.2.1,Win32,60.0240096,,,,,,,,2.651,,,,,,,,,,,,,,2,v,1.349,11.19311486,0,3.651,1,,,,,,8.17598802,0,11.19311486,,,,,,,,,,,,,0,100,100,110,1,0.021568003,0,,,,,,,,,,,,,,,,,,,,,,,,,,,,,,,,,,,,,,,,,,,,,,,,,,,,,,,,,,,,,,,,,,,,,,,,,,,,,,,,
,,5f63cec2fc0d7912ab4e3d6c,2022-09-08_12h45.18.716,CGTgamblingSpanTasks,2022.2.1,Win32,60.0240096,,,,,,,,3.22,,,,,,,,,,,,,,1,v,0.78,29.76099779,1,4.72,1.5,,,,,,29.76099779,0,0.095763086,,,,,,,,,,,,,0,101,101,35,1,0.904537896,0,,,,,,,,,,,,,,,,,,,,,,,,,,,,,,,,,,,,,,,,,,,,,,,,,,,,,,,,,,,,,,,,,,,,,,,,,,,,,,,,
,,5f63cec2fc0d7912ab4e3d6c,2022-09-08_12h45.18.716,CGTgamblingSpanTasks,2022.2.1,Win32,60.0240096,,,,,,,,2.613,,,,,,,,,,,,,,1,v,1.387,14.11762686,1,3.613,1,,,,,,14.11762686,0,8.579385201,,,,,,,,,,,,,0,102,102,60,1,0.073886959,0,,,,,,,,,,,,,,,,,,,,,,,,,,,,,,,,,,,,,,,,,,,,,,,,,,,,,,,,,,,,,,,,,,,,,,,,,,,,,,,,
,,5f63cec2fc0d7912ab4e3d6c,2022-09-08_12h45.18.716,CGTgamblingSpanTasks,2022.2.1,Win32,60.0240096,,,,,,,,3.162,,,,,,,,,,,,,,1,v,0.838,27.60724521,1,4.162,1,,,,,,27.60724521,0,0.088432325,,,,,,,,,,,,,0,103,103,17,1,0.904684186,0,,,,,,,,,,,,,,,,,,,,,,,,,,,,,,,,,,,,,,,,,,,,,,,,,,,,,,,,,,,,,,,,,,,,,,,,,,,,,,,,
,,5f63cec2fc0d7912ab4e3d6c,2022-09-08_12h45.18.716,CGTgamblingSpanTasks,2022.2.1,Win32,60.0240096,,,,,,,,3.201,,,,,,,,,,,,,,2,n,0.799,0,1,4.201,1,,,,,,28.18900855,0,0.05384276,,,,,,,,,,,,,0,104,104,55,1,0.919081308,0,,,,,,,,,,,,,,,,,,,,,,,,,,,,,,,,,,,,,,,,,,,,,,,,,,,,,,,,,,,,,,,,,,,,,,,,,,,,,,,,
,,5f63cec2fc0d7912ab4e3d6c,2022-09-08_12h45.18.716,CGTgamblingSpanTasks,2022.2.1,Win32,60.0240096,,,,,,,,3.401,,,,,,,,,,,,,,2,n,0.599,0,1,4.901,1.5,,,,,,28.68598705,0,0.050674956,,,,,,,,,,,,,0,105,105,62,1,0.920905497,0,,,,,,,,,,,,,,,,,,,,,,,,,,,,,,,,,,,,,,,,,,,,,,,,,,,,,,,,,,,,,,,,,,,,,,,,,,,,,,,,
,,5f63cec2fc0d7912ab4e3d6c,2022-09-08_12h45.18.716,CGTgamblingSpanTasks,2022.2.1,Win32,60.0240096,,,,,,,,2.983,,,,,,,,,,,,,,1,v,1.017,0,1,3.983,1,,,,,,24.8002852,0,0.071848086,,,,,,,,,,,,,0,106,106,16,1,0.90783559,0,,,,,,,,,,,,,,,,,,,,,,,,,,,,,,,,,,,,,,,,,,,,,,,,,,,,,,,,,,,,,,,,,,,,,,,,,,,,,,,,
,,5f63cec2fc0d7912ab4e3d6c,2022-09-08_12h45.18.716,CGTgamblingSpanTasks,2022.2.1,Win32,60.0240096,,,,,,,,3.02,,,,,,,,,,,,,,2,n,0.98,0,1,4.52,1.5,,,,,,28.9381277,0,2.663622024,,,,,,,,,,,,,0,107,107,103,1,0.519453367,1,,,,,,,,,,,,,,,,,,,,,,,,,,,,,,,,,,,,,,,,,,,,,,,,,,,,,,,,,,,,,,,,,,,,,,,,,,,,,,,,
,,5f63cec2fc0d7912ab4e3d6c,2022-09-08_12h45.18.716,CGTgamblingSpanTasks,2022.2.1,Win32,60.0240096,,,,,,,,2.72,,,,,,,,,,,,,,1,v,1.28,0,1,3.72,1,,,,,,23.24777057,0,2.003482335,,,,,,,,,,,,,0,108,108,59,1,0.536135174,1,,,,,,,,,,,,,,,,,,,,,,,,,,,,,,,,,,,,,,,,,,,,,,,,,,,,,,,,,,,,,,,,,,,,,,,,,,,,,,,,
,,5f63cec2fc0d7912ab4e3d6c,2022-09-08_12h45.18.716,CGTgamblingSpanTasks,2022.2.1,Win32,60.0240096,,,,,,,,2.911,,,,,,,,,,,,,,1,v,1.089,0,1,3.911,1,,,,,,27.37527992,0,2.860319095,,,,,,,,,,,,,0,109,109,39,1,0.486304156,1,,,,,,,,,,,,,,,,,,,,,,,,,,,,,,,,,,,,,,,,,,,,,,,,,,,,,,,,,,,,,,,,,,,,,,,,,,,,,,,,
,,5f63cec2fc0d7912ab4e3d6c,2022-09-08_12h45.18.716,CGTgamblingSpanTasks,2022.2.1,Win32,60.0240096,,,,,,,,2.682,,,,,,,,,,,,,,1,v,1.318,29.30724159,1,3.682,1,,,,,,29.30724159,0,3.247012935,,,,,,,,,,,,,0,110,110,71,1,0.470571125,1,,,,,,,,,,,,,,,,,,,,,,,,,,,,,,,,,,,,,,,,,,,,,,,,,,,,,,,,,,,,,,,,,,,,,,,,,,,,,,,,
,,5f63cec2fc0d7912ab4e3d6c,2022-09-08_12h45.18.716,CGTgamblingSpanTasks,2022.2.1,Win32,60.0240096,,,,,,,,3.109,,,,,,,,,,,,,,1,v,0.891,26.11188619,1,4.609,1.5,,,,,,26.11188619,0,0.081942421,,,,,,,,,,,,,0,111,111,105,1,0.905343856,0,,,,,,,,,,,,,,,,,,,,,,,,,,,,,,,,,,,,,,,,,,,,,,,,,,,,,,,,,,,,,,,,,,,,,,,,,,,,,,,,
,,5f63cec2fc0d7912ab4e3d6c,2022-09-08_12h45.18.716,CGTgamblingSpanTasks,2022.2.1,Win32,60.0240096,,,,,,,,2.957,,,,,,,,,,,,,,1,v,1.043,0,1,3.957,1,,,,,,8.217594828,0,0.951019374,,,,,,,,,,,,,0,112,112,87,1,0.458722936,1,,,,,,,,,,,,,,,,,,,,,,,,,,,,,,,,,,,,,,,,,,,,,,,,,,,,,,,,,,,,,,,,,,,,,,,,,,,,,,,,
,,5f63cec2fc0d7912ab4e3d6c,2022-09-08_12h45.18.716,CGTgamblingSpanTasks,2022.2.1,Win32,60.0240096,,,,,,,,2.919,,,,,,,,,,,,,,1,v,1.081,17.85020524,1,3.919,1,,,,,,17.85020524,0,2.058701084,,,,,,,,,,,,,0,113,113,25,1,0.459662216,1,,,,,,,,,,,,,,,,,,,,,,,,,,,,,,,,,,,,,,,,,,,,,,,,,,,,,,,,,,,,,,,,,,,,,,,,,,,,,,,,
,,5f63cec2fc0d7912ab4e3d6c,2022-09-08_12h45.18.716,CGTgamblingSpanTasks,2022.2.1,Win32,60.0240096,,,,,,,,2.915,,,,,,,,,,,,,,2,v,1.085,7.850775577,0,4.415,1.5,,,,,,4.622707531,0,7.850775577,,,,,,,,,,,,,0,114,114,6,1,0.017737407,0,,,,,,,,,,,,,,,,,,,,,,,,,,,,,,,,,,,,,,,,,,,,,,,,,,,,,,,,,,,,,,,,,,,,,,,,,,,,,,,,
,,5f63cec2fc0d7912ab4e3d6c,2022-09-08_12h45.18.716,CGTgamblingSpanTasks,2022.2.1,Win32,60.0240096,,,,,,,,2.969,,,,,,,,,,,,,,2,n,1.031,0,1,4.469,1.5,,,,,,11.16819157,0,0.941456753,,,,,,,,,,,,,0,115,115,45,1,0.54163803,1,,,,,,,,,,,,,,,,,,,,,,,,,,,,,,,,,,,,,,,,,,,,,,,,,,,,,,,,,,,,,,,,,,,,,,,,,,,,,,,,
,,5f63cec2fc0d7912ab4e3d6c,2022-09-08_12h45.18.716,CGTgamblingSpanTasks,2022.2.1,Win32,60.0240096,,,,,,,,3.12,,,,,,,,,,,,,,2,n,0.88,22.62475578,1,4.62,1.5,,,,,,22.62475578,0,2.397643354,,,,,,,,,,,,,0,116,116,93,1,0.482527609,1,,,,,,,,,,,,,,,,,,,,,,,,,,,,,,,,,,,,,,,,,,,,,,,,,,,,,,,,,,,,,,,,,,,,,,,,,,,,,,,,
,,5f63cec2fc0d7912ab4e3d6c,2022-09-08_12h45.18.716,CGTgamblingSpanTasks,2022.2.1,Win32,60.0240096,,,,,,,,3.253,,,,,,,,,,,,,,2,n,0.747,27.38828234,1,4.253,1,,,,,,27.38828234,0,0.0639233,,,,,,,,,,,,,0,117,117,43,1,0.914010176,0,,,,,,,,,,,,,,,,,,,,,,,,,,,,,,,,,,,,,,,,,,,,,,,,,,,,,,,,,,,,,,,,,,,,,,,,,,,,,,,,
,,5f63cec2fc0d7912ab4e3d6c,2022-09-08_12h45.18.716,CGTgamblingSpanTasks,2022.2.1,Win32,60.0240096,,,,,,,,3.02,,,,,,,,,,,,,,2,n,0.98,21.2188881,1,4.52,1.5,,,,,,21.2188881,0,2.067660742,,,,,,,,,,,,,0,118,118,107,1,0.50470775,1,,,,,,,,,,,,,,,,,,,,,,,,,,,,,,,,,,,,,,,,,,,,,,,,,,,,,,,,,,,,,,,,,,,,,,,,,,,,,,,,
,,5f63cec2fc0d7912ab4e3d6c,2022-09-08_12h45.18.716,CGTgamblingSpanTasks,2022.2.1,Win32,60.0240096,,,,,,,,2.829,,,,,,,,,,,,,,2,v,1.171,11.6744431,0,3.829,1,,,,,,10.43004651,0,11.6744431,,,,,,,,,,,,,0,119,119,15,1,0.026176489,0,,,,,,,,,,,,,,,,,,,,,,,,,,,,,,,,,,,,,,,,,,,,,,,,,,,,,,,,,,,,,,,,,,,,,,,,,,,,,,,,
,,5f63cec2fc0d7912ab4e3d6c,2022-09-08_12h45.18.716,CGTgamblingSpanTasks,2022.2.1,Win32,60.0240096,,,,,,,,,,,,,,,,,,,,,,,,,,,,,,,,,,,,,,,,,,,,,,,,,,,,,,,,return,9.493,,,,,,,,,,,,,,,,,,,,,,,,,,,,,,,,,,,,,,,,,,,,,,,,,,,,,,,,,,,,,,,,,,,,,,,,,,,,,,
,,5f63cec2fc0d7912ab4e3d6c,2022-09-08_12h45.18.716,CGTgamblingSpanTasks,2022.2.1,Win32,60.0240096,,,,,,,,,,,,,,,,,,,,,,,,,,,,,,,,,,,,,,,,,,,,,,,,,,,,,,,,,,return,10.439,,,,,,,,,,,,,,,,,,,,,,,,,,,,,,,,,,,,,,,,,,,,,,,,,,,,,,,,,,,,,,,,,,,,,,,,,,,,
,,5f63cec2fc0d7912ab4e3d6c,2022-09-08_12h45.18.716,CGTgamblingSpanTasks,2022.2.1,Win32,60.0240096,,,,,,,,,,,,,,,,,,,,,,,,,,,,,,,,,,,,,,,,,,,,,,,,,,,,,,,,,,,,return,21.27,,,,,,,,,,,,,,,,,,,,,,,,,,,,,,,,,,,,,,,,,,,,,,,,,,,,,,,,,,,,,,,,,,,,,,,,,,
,,5f63cec2fc0d7912ab4e3d6c,2022-09-08_12h45.18.716,CGTgamblingSpanTasks,2022.2.1,Win32,60.0240096,,,,,,,,,,,,,,,,,,,,,,,,,,,,,,,,,,,,,,,,,,,,,,,,,,,,,,,,,,,,,,342,1,0.062962963,-0.399074074,1,0,0,cont_buttonPractice,0,0,0,0,1,3,342,24,2,42,,,,,,,,,,,,,,,,,,,,,,,,,,,,,,,,,,,,,,,,,,,,,,,,,,,,,,,,
,,5f63cec2fc0d7912ab4e3d6c,2022-09-08_12h45.18.716,CGTgamblingSpanTasks,2022.2.1,Win32,60.0240096,,,,,,,,,,,,,,,,,,,,,,,,,,,,,,,,,,,,,,,,,,,,,,,,,,,,,,,,,,,,,,937,1,0.062962963,-0.399074074,1,0,0,cont_buttonPractice,0,1,1,1,1,3,937,73,2,37,,,,,,,,,,,,,,,,,,,,,,,,,,,,,,,,,,,,,,,,,,,,,,,,,,,,,,,,
,,5f63cec2fc0d7912ab4e3d6c,2022-09-08_12h45.18.716,CGTgamblingSpanTasks,2022.2.1,Win32,60.0240096,,,,,,,,,,,,,,,,,,,,,,,,,,,,,,,,,,,,,,,,,,,,,,,,,,,,,,,,,,,,,,,,,,,,,,,,,,,,,,,,return,10.705,,,,,,,,,,,,,,,,,,,,,,,,,,,,,,,,,,,,,,,,,,,,,,,,,,,,,,
,,5f63cec2fc0d7912ab4e3d6c,2022-09-08_12h45.18.716,CGTgamblingSpanTasks,2022.2.1,Win32,60.0240096,,,,,,,,,,,,,,,,,,,,,,,,,,,,,,,,,,,,,,,,,,,,,,,,,,,,,,,,,,,,,,,,,,,,,,,,,,,,,,,,,,"[9,5,6]",0,0,0,0,1,,,,,,,,,,,,,,,,,,,,,,,,,,,,,,,,,,,,,,,,,,,,,,,,
,,5f63cec2fc0d7912ab4e3d6c,2022-09-08_12h45.18.716,CGTgamblingSpanTasks,2022.2.1,Win32,60.0240096,,,,,,,,,,,,,,,,,,,,,,,,,,,,,,,,,,,,,,,,,,,,,,,,,,,,,,,,,,,,,,,,,,,,,,,,,,,,,,,,,,"[9,5,6]",1,0,1,0,1,,,,,,,,,,,,,,,,,,,,,,,,,,,,,,,,,,,,,,,,,,,,,,,,
,,5f63cec2fc0d7912ab4e3d6c,2022-09-08_12h45.18.716,CGTgamblingSpanTasks,2022.2.1,Win32,60.0240096,,,,,,,,,,,,,,,,,,,,,,,,,,,,,,,,,,,,,,,,,,,,,,,,,,,,,,,,,,,,,,,,,,,,,,,,,,,,,,,,,,"[9,5,6]",2,0,2,0,1,,,,,,,,,,,,,,,,,,,,,,,,,,,,,,,,,,,,,,,,,,,,,,,,
,,5f63cec2fc0d7912ab4e3d6c,2022-09-08_12h45.18.716,CGTgamblingSpanTasks,2022.2.1,Win32,60.0240096,,,,,,,,,,,,,,,,,,,,,,,,,,,,,,,,,,,,,,,,,,,,,,,,,,,,,,,,,,,,,,,1,,,,,,,,,,,,,,,,,,,,,,,,,956,0.062962963,-0.399074074,1,0,0,cont_button,0,0,0,0,1,1,,,,,,,,,,,,,,,,,,,,,,,,,,,,,,,,,,,
,,5f63cec2fc0d7912ab4e3d6c,2022-09-08_12h45.18.716,CGTgamblingSpanTasks,2022.2.1,Win32,60.0240096,,,,,,,,,,,,,,,,,,,,,,,,,,,,,,,,,,,,,,,,,,,,,,,,,,,,,,,,,,,,,,,,,,,,,,,,,,,,,,,,,,"[2,1,3,9]",0,0,0,0,1,,,,,,,,,,,,,,,,,,,,,,,,,,,,,,,,,,,,,,,,,,,,,,,,
,,5f63cec2fc0d7912ab4e3d6c,2022-09-08_12h45.18.716,CGTgamblingSpanTasks,2022.2.1,Win32,60.0240096,,,,,,,,,,,,,,,,,,,,,,,,,,,,,,,,,,,,,,,,,,,,,,,,,,,,,,,,,,,,,,,,,,,,,,,,,,,,,,,,,,"[2,1,3,9]",1,0,1,0,1,,,,,,,,,,,,,,,,,,,,,,,,,,,,,,,,,,,,,,,,,,,,,,,,
,,5f63cec2fc0d7912ab4e3d6c,2022-09-08_12h45.18.716,CGTgamblingSpanTasks,2022.2.1,Win32,60.0240096,,,,,,,,,,,,,,,,,,,,,,,,,,,,,,,,,,,,,,,,,,,,,,,,,,,,,,,,,,,,,,,,,,,,,,,,,,,,,,,,,,"[2,1,3,9]",2,0,2,0,1,,,,,,,,,,,,,,,,,,,,,,,,,,,,,,,,,,,,,,,,,,,,,,,,
,,5f63cec2fc0d7912ab4e3d6c,2022-09-08_12h45.18.716,CGTgamblingSpanTasks,2022.2.1,Win32,60.0240096,,,,,,,,,,,,,,,,,,,,,,,,,,,,,,,,,,,,,,,,,,,,,,,,,,,,,,,,,,,,,,,,,,,,,,,,,,,,,,,,,,"[2,1,3,9]",3,0,3,0,1,,,,,,,,,,,,,,,,,,,,,,,,,,,,,,,,,,,,,,,,,,,,,,,,
,,5f63cec2fc0d7912ab4e3d6c,2022-09-08_12h45.18.716,CGTgamblingSpanTasks,2022.2.1,Win32,60.0240096,,,,,,,,,,,,,,,,,,,,,,,,,,,,,,,,,,,,,,,,,,,,,,,,,,,,,,,,,,,,,,,1,,,,,,,,,,,,,,,,,,,,,,,,,2139,0.062962963,-0.399074074,1,0,0,cont_button,0,1,1,1,1,2,,,,,,,,,,,,,,,,,,,,,,,,,,,,,,,,,,,
,,5f63cec2fc0d7912ab4e3d6c,2022-09-08_12h45.18.716,CGTgamblingSpanTasks,2022.2.1,Win32,60.0240096,,,,,,,,,,,,,,,,,,,,,,,,,,,,,,,,,,,,,,,,,,,,,,,,,,,,,,,,,,,,,,,,,,,,,,,,,,,,,,,,,,"[4,8,6,2,3]",0,0,0,0,1,,,,,,,,,,,,,,,,,,,,,,,,,,,,,,,,,,,,,,,,,,,,,,,,
,,5f63cec2fc0d7912ab4e3d6c,2022-09-08_12h45.18.716,CGTgamblingSpanTasks,2022.2.1,Win32,60.0240096,,,,,,,,,,,,,,,,,,,,,,,,,,,,,,,,,,,,,,,,,,,,,,,,,,,,,,,,,,,,,,,,,,,,,,,,,,,,,,,,,,"[4,8,6,2,3]",1,0,1,0,1,,,,,,,,,,,,,,,,,,,,,,,,,,,,,,,,,,,,,,,,,,,,,,,,
,,5f63cec2fc0d7912ab4e3d6c,2022-09-08_12h45.18.716,CGTgamblingSpanTasks,2022.2.1,Win32,60.0240096,,,,,,,,,,,,,,,,,,,,,,,,,,,,,,,,,,,,,,,,,,,,,,,,,,,,,,,,,,,,,,,,,,,,,,,,,,,,,,,,,,"[4,8,6,2,3]",2,0,2,0,1,,,,,,,,,,,,,,,,,,,,,,,,,,,,,,,,,,,,,,,,,,,,,,,,
,,5f63cec2fc0d7912ab4e3d6c,2022-09-08_12h45.18.716,CGTgamblingSpanTasks,2022.2.1,Win32,60.0240096,,,,,,,,,,,,,,,,,,,,,,,,,,,,,,,,,,,,,,,,,,,,,,,,,,,,,,,,,,,,,,,,,,,,,,,,,,,,,,,,,,"[4,8,6,2,3]",3,0,3,0,1,,,,,,,,,,,,,,,,,,,,,,,,,,,,,,,,,,,,,,,,,,,,,,,,
,,5f63cec2fc0d7912ab4e3d6c,2022-09-08_12h45.18.716,CGTgamblingSpanTasks,2022.2.1,Win32,60.0240096,,,,,,,,,,,,,,,,,,,,,,,,,,,,,,,,,,,,,,,,,,,,,,,,,,,,,,,,,,,,,,,,,,,,,,,,,,,,,,,,,,"[4,8,6,2,3]",4,0,4,0,1,,,,,,,,,,,,,,,,,,,,,,,,,,,,,,,,,,,,,,,,,,,,,,,,
,,5f63cec2fc0d7912ab4e3d6c,2022-09-08_12h45.18.716,CGTgamblingSpanTasks,2022.2.1,Win32,60.0240096,,,,,,,,,,,,,,,,,,,,,,,,,,,,,,,,,,,,,,,,,,,,,,,,,,,,,,,,,,,,,,,1,,,,,,,,,,,,,,,,,,,,,,,,,48623,0.035185185,-0.4,1,0,0,cont_button,0,2,2,2,1,3,,,,,,,,,,,,,,,,,,,,,,,,,,,,,,,,,,,
,,5f63cec2fc0d7912ab4e3d6c,2022-09-08_12h45.18.716,CGTgamblingSpanTasks,2022.2.1,Win32,60.0240096,,,,,,,,,,,,,,,,,,,,,,,,,,,,,,,,,,,,,,,,,,,,,,,,,,,,,,,,,,,,,,,,,,,,,,,,,,,,,,,,,,"[3,9,6,5,7,2]",0,0,0,0,1,,,,,,,,,,,,,,,,,,,,,,,,,,,,,,,,,,,,,,,,,,,,,,,,
,,5f63cec2fc0d7912ab4e3d6c,2022-09-08_12h45.18.716,CGTgamblingSpanTasks,2022.2.1,Win32,60.0240096,,,,,,,,,,,,,,,,,,,,,,,,,,,,,,,,,,,,,,,,,,,,,,,,,,,,,,,,,,,,,,,,,,,,,,,,,,,,,,,,,,"[3,9,6,5,7,2]",1,0,1,0,1,,,,,,,,,,,,,,,,,,,,,,,,,,,,,,,,,,,,,,,,,,,,,,,,
,,5f63cec2fc0d7912ab4e3d6c,2022-09-08_12h45.18.716,CGTgamblingSpanTasks,2022.2.1,Win32,60.0240096,,,,,,,,,,,,,,,,,,,,,,,,,,,,,,,,,,,,,,,,,,,,,,,,,,,,,,,,,,,,,,,,,,,,,,,,,,,,,,,,,,"[3,9,6,5,7,2]",2,0,2,0,1,,,,,,,,,,,,,,,,,,,,,,,,,,,,,,,,,,,,,,,,,,,,,,,,
,,5f63cec2fc0d7912ab4e3d6c,2022-09-08_12h45.18.716,CGTgamblingSpanTasks,2022.2.1,Win32,60.0240096,,,,,,,,,,,,,,,,,,,,,,,,,,,,,,,,,,,,,,,,,,,,,,,,,,,,,,,,,,,,,,,,,,,,,,,,,,,,,,,,,,"[3,9,6,5,7,2]",3,0,3,0,1,,,,,,,,,,,,,,,,,,,,,,,,,,,,,,,,,,,,,,,,,,,,,,,,
,,5f63cec2fc0d7912ab4e3d6c,2022-09-08_12h45.18.716,CGTgamblingSpanTasks,2022.2.1,Win32,60.0240096,,,,,,,,,,,,,,,,,,,,,,,,,,,,,,,,,,,,,,,,,,,,,,,,,,,,,,,,,,,,,,,,,,,,,,,,,,,,,,,,,,"[3,9,6,5,7,2]",4,0,4,0,1,,,,,,,,,,,,,,,,,,,,,,,,,,,,,,,,,,,,,,,,,,,,,,,,
,,5f63cec2fc0d7912ab4e3d6c,2022-09-08_12h45.18.716,CGTgamblingSpanTasks,2022.2.1,Win32,60.0240096,,,,,,,,,,,,,,,,,,,,,,,,,,,,,,,,,,,,,,,,,,,,,,,,,,,,,,,,,,,,,,,,,,,,,,,,,,,,,,,,,,"[3,9,6,5,7,2]",5,0,5,0,1,,,,,,,,,,,,,,,,,,,,,,,,,,,,,,,,,,,,,,,,,,,,,,,,
,,5f63cec2fc0d7912ab4e3d6c,2022-09-08_12h45.18.716,CGTgamblingSpanTasks,2022.2.1,Win32,60.0240096,,,,,,,,,,,,,,,,,,,,,,,,,,,,,,,,,,,,,,,,,,,,,,,,,,,,,,,,,,,,,,,1,,,,,,,,,,,,,,,,,,,,,,,,,396572,0.035185185,-0.4,1,0,0,cont_button,0,3,3,3,1,4,,,,,,,,,,,,,,,,,,,,,,,,,,,,,,,,,,,
,,5f63cec2fc0d7912ab4e3d6c,2022-09-08_12h45.18.716,CGTgamblingSpanTasks,2022.2.1,Win32,60.0240096,,,,,,,,,,,,,,,,,,,,,,,,,,,,,,,,,,,,,,,,,,,,,,,,,,,,,,,,,,,,,,,,,,,,,,,,,,,,,,,,,,"[1,7,2,8,5,4,9]",0,0,0,0,1,,,,,,,,,,,,,,,,,,,,,,,,,,,,,,,,,,,,,,,,,,,,,,,,
,,5f63cec2fc0d7912ab4e3d6c,2022-09-08_12h45.18.716,CGTgamblingSpanTasks,2022.2.1,Win32,60.0240096,,,,,,,,,,,,,,,,,,,,,,,,,,,,,,,,,,,,,,,,,,,,,,,,,,,,,,,,,,,,,,,,,,,,,,,,,,,,,,,,,,"[1,7,2,8,5,4,9]",1,0,1,0,1,,,,,,,,,,,,,,,,,,,,,,,,,,,,,,,,,,,,,,,,,,,,,,,,
,,5f63cec2fc0d7912ab4e3d6c,2022-09-08_12h45.18.716,CGTgamblingSpanTasks,2022.2.1,Win32,60.0240096,,,,,,,,,,,,,,,,,,,,,,,,,,,,,,,,,,,,,,,,,,,,,,,,,,,,,,,,,,,,,,,,,,,,,,,,,,,,,,,,,,"[1,7,2,8,5,4,9]",2,0,2,0,1,,,,,,,,,,,,,,,,,,,,,,,,,,,,,,,,,,,,,,,,,,,,,,,,
,,5f63cec2fc0d7912ab4e3d6c,2022-09-08_12h45.18.716,CGTgamblingSpanTasks,2022.2.1,Win32,60.0240096,,,,,,,,,,,,,,,,,,,,,,,,,,,,,,,,,,,,,,,,,,,,,,,,,,,,,,,,,,,,,,,,,,,,,,,,,,,,,,,,,,"[1,7,2,8,5,4,9]",3,0,3,0,1,,,,,,,,,,,,,,,,,,,,,,,,,,,,,,,,,,,,,,,,,,,,,,,,
,,5f63cec2fc0d7912ab4e3d6c,2022-09-08_12h45.18.716,CGTgamblingSpanTasks,2022.2.1,Win32,60.0240096,,,,,,,,,,,,,,,,,,,,,,,,,,,,,,,,,,,,,,,,,,,,,,,,,,,,,,,,,,,,,,,,,,,,,,,,,,,,,,,,,,"[1,7,2,8,5,4,9]",4,0,4,0,1,,,,,,,,,,,,,,,,,,,,,,,,,,,,,,,,,,,,,,,,,,,,,,,,
,,5f63cec2fc0d7912ab4e3d6c,2022-09-08_12h45.18.716,CGTgamblingSpanTasks,2022.2.1,Win32,60.0240096,,,,,,,,,,,,,,,,,,,,,,,,,,,,,,,,,,,,,,,,,,,,,,,,,,,,,,,,,,,,,,,,,,,,,,,,,,,,,,,,,,"[1,7,2,8,5,4,9]",5,0,5,0,1,,,,,,,,,,,,,,,,,,,,,,,,,,,,,,,,,,,,,,,,,,,,,,,,
,,5f63cec2fc0d7912ab4e3d6c,2022-09-08_12h45.18.716,CGTgamblingSpanTasks,2022.2.1,Win32,60.0240096,,,,,,,,,,,,,,,,,,,,,,,,,,,,,,,,,,,,,,,,,,,,,,,,,,,,,,,,,,,,,,,,,,,,,,,,,,,,,,,,,,"[1,7,2,8,5,4,9]",6,0,6,0,1,,,,,,,,,,,,,,,,,,,,,,,,,,,,,,,,,,,,,,,,,,,,,,,,
,,5f63cec2fc0d7912ab4e3d6c,2022-09-08_12h45.18.716,CGTgamblingSpanTasks,2022.2.1,Win32,60.0240096,,,,,,,,,,,,,,,,,,,,,,,,,,,,,,,,,,,,,,,,,,,,,,,,,,,,,,,,,,,,,,,1,,,,,,,,,,,,,,,,,,,,,,,,,1728549,0.013888889,-0.413888889,1,0,0,cont_button,0,4,4,4,1,5,,,,,,,,,,,,,,,,,,,,,,,,,,,,,,,,,,,
,,5f63cec2fc0d7912ab4e3d6c,2022-09-08_12h45.18.716,CGTgamblingSpanTasks,2022.2.1,Win32,60.0240096,,,,,,,,,,,,,,,,,,,,,,,,,,,,,,,,,,,,,,,,,,,,,,,,,,,,,,,,,,,,,,,,,,,,,,,,,,,,,,,,,,"[8,4,5,3,2,7,1,6]",0,0,0,0,1,,,,,,,,,,,,,,,,,,,,,,,,,,,,,,,,,,,,,,,,,,,,,,,,
,,5f63cec2fc0d7912ab4e3d6c,2022-09-08_12h45.18.716,CGTgamblingSpanTasks,2022.2.1,Win32,60.0240096,,,,,,,,,,,,,,,,,,,,,,,,,,,,,,,,,,,,,,,,,,,,,,,,,,,,,,,,,,,,,,,,,,,,,,,,,,,,,,,,,,"[8,4,5,3,2,7,1,6]",1,0,1,0,1,,,,,,,,,,,,,,,,,,,,,,,,,,,,,,,,,,,,,,,,,,,,,,,,
,,5f63cec2fc0d7912ab4e3d6c,2022-09-08_12h45.18.716,CGTgamblingSpanTasks,2022.2.1,Win32,60.0240096,,,,,,,,,,,,,,,,,,,,,,,,,,,,,,,,,,,,,,,,,,,,,,,,,,,,,,,,,,,,,,,,,,,,,,,,,,,,,,,,,,"[8,4,5,3,2,7,1,6]",2,0,2,0,1,,,,,,,,,,,,,,,,,,,,,,,,,,,,,,,,,,,,,,,,,,,,,,,,
,,5f63cec2fc0d7912ab4e3d6c,2022-09-08_12h45.18.716,CGTgamblingSpanTasks,2022.2.1,Win32,60.0240096,,,,,,,,,,,,,,,,,,,,,,,,,,,,,,,,,,,,,,,,,,,,,,,,,,,,,,,,,,,,,,,,,,,,,,,,,,,,,,,,,,"[8,4,5,3,2,7,1,6]",3,0,3,0,1,,,,,,,,,,,,,,,,,,,,,,,,,,,,,,,,,,,,,,,,,,,,,,,,
,,5f63cec2fc0d7912ab4e3d6c,2022-09-08_12h45.18.716,CGTgamblingSpanTasks,2022.2.1,Win32,60.0240096,,,,,,,,,,,,,,,,,,,,,,,,,,,,,,,,,,,,,,,,,,,,,,,,,,,,,,,,,,,,,,,,,,,,,,,,,,,,,,,,,,"[8,4,5,3,2,7,1,6]",4,0,4,0,1,,,,,,,,,,,,,,,,,,,,,,,,,,,,,,,,,,,,,,,,,,,,,,,,
,,5f63cec2fc0d7912ab4e3d6c,2022-09-08_12h45.18.716,CGTgamblingSpanTasks,2022.2.1,Win32,60.0240096,,,,,,,,,,,,,,,,,,,,,,,,,,,,,,,,,,,,,,,,,,,,,,,,,,,,,,,,,,,,,,,,,,,,,,,,,,,,,,,,,,"[8,4,5,3,2,7,1,6]",5,0,5,0,1,,,,,,,,,,,,,,,,,,,,,,,,,,,,,,,,,,,,,,,,,,,,,,,,
,,5f63cec2fc0d7912ab4e3d6c,2022-09-08_12h45.18.716,CGTgamblingSpanTasks,2022.2.1,Win32,60.0240096,,,,,,,,,,,,,,,,,,,,,,,,,,,,,,,,,,,,,,,,,,,,,,,,,,,,,,,,,,,,,,,,,,,,,,,,,,,,,,,,,,"[8,4,5,3,2,7,1,6]",6,0,6,0,1,,,,,,,,,,,,,,,,,,,,,,,,,,,,,,,,,,,,,,,,,,,,,,,,
,,5f63cec2fc0d7912ab4e3d6c,2022-09-08_12h45.18.716,CGTgamblingSpanTasks,2022.2.1,Win32,60.0240096,,,,,,,,,,,,,,,,,,,,,,,,,,,,,,,,,,,,,,,,,,,,,,,,,,,,,,,,,,,,,,,,,,,,,,,,,,,,,,,,,,"[8,4,5,3,2,7,1,6]",7,0,7,0,1,,,,,,,,,,,,,,,,,,,,,,,,,,,,,,,,,,,,,,,,,,,,,,,,
,,5f63cec2fc0d7912ab4e3d6c,2022-09-08_12h45.18.716,CGTgamblingSpanTasks,2022.2.1,Win32,60.0240096,,,,,,,,,,,,,,,,,,,,,,,,,,,,,,,,,,,,,,,,,,,,,,,,,,,,,,,,,,,,,,,0,,,,,,,,,,,,,,,,,,,,,,,,,85432716,-0.039814815,-0.388888889,1,0,0,cont_button,0,5,5,5,1,6,,,,,,,,,,,,,,,,,,,,,,,,,,,,,,,,,,,
,,5f63cec2fc0d7912ab4e3d6c,2022-09-08_12h45.18.716,CGTgamblingSpanTasks,2022.2.1,Win32,60.0240096,,,,,,,,,,,,,,,,,,,,,,,,,,,,,,,,,,,,,,,,,,,,,,,,,,,,,,,,,,,,,,,,,,,,,,,,,,,,,,,,,,"[2,6,9,4,8,3,5,1]",0,0,0,0,1,,,,,,,,,,,,,,,,,,,,,,,,,,,,,,,,,,,,,,,,,,,,,,,,
,,5f63cec2fc0d7912ab4e3d6c,2022-09-08_12h45.18.716,CGTgamblingSpanTasks,2022.2.1,Win32,60.0240096,,,,,,,,,,,,,,,,,,,,,,,,,,,,,,,,,,,,,,,,,,,,,,,,,,,,,,,,,,,,,,,,,,,,,,,,,,,,,,,,,,"[2,6,9,4,8,3,5,1]",1,0,1,0,1,,,,,,,,,,,,,,,,,,,,,,,,,,,,,,,,,,,,,,,,,,,,,,,,
,,5f63cec2fc0d7912ab4e3d6c,2022-09-08_12h45.18.716,CGTgamblingSpanTasks,2022.2.1,Win32,60.0240096,,,,,,,,,,,,,,,,,,,,,,,,,,,,,,,,,,,,,,,,,,,,,,,,,,,,,,,,,,,,,,,,,,,,,,,,,,,,,,,,,,"[2,6,9,4,8,3,5,1]",2,0,2,0,1,,,,,,,,,,,,,,,,,,,,,,,,,,,,,,,,,,,,,,,,,,,,,,,,
,,5f63cec2fc0d7912ab4e3d6c,2022-09-08_12h45.18.716,CGTgamblingSpanTasks,2022.2.1,Win32,60.0240096,,,,,,,,,,,,,,,,,,,,,,,,,,,,,,,,,,,,,,,,,,,,,,,,,,,,,,,,,,,,,,,,,,,,,,,,,,,,,,,,,,"[2,6,9,4,8,3,5,1]",3,0,3,0,1,,,,,,,,,,,,,,,,,,,,,,,,,,,,,,,,,,,,,,,,,,,,,,,,
,,5f63cec2fc0d7912ab4e3d6c,2022-09-08_12h45.18.716,CGTgamblingSpanTasks,2022.2.1,Win32,60.0240096,,,,,,,,,,,,,,,,,,,,,,,,,,,,,,,,,,,,,,,,,,,,,,,,,,,,,,,,,,,,,,,,,,,,,,,,,,,,,,,,,,"[2,6,9,4,8,3,5,1]",4,0,4,0,1,,,,,,,,,,,,,,,,,,,,,,,,,,,,,,,,,,,,,,,,,,,,,,,,
,,5f63cec2fc0d7912ab4e3d6c,2022-09-08_12h45.18.716,CGTgamblingSpanTasks,2022.2.1,Win32,60.0240096,,,,,,,,,,,,,,,,,,,,,,,,,,,,,,,,,,,,,,,,,,,,,,,,,,,,,,,,,,,,,,,,,,,,,,,,,,,,,,,,,,"[2,6,9,4,8,3,5,1]",5,0,5,0,1,,,,,,,,,,,,,,,,,,,,,,,,,,,,,,,,,,,,,,,,,,,,,,,,
,,5f63cec2fc0d7912ab4e3d6c,2022-09-08_12h45.18.716,CGTgamblingSpanTasks,2022.2.1,Win32,60.0240096,,,,,,,,,,,,,,,,,,,,,,,,,,,,,,,,,,,,,,,,,,,,,,,,,,,,,,,,,,,,,,,,,,,,,,,,,,,,,,,,,,"[2,6,9,4,8,3,5,1]",6,0,6,0,1,,,,,,,,,,,,,,,,,,,,,,,,,,,,,,,,,,,,,,,,,,,,,,,,
,,5f63cec2fc0d7912ab4e3d6c,2022-09-08_12h45.18.716,CGTgamblingSpanTasks,2022.2.1,Win32,60.0240096,,,,,,,,,,,,,,,,,,,,,,,,,,,,,,,,,,,,,,,,,,,,,,,,,,,,,,,,,,,,,,,,,,,,,,,,,,,,,,,,,,"[2,6,9,4,8,3,5,1]",7,0,7,0,1,,,,,,,,,,,,,,,,,,,,,,,,,,,,,,,,,,,,,,,,,,,,,,,,
,,5f63cec2fc0d7912ab4e3d6c,2022-09-08_12h45.18.716,CGTgamblingSpanTasks,2022.2.1,Win32,60.0240096,,,,,,,,,,,,,,,,,,,,,,,,,,,,,,,,,,,,,,,,,,,,,,,,,,,,,,,,,,,,,,,0,,,,,,,,,,,,,,,,,,,,,,,,,2963845,-0.006481481,-0.433333333,1,0,0,cont_button,0,6,6,6,1,7,,,,,,,,,,,,,,,,,,,,,,,,,,,,,,,,,,,
,,5f63cec2fc0d7912ab4e3d6c,2022-09-08_12h45.18.716,CGTgamblingSpanTasks,2022.2.1,Win32,60.0240096,,,,,,,,,,,,,,,,,,,,,,,,,,,,,,,,,,,,,,,,,,,,,,,,,,,,,,,,,,,,,,,,,,,,,,,,,,,,,,,,,,"[1,8,4,3,9,7,6]",0,0,0,0,1,,,,,,,,,,,,,,,,,,,,,,,,,,,,,,,,,,,,,,,,,,,,,,,,
,,5f63cec2fc0d7912ab4e3d6c,2022-09-08_12h45.18.716,CGTgamblingSpanTasks,2022.2.1,Win32,60.0240096,,,,,,,,,,,,,,,,,,,,,,,,,,,,,,,,,,,,,,,,,,,,,,,,,,,,,,,,,,,,,,,,,,,,,,,,,,,,,,,,,,"[1,8,4,3,9,7,6]",1,0,1,0,1,,,,,,,,,,,,,,,,,,,,,,,,,,,,,,,,,,,,,,,,,,,,,,,,
,,5f63cec2fc0d7912ab4e3d6c,2022-09-08_12h45.18.716,CGTgamblingSpanTasks,2022.2.1,Win32,60.0240096,,,,,,,,,,,,,,,,,,,,,,,,,,,,,,,,,,,,,,,,,,,,,,,,,,,,,,,,,,,,,,,,,,,,,,,,,,,,,,,,,,"[1,8,4,3,9,7,6]",2,0,2,0,1,,,,,,,,,,,,,,,,,,,,,,,,,,,,,,,,,,,,,,,,,,,,,,,,
,,5f63cec2fc0d7912ab4e3d6c,2022-09-08_12h45.18.716,CGTgamblingSpanTasks,2022.2.1,Win32,60.0240096,,,,,,,,,,,,,,,,,,,,,,,,,,,,,,,,,,,,,,,,,,,,,,,,,,,,,,,,,,,,,,,,,,,,,,,,,,,,,,,,,,"[1,8,4,3,9,7,6]",3,0,3,0,1,,,,,,,,,,,,,,,,,,,,,,,,,,,,,,,,,,,,,,,,,,,,,,,,
,,5f63cec2fc0d7912ab4e3d6c,2022-09-08_12h45.18.716,CGTgamblingSpanTasks,2022.2.1,Win32,60.0240096,,,,,,,,,,,,,,,,,,,,,,,,,,,,,,,,,,,,,,,,,,,,,,,,,,,,,,,,,,,,,,,,,,,,,,,,,,,,,,,,,,"[1,8,4,3,9,7,6]",4,0,4,0,1,,,,,,,,,,,,,,,,,,,,,,,,,,,,,,,,,,,,,,,,,,,,,,,,
,,5f63cec2fc0d7912ab4e3d6c,2022-09-08_12h45.18.716,CGTgamblingSpanTasks,2022.2.1,Win32,60.0240096,,,,,,,,,,,,,,,,,,,,,,,,,,,,,,,,,,,,,,,,,,,,,,,,,,,,,,,,,,,,,,,,,,,,,,,,,,,,,,,,,,"[1,8,4,3,9,7,6]",5,0,5,0,1,,,,,,,,,,,,,,,,,,,,,,,,,,,,,,,,,,,,,,,,,,,,,,,,
,,5f63cec2fc0d7912ab4e3d6c,2022-09-08_12h45.18.716,CGTgamblingSpanTasks,2022.2.1,Win32,60.0240096,,,,,,,,,,,,,,,,,,,,,,,,,,,,,,,,,,,,,,,,,,,,,,,,,,,,,,,,,,,,,,,,,,,,,,,,,,,,,,,,,,"[1,8,4,3,9,7,6]",6,0,6,0,1,,,,,,,,,,,,,,,,,,,,,,,,,,,,,,,,,,,,,,,,,,,,,,,,
,,5f63cec2fc0d7912ab4e3d6c,2022-09-08_12h45.18.716,CGTgamblingSpanTasks,2022.2.1,Win32,60.0240096,,,,,,,,,,,,,,,,,,,,,,,,,,,,,,,,,,,,,,,,,,,,,,,,,,,,,,,,,,,,,,,0,,,,,,,,,,,,,,,,,,,,,,,,,1439876,0.091666667,-0.409259259,1,0,0,cont_button,0,7,7,7,1,8,,,,,,,,,,,,,,,,,,,,,,,,,,,,,,,,,,,
,,5f63cec2fc0d7912ab4e3d6c,2022-09-08_12h45.18.716,CGTgamblingSpanTasks,2022.2.1,Win32,60.0240096,,,,,,,,,,,,,,,,,,,,,,,,,,,,,,,,,,,,,,,,,,,,,,,,,,,,,,,,,,,,,,,,,,,,,,,,,,,,,,,,,,"[6,9,3,7,4,5,2]",0,0,0,0,1,,,,,,,,,,,,,,,,,,,,,,,,,,,,,,,,,,,,,,,,,,,,,,,,
,,5f63cec2fc0d7912ab4e3d6c,2022-09-08_12h45.18.716,CGTgamblingSpanTasks,2022.2.1,Win32,60.0240096,,,,,,,,,,,,,,,,,,,,,,,,,,,,,,,,,,,,,,,,,,,,,,,,,,,,,,,,,,,,,,,,,,,,,,,,,,,,,,,,,,"[6,9,3,7,4,5,2]",1,0,1,0,1,,,,,,,,,,,,,,,,,,,,,,,,,,,,,,,,,,,,,,,,,,,,,,,,
,,5f63cec2fc0d7912ab4e3d6c,2022-09-08_12h45.18.716,CGTgamblingSpanTasks,2022.2.1,Win32,60.0240096,,,,,,,,,,,,,,,,,,,,,,,,,,,,,,,,,,,,,,,,,,,,,,,,,,,,,,,,,,,,,,,,,,,,,,,,,,,,,,,,,,"[6,9,3,7,4,5,2]",2,0,2,0,1,,,,,,,,,,,,,,,,,,,,,,,,,,,,,,,,,,,,,,,,,,,,,,,,
,,5f63cec2fc0d7912ab4e3d6c,2022-09-08_12h45.18.716,CGTgamblingSpanTasks,2022.2.1,Win32,60.0240096,,,,,,,,,,,,,,,,,,,,,,,,,,,,,,,,,,,,,,,,,,,,,,,,,,,,,,,,,,,,,,,,,,,,,,,,,,,,,,,,,,"[6,9,3,7,4,5,2]",3,0,3,0,1,,,,,,,,,,,,,,,,,,,,,,,,,,,,,,,,,,,,,,,,,,,,,,,,
,,5f63cec2fc0d7912ab4e3d6c,2022-09-08_12h45.18.716,CGTgamblingSpanTasks,2022.2.1,Win32,60.0240096,,,,,,,,,,,,,,,,,,,,,,,,,,,,,,,,,,,,,,,,,,,,,,,,,,,,,,,,,,,,,,,,,,,,,,,,,,,,,,,,,,"[6,9,3,7,4,5,2]",4,0,4,0,1,,,,,,,,,,,,,,,,,,,,,,,,,,,,,,,,,,,,,,,,,,,,,,,,
,,5f63cec2fc0d7912ab4e3d6c,2022-09-08_12h45.18.716,CGTgamblingSpanTasks,2022.2.1,Win32,60.0240096,,,,,,,,,,,,,,,,,,,,,,,,,,,,,,,,,,,,,,,,,,,,,,,,,,,,,,,,,,,,,,,,,,,,,,,,,,,,,,,,,,"[6,9,3,7,4,5,2]",5,0,5,0,1,,,,,,,,,,,,,,,,,,,,,,,,,,,,,,,,,,,,,,,,,,,,,,,,
,,5f63cec2fc0d7912ab4e3d6c,2022-09-08_12h45.18.716,CGTgamblingSpanTasks,2022.2.1,Win32,60.0240096,,,,,,,,,,,,,,,,,,,,,,,,,,,,,,,,,,,,,,,,,,,,,,,,,,,,,,,,,,,,,,,,,,,,,,,,,,,,,,,,,,"[6,9,3,7,4,5,2]",6,0,6,0,1,,,,,,,,,,,,,,,,,,,,,,,,,,,,,,,,,,,,,,,,,,,,,,,,
,,5f63cec2fc0d7912ab4e3d6c,2022-09-08_12h45.18.716,CGTgamblingSpanTasks,2022.2.1,Win32,60.0240096,,,,,,,,,,,,,,,,,,,,,,,,,,,,,,,,,,,,,,,,,,,,,,,,,,,,,,,,,,,,,,,0,,,,,,,,,,,,,,,,,,,,,,,,,6974325,0.12037037,-0.402777778,1,0,0,cont_button,0,8,8,8,1,9,,,,,,,,,,,,,,,,,,,,,,,,,,,,,,,,,,,
,,5f63cec2fc0d7912ab4e3d6c,2022-09-08_12h45.18.716,CGTgamblingSpanTasks,2022.2.1,Win32,60.0240096,,,,,,,,,,,,,,,,,,,,,,,,,,,,,,,,,,,,,,,,,,,,,,,,,,,,,,,,,,,,,,,,,,,,,,,,,,,,,,,,,,"[3,8,5,9,4,1]",0,0,0,0,1,,,,,,,,,,,,,,,,,,,,,,,,,,,,,,,,,,,,,,,,,,,,,,,,
,,5f63cec2fc0d7912ab4e3d6c,2022-09-08_12h45.18.716,CGTgamblingSpanTasks,2022.2.1,Win32,60.0240096,,,,,,,,,,,,,,,,,,,,,,,,,,,,,,,,,,,,,,,,,,,,,,,,,,,,,,,,,,,,,,,,,,,,,,,,,,,,,,,,,,"[3,8,5,9,4,1]",1,0,1,0,1,,,,,,,,,,,,,,,,,,,,,,,,,,,,,,,,,,,,,,,,,,,,,,,,
,,5f63cec2fc0d7912ab4e3d6c,2022-09-08_12h45.18.716,CGTgamblingSpanTasks,2022.2.1,Win32,60.0240096,,,,,,,,,,,,,,,,,,,,,,,,,,,,,,,,,,,,,,,,,,,,,,,,,,,,,,,,,,,,,,,,,,,,,,,,,,,,,,,,,,"[3,8,5,9,4,1]",2,0,2,0,1,,,,,,,,,,,,,,,,,,,,,,,,,,,,,,,,,,,,,,,,,,,,,,,,
,,5f63cec2fc0d7912ab4e3d6c,2022-09-08_12h45.18.716,CGTgamblingSpanTasks,2022.2.1,Win32,60.0240096,,,,,,,,,,,,,,,,,,,,,,,,,,,,,,,,,,,,,,,,,,,,,,,,,,,,,,,,,,,,,,,,,,,,,,,,,,,,,,,,,,"[3,8,5,9,4,1]",3,0,3,0,1,,,,,,,,,,,,,,,,,,,,,,,,,,,,,,,,,,,,,,,,,,,,,,,,
,,5f63cec2fc0d7912ab4e3d6c,2022-09-08_12h45.18.716,CGTgamblingSpanTasks,2022.2.1,Win32,60.0240096,,,,,,,,,,,,,,,,,,,,,,,,,,,,,,,,,,,,,,,,,,,,,,,,,,,,,,,,,,,,,,,,,,,,,,,,,,,,,,,,,,"[3,8,5,9,4,1]",4,0,4,0,1,,,,,,,,,,,,,,,,,,,,,,,,,,,,,,,,,,,,,,,,,,,,,,,,
,,5f63cec2fc0d7912ab4e3d6c,2022-09-08_12h45.18.716,CGTgamblingSpanTasks,2022.2.1,Win32,60.0240096,,,,,,,,,,,,,,,,,,,,,,,,,,,,,,,,,,,,,,,,,,,,,,,,,,,,,,,,,,,,,,,,,,,,,,,,,,,,,,,,,,"[3,8,5,9,4,1]",5,0,5,0,1,,,,,,,,,,,,,,,,,,,,,,,,,,,,,,,,,,,,,,,,,,,,,,,,
,,5f63cec2fc0d7912ab4e3d6c,2022-09-08_12h45.18.716,CGTgamblingSpanTasks,2022.2.1,Win32,60.0240096,,,,,,,,,,,,,,,,,,,,,,,,,,,,,,,,,,,,,,,,,,,,,,,,,,,,,,,,,,,,,,,0,,,,,,,,,,,,,,,,,,,,,,,,,359814,0.049074074,-0.377777778,1,0,0,cont_button,0,9,9,9,1,10,,,,,,,,,,,,,,,,,,,,,,,,,,,,,,,,,,,
,,5f63cec2fc0d7912ab4e3d6c,2022-09-08_12h45.18.716,CGTgamblingSpanTasks,2022.2.1,Win32,60.0240096,,,,,,,,,,,,,,,,,,,,,,,,,,,,,,,,,,,,,,,,,,,,,,,,,,,,,,,,,,,,,,,,,,,,,,,,,,,,,,,,,,"[4,3,6,9,5,1]",0,0,0,0,1,,,,,,,,,,,,,,,,,,,,,,,,,,,,,,,,,,,,,,,,,,,,,,,,
,,5f63cec2fc0d7912ab4e3d6c,2022-09-08_12h45.18.716,CGTgamblingSpanTasks,2022.2.1,Win32,60.0240096,,,,,,,,,,,,,,,,,,,,,,,,,,,,,,,,,,,,,,,,,,,,,,,,,,,,,,,,,,,,,,,,,,,,,,,,,,,,,,,,,,"[4,3,6,9,5,1]",1,0,1,0,1,,,,,,,,,,,,,,,,,,,,,,,,,,,,,,,,,,,,,,,,,,,,,,,,
,,5f63cec2fc0d7912ab4e3d6c,2022-09-08_12h45.18.716,CGTgamblingSpanTasks,2022.2.1,Win32,60.0240096,,,,,,,,,,,,,,,,,,,,,,,,,,,,,,,,,,,,,,,,,,,,,,,,,,,,,,,,,,,,,,,,,,,,,,,,,,,,,,,,,,"[4,3,6,9,5,1]",2,0,2,0,1,,,,,,,,,,,,,,,,,,,,,,,,,,,,,,,,,,,,,,,,,,,,,,,,
,,5f63cec2fc0d7912ab4e3d6c,2022-09-08_12h45.18.716,CGTgamblingSpanTasks,2022.2.1,Win32,60.0240096,,,,,,,,,,,,,,,,,,,,,,,,,,,,,,,,,,,,,,,,,,,,,,,,,,,,,,,,,,,,,,,,,,,,,,,,,,,,,,,,,,"[4,3,6,9,5,1]",3,0,3,0,1,,,,,,,,,,,,,,,,,,,,,,,,,,,,,,,,,,,,,,,,,,,,,,,,
,,5f63cec2fc0d7912ab4e3d6c,2022-09-08_12h45.18.716,CGTgamblingSpanTasks,2022.2.1,Win32,60.0240096,,,,,,,,,,,,,,,,,,,,,,,,,,,,,,,,,,,,,,,,,,,,,,,,,,,,,,,,,,,,,,,,,,,,,,,,,,,,,,,,,,"[4,3,6,9,5,1]",4,0,4,0,1,,,,,,,,,,,,,,,,,,,,,,,,,,,,,,,,,,,,,,,,,,,,,,,,
,,5f63cec2fc0d7912ab4e3d6c,2022-09-08_12h45.18.716,CGTgamblingSpanTasks,2022.2.1,Win32,60.0240096,,,,,,,,,,,,,,,,,,,,,,,,,,,,,,,,,,,,,,,,,,,,,,,,,,,,,,,,,,,,,,,,,,,,,,,,,,,,,,,,,,"[4,3,6,9,5,1]",5,0,5,0,1,,,,,,,,,,,,,,,,,,,,,,,,,,,,,,,,,,,,,,,,,,,,,,,,
,,5f63cec2fc0d7912ab4e3d6c,2022-09-08_12h45.18.716,CGTgamblingSpanTasks,2022.2.1,Win32,60.0240096,,,,,,,,,,,,,,,,,,,,,,,,,,,,,,,,,,,,,,,,,,,,,,,,,,,,,,,,,,,,,,,1,,,,,,,,,,,,,,,,,,,,,,,,,436951,0.048148148,-0.422222222,1,0,0,cont_button,0,10,10,10,1,11,,,,,,,,,,,,,,,,,,,,,,,,,,,,,,,,,,,
,,5f63cec2fc0d7912ab4e3d6c,2022-09-08_12h45.18.716,CGTgamblingSpanTasks,2022.2.1,Win32,60.0240096,,,,,,,,,,,,,,,,,,,,,,,,,,,,,,,,,,,,,,,,,,,,,,,,,,,,,,,,,,,,,,,,,,,,,,,,,,,,,,,,,,"[3,8,4,6,2,1,5]",0,0,0,0,1,,,,,,,,,,,,,,,,,,,,,,,,,,,,,,,,,,,,,,,,,,,,,,,,
,,5f63cec2fc0d7912ab4e3d6c,2022-09-08_12h45.18.716,CGTgamblingSpanTasks,2022.2.1,Win32,60.0240096,,,,,,,,,,,,,,,,,,,,,,,,,,,,,,,,,,,,,,,,,,,,,,,,,,,,,,,,,,,,,,,,,,,,,,,,,,,,,,,,,,"[3,8,4,6,2,1,5]",1,0,1,0,1,,,,,,,,,,,,,,,,,,,,,,,,,,,,,,,,,,,,,,,,,,,,,,,,
,,5f63cec2fc0d7912ab4e3d6c,2022-09-08_12h45.18.716,CGTgamblingSpanTasks,2022.2.1,Win32,60.0240096,,,,,,,,,,,,,,,,,,,,,,,,,,,,,,,,,,,,,,,,,,,,,,,,,,,,,,,,,,,,,,,,,,,,,,,,,,,,,,,,,,"[3,8,4,6,2,1,5]",2,0,2,0,1,,,,,,,,,,,,,,,,,,,,,,,,,,,,,,,,,,,,,,,,,,,,,,,,
,,5f63cec2fc0d7912ab4e3d6c,2022-09-08_12h45.18.716,CGTgamblingSpanTasks,2022.2.1,Win32,60.0240096,,,,,,,,,,,,,,,,,,,,,,,,,,,,,,,,,,,,,,,,,,,,,,,,,,,,,,,,,,,,,,,,,,,,,,,,,,,,,,,,,,"[3,8,4,6,2,1,5]",3,0,3,0,1,,,,,,,,,,,,,,,,,,,,,,,,,,,,,,,,,,,,,,,,,,,,,,,,
,,5f63cec2fc0d7912ab4e3d6c,2022-09-08_12h45.18.716,CGTgamblingSpanTasks,2022.2.1,Win32,60.0240096,,,,,,,,,,,,,,,,,,,,,,,,,,,,,,,,,,,,,,,,,,,,,,,,,,,,,,,,,,,,,,,,,,,,,,,,,,,,,,,,,,"[3,8,4,6,2,1,5]",4,0,4,0,1,,,,,,,,,,,,,,,,,,,,,,,,,,,,,,,,,,,,,,,,,,,,,,,,
,,5f63cec2fc0d7912ab4e3d6c,2022-09-08_12h45.18.716,CGTgamblingSpanTasks,2022.2.1,Win32,60.0240096,,,,,,,,,,,,,,,,,,,,,,,,,,,,,,,,,,,,,,,,,,,,,,,,,,,,,,,,,,,,,,,,,,,,,,,,,,,,,,,,,,"[3,8,4,6,2,1,5]",5,0,5,0,1,,,,,,,,,,,,,,,,,,,,,,,,,,,,,,,,,,,,,,,,,,,,,,,,
,,5f63cec2fc0d7912ab4e3d6c,2022-09-08_12h45.18.716,CGTgamblingSpanTasks,2022.2.1,Win32,60.0240096,,,,,,,,,,,,,,,,,,,,,,,,,,,,,,,,,,,,,,,,,,,,,,,,,,,,,,,,,,,,,,,,,,,,,,,,,,,,,,,,,,"[3,8,4,6,2,1,5]",6,0,6,0,1,,,,,,,,,,,,,,,,,,,,,,,,,,,,,,,,,,,,,,,,,,,,,,,,
,,5f63cec2fc0d7912ab4e3d6c,2022-09-08_12h45.18.716,CGTgamblingSpanTasks,2022.2.1,Win32,60.0240096,,,,,,,,,,,,,,,,,,,,,,,,,,,,,,,,,,,,,,,,,,,,,,,,,,,,,,,,,,,,,,,1,,,,,,,,,,,,,,,,,,,,,,,,,3846215,-0.008333333,-0.386111111,1,0,0,cont_button,0,11,11,11,1,12,,,,,,,,,,,,,,,,,,,,,,,,,,,,,,,,,,,
,,5f63cec2fc0d7912ab4e3d6c,2022-09-08_12h45.18.716,CGTgamblingSpanTasks,2022.2.1,Win32,60.0240096,,,,,,,,,,,,,,,,,,,,,,,,,,,,,,,,,,,,,,,,,,,,,,,,,,,,,,,,,,,,,,,,,,,,,,,,,,,,,,,,,,"[9,6,4,8,3,5,1,2]",0,0,0,0,1,,,,,,,,,,,,,,,,,,,,,,,,,,,,,,,,,,,,,,,,,,,,,,,,
,,5f63cec2fc0d7912ab4e3d6c,2022-09-08_12h45.18.716,CGTgamblingSpanTasks,2022.2.1,Win32,60.0240096,,,,,,,,,,,,,,,,,,,,,,,,,,,,,,,,,,,,,,,,,,,,,,,,,,,,,,,,,,,,,,,,,,,,,,,,,,,,,,,,,,"[9,6,4,8,3,5,1,2]",1,0,1,0,1,,,,,,,,,,,,,,,,,,,,,,,,,,,,,,,,,,,,,,,,,,,,,,,,
,,5f63cec2fc0d7912ab4e3d6c,2022-09-08_12h45.18.716,CGTgamblingSpanTasks,2022.2.1,Win32,60.0240096,,,,,,,,,,,,,,,,,,,,,,,,,,,,,,,,,,,,,,,,,,,,,,,,,,,,,,,,,,,,,,,,,,,,,,,,,,,,,,,,,,"[9,6,4,8,3,5,1,2]",2,0,2,0,1,,,,,,,,,,,,,,,,,,,,,,,,,,,,,,,,,,,,,,,,,,,,,,,,
,,5f63cec2fc0d7912ab4e3d6c,2022-09-08_12h45.18.716,CGTgamblingSpanTasks,2022.2.1,Win32,60.0240096,,,,,,,,,,,,,,,,,,,,,,,,,,,,,,,,,,,,,,,,,,,,,,,,,,,,,,,,,,,,,,,,,,,,,,,,,,,,,,,,,,"[9,6,4,8,3,5,1,2]",3,0,3,0,1,,,,,,,,,,,,,,,,,,,,,,,,,,,,,,,,,,,,,,,,,,,,,,,,
,,5f63cec2fc0d7912ab4e3d6c,2022-09-08_12h45.18.716,CGTgamblingSpanTasks,2022.2.1,Win32,60.0240096,,,,,,,,,,,,,,,,,,,,,,,,,,,,,,,,,,,,,,,,,,,,,,,,,,,,,,,,,,,,,,,,,,,,,,,,,,,,,,,,,,"[9,6,4,8,3,5,1,2]",4,0,4,0,1,,,,,,,,,,,,,,,,,,,,,,,,,,,,,,,,,,,,,,,,,,,,,,,,
,,5f63cec2fc0d7912ab4e3d6c,2022-09-08_12h45.18.716,CGTgamblingSpanTasks,2022.2.1,Win32,60.0240096,,,,,,,,,,,,,,,,,,,,,,,,,,,,,,,,,,,,,,,,,,,,,,,,,,,,,,,,,,,,,,,,,,,,,,,,,,,,,,,,,,"[9,6,4,8,3,5,1,2]",5,0,5,0,1,,,,,,,,,,,,,,,,,,,,,,,,,,,,,,,,,,,,,,,,,,,,,,,,
,,5f63cec2fc0d7912ab4e3d6c,2022-09-08_12h45.18.716,CGTgamblingSpanTasks,2022.2.1,Win32,60.0240096,,,,,,,,,,,,,,,,,,,,,,,,,,,,,,,,,,,,,,,,,,,,,,,,,,,,,,,,,,,,,,,,,,,,,,,,,,,,,,,,,,"[9,6,4,8,3,5,1,2]",6,0,6,0,1,,,,,,,,,,,,,,,,,,,,,,,,,,,,,,,,,,,,,,,,,,,,,,,,
,,5f63cec2fc0d7912ab4e3d6c,2022-09-08_12h45.18.716,CGTgamblingSpanTasks,2022.2.1,Win32,60.0240096,,,,,,,,,,,,,,,,,,,,,,,,,,,,,,,,,,,,,,,,,,,,,,,,,,,,,,,,,,,,,,,,,,,,,,,,,,,,,,,,,,"[9,6,4,8,3,5,1,2]",7,0,7,0,1,,,,,,,,,,,,,,,,,,,,,,,,,,,,,,,,,,,,,,,,,,,,,,,,
,,5f63cec2fc0d7912ab4e3d6c,2022-09-08_12h45.18.716,CGTgamblingSpanTasks,2022.2.1,Win32,60.0240096,,,,,,,,,,,,,,,,,,,,,,,,,,,,,,,,,,,,,,,,,,,,,,,,,,,,,,,,,,,,,,,0,,,,,,,,,,,,,,,,,,,,,,,,,96483521,0.011111111,-0.376851852,1,0,0,cont_button,0,12,12,12,1,13,,,,,,,,,,,,,,,,,,,,,,,,,,,,,,,,,,,
,,5f63cec2fc0d7912ab4e3d6c,2022-09-08_12h45.18.716,CGTgamblingSpanTasks,2022.2.1,Win32,60.0240096,,,,,,,,,,,,,,,,,,,,,,,,,,,,,,,,,,,,,,,,,,,,,,,,,,,,,,,,,,,,,,,,,,,,,,,,,,,,,,,,,,"[2,6,8,5,3,9,4,7]",0,0,0,0,1,,,,,,,,,,,,,,,,,,,,,,,,,,,,,,,,,,,,,,,,,,,,,,,,
,,5f63cec2fc0d7912ab4e3d6c,2022-09-08_12h45.18.716,CGTgamblingSpanTasks,2022.2.1,Win32,60.0240096,,,,,,,,,,,,,,,,,,,,,,,,,,,,,,,,,,,,,,,,,,,,,,,,,,,,,,,,,,,,,,,,,,,,,,,,,,,,,,,,,,"[2,6,8,5,3,9,4,7]",1,0,1,0,1,,,,,,,,,,,,,,,,,,,,,,,,,,,,,,,,,,,,,,,,,,,,,,,,
,,5f63cec2fc0d7912ab4e3d6c,2022-09-08_12h45.18.716,CGTgamblingSpanTasks,2022.2.1,Win32,60.0240096,,,,,,,,,,,,,,,,,,,,,,,,,,,,,,,,,,,,,,,,,,,,,,,,,,,,,,,,,,,,,,,,,,,,,,,,,,,,,,,,,,"[2,6,8,5,3,9,4,7]",2,0,2,0,1,,,,,,,,,,,,,,,,,,,,,,,,,,,,,,,,,,,,,,,,,,,,,,,,
,,5f63cec2fc0d7912ab4e3d6c,2022-09-08_12h45.18.716,CGTgamblingSpanTasks,2022.2.1,Win32,60.0240096,,,,,,,,,,,,,,,,,,,,,,,,,,,,,,,,,,,,,,,,,,,,,,,,,,,,,,,,,,,,,,,,,,,,,,,,,,,,,,,,,,"[2,6,8,5,3,9,4,7]",3,0,3,0,1,,,,,,,,,,,,,,,,,,,,,,,,,,,,,,,,,,,,,,,,,,,,,,,,
,,5f63cec2fc0d7912ab4e3d6c,2022-09-08_12h45.18.716,CGTgamblingSpanTasks,2022.2.1,Win32,60.0240096,,,,,,,,,,,,,,,,,,,,,,,,,,,,,,,,,,,,,,,,,,,,,,,,,,,,,,,,,,,,,,,,,,,,,,,,,,,,,,,,,,"[2,6,8,5,3,9,4,7]",4,0,4,0,1,,,,,,,,,,,,,,,,,,,,,,,,,,,,,,,,,,,,,,,,,,,,,,,,
,,5f63cec2fc0d7912ab4e3d6c,2022-09-08_12h45.18.716,CGTgamblingSpanTasks,2022.2.1,Win32,60.0240096,,,,,,,,,,,,,,,,,,,,,,,,,,,,,,,,,,,,,,,,,,,,,,,,,,,,,,,,,,,,,,,,,,,,,,,,,,,,,,,,,,"[2,6,8,5,3,9,4,7]",5,0,5,0,1,,,,,,,,,,,,,,,,,,,,,,,,,,,,,,,,,,,,,,,,,,,,,,,,
,,5f63cec2fc0d7912ab4e3d6c,2022-09-08_12h45.18.716,CGTgamblingSpanTasks,2022.2.1,Win32,60.0240096,,,,,,,,,,,,,,,,,,,,,,,,,,,,,,,,,,,,,,,,,,,,,,,,,,,,,,,,,,,,,,,,,,,,,,,,,,,,,,,,,,"[2,6,8,5,3,9,4,7]",6,0,6,0,1,,,,,,,,,,,,,,,,,,,,,,,,,,,,,,,,,,,,,,,,,,,,,,,,
,,5f63cec2fc0d7912ab4e3d6c,2022-09-08_12h45.18.716,CGTgamblingSpanTasks,2022.2.1,Win32,60.0240096,,,,,,,,,,,,,,,,,,,,,,,,,,,,,,,,,,,,,,,,,,,,,,,,,,,,,,,,,,,,,,,,,,,,,,,,,,,,,,,,,,"[2,6,8,5,3,9,4,7]",7,0,7,0,1,,,,,,,,,,,,,,,,,,,,,,,,,,,,,,,,,,,,,,,,,,,,,,,,
,,5f63cec2fc0d7912ab4e3d6c,2022-09-08_12h45.18.716,CGTgamblingSpanTasks,2022.2.1,Win32,60.0240096,,,,,,,,,,,,,,,,,,,,,,,,,,,,,,,,,,,,,,,,,,,,,,,,,,,,,,,,,,,,,,,1,,,,,,,,,,,,,,,,,,,,,,,,,26853947,0.001851852,-0.377777778,1,0,0,cont_button,0,13,13,13,1,14,,,,,,,,,,,,,,,,,,,,,,,,,,,,,,,,,,,
,,5f63cec2fc0d7912ab4e3d6c,2022-09-08_12h45.18.716,CGTgamblingSpanTasks,2022.2.1,Win32,60.0240096,,,,,,,,,,,,,,,,,,,,,,,,,,,,,,,,,,,,,,,,,,,,,,,,,,,,,,,,,,,,,,,,,,,,,,,,,,,,,,,,,,,,,,,,,,,,,,,,,,,,,return,3.509,,,,,,,,,,,,,,,,,,,,,,,,,,,,,,,,,
,,5f63cec2fc0d7912ab4e3d6c,2022-09-08_12h45.18.716,CGTgamblingSpanTasks,2022.2.1,Win32,60.0240096,,,,,,,,,,,,,,,,,,,,,,,,,,,,,,,,,,,,,,,,,,,,,,,,,,,,,,,,,,,,,,,,,,,,,,,,,,,,,,,,,,,,,,,,,,,,,,,,,,,,,,,return,12.597,,,,,,,,,,,,,,,,,,,,,,,,,,,,,,,
,,5f63cec2fc0d7912ab4e3d6c,2022-09-08_12h45.18.716,CGTgamblingSpanTasks,2022.2.1,Win32,60.0240096,,,,,,,,,,,,,,,,,,,,,,,,,,,,,,,,,,,,,,,,,,,,,,,,,,,,,,,,,,,,,,,1,,,,,,,,,,,,3,342,24,2,42,,,,,,,,,,,,,,,,,,,,,,,,,,42,-0.031481481,-0.381481481,1,0,0,cont_buttonPractice_2,0,0,0,0,1,,,,,,,,,,,,,,,,,,,
,,5f63cec2fc0d7912ab4e3d6c,2022-09-08_12h45.18.716,CGTgamblingSpanTasks,2022.2.1,Win32,60.0240096,,,,,,,,,,,,,,,,,,,,,,,,,,,,,,,,,,,,,,,,,,,,,,,,,,,,,,,,,,,,,,,1,,,,,,,,,,,,3,937,73,2,37,,,,,,,,,,,,,,,,,,,,,,,,,,37,-0.015740741,-0.384259259,1,0,0,cont_buttonPractice_2,0,1,1,1,1,,,,,,,,,,,,,,,,,,,
,,5f63cec2fc0d7912ab4e3d6c,2022-09-08_12h45.18.716,CGTgamblingSpanTasks,2022.2.1,Win32,60.0240096,,,,,,,,,,,,,,,,,,,,,,,,,,,,,,,,,,,,,,,,,,,,,,,,,,,,,,,,,,,,,,,,,,,,,,,,,,,,,,,,,,,,,,,,,,,,,,,,,,,,,,,,,,,,,,,,,,,,,return,3.355,,,,,,,,,,,,,,,,,
,,5f63cec2fc0d7912ab4e3d6c,2022-09-08_12h45.18.716,CGTgamblingSpanTasks,2022.2.1,Win32,60.0240096,,,,,,,,,,,,,,,,,,,,,,,,,,,,,,,,,,,,,,,,,,,,,,,,,,,,,,,,,,,,,,,,,,,,,,,,,,,,,,,,,,"[2,4]",,,,,,,,,,,,,,,,,,,,,,,,,,,,,,,,,,,,,0,0,0,0,1,,,,,,,,,,,,
,,5f63cec2fc0d7912ab4e3d6c,2022-09-08_12h45.18.716,CGTgamblingSpanTasks,2022.2.1,Win32,60.0240096,,,,,,,,,,,,,,,,,,,,,,,,,,,,,,,,,,,,,,,,,,,,,,,,,,,,,,,,,,,,,,,,,,,,,,,,,,,,,,,,,,"[2,4]",,,,,,,,,,,,,,,,,,,,,,,,,,,,,,,,,,,,,1,0,1,0,1,,,,,,,,,,,,
,,5f63cec2fc0d7912ab4e3d6c,2022-09-08_12h45.18.716,CGTgamblingSpanTasks,2022.2.1,Win32,60.0240096,,,,,,,,,,,,,,,,,,,,,,,,,,,,,,,,,,,,,,,,,,,,,,,,,,,,,,,,,,,,,,,1,,,,,,,,,,,,,,,,,,,,,,,,,,,,,,,,,,,,,1,,,,,,,,,,,,,,,,,,,,,,,,42,-0.000925926,-0.390740741,1,0,0,cont_buttonBS,0,0,0,0,1
,,5f63cec2fc0d7912ab4e3d6c,2022-09-08_12h45.18.716,CGTgamblingSpanTasks,2022.2.1,Win32,60.0240096,,,,,,,,,,,,,,,,,,,,,,,,,,,,,,,,,,,,,,,,,,,,,,,,,,,,,,,,,,,,,,,,,,,,,,,,,,,,,,,,,,"[1,7,6]",,,,,,,,,,,,,,,,,,,,,,,,,,,,,,,,,,,,,0,0,0,0,1,,,,,,,,,,,,
,,5f63cec2fc0d7912ab4e3d6c,2022-09-08_12h45.18.716,CGTgamblingSpanTasks,2022.2.1,Win32,60.0240096,,,,,,,,,,,,,,,,,,,,,,,,,,,,,,,,,,,,,,,,,,,,,,,,,,,,,,,,,,,,,,,,,,,,,,,,,,,,,,,,,,"[1,7,6]",,,,,,,,,,,,,,,,,,,,,,,,,,,,,,,,,,,,,1,0,1,0,1,,,,,,,,,,,,
,,5f63cec2fc0d7912ab4e3d6c,2022-09-08_12h45.18.716,CGTgamblingSpanTasks,2022.2.1,Win32,60.0240096,,,,,,,,,,,,,,,,,,,,,,,,,,,,,,,,,,,,,,,,,,,,,,,,,,,,,,,,,,,,,,,,,,,,,,,,,,,,,,,,,,"[1,7,6]",,,,,,,,,,,,,,,,,,,,,,,,,,,,,,,,,,,,,2,0,2,0,1,,,,,,,,,,,,
,,5f63cec2fc0d7912ab4e3d6c,2022-09-08_12h45.18.716,CGTgamblingSpanTasks,2022.2.1,Win32,60.0240096,,,,,,,,,,,,,,,,,,,,,,,,,,,,,,,,,,,,,,,,,,,,,,,,,,,,,,,,,,,,,,,1,,,,,,,,,,,,,,,,,,,,,,,,,,,,,,,,,,,,,2,,,,,,,,,,,,,,,,,,,,,,,,671,-0.000925926,-0.390740741,1,0,0,cont_buttonBS,0,1,1,1,1
,,5f63cec2fc0d7912ab4e3d6c,2022-09-08_12h45.18.716,CGTgamblingSpanTasks,2022.2.1,Win32,60.0240096,,,,,,,,,,,,,,,,,,,,,,,,,,,,,,,,,,,,,,,,,,,,,,,,,,,,,,,,,,,,,,,,,,,,,,,,,,,,,,,,,,"[7,5,9,6]",,,,,,,,,,,,,,,,,,,,,,,,,,,,,,,,,,,,,0,0,0,0,1,,,,,,,,,,,,
,,5f63cec2fc0d7912ab4e3d6c,2022-09-08_12h45.18.716,CGTgamblingSpanTasks,2022.2.1,Win32,60.0240096,,,,,,,,,,,,,,,,,,,,,,,,,,,,,,,,,,,,,,,,,,,,,,,,,,,,,,,,,,,,,,,,,,,,,,,,,,,,,,,,,,"[7,5,9,6]",,,,,,,,,,,,,,,,,,,,,,,,,,,,,,,,,,,,,1,0,1,0,1,,,,,,,,,,,,
,,5f63cec2fc0d7912ab4e3d6c,2022-09-08_12h45.18.716,CGTgamblingSpanTasks,2022.2.1,Win32,60.0240096,,,,,,,,,,,,,,,,,,,,,,,,,,,,,,,,,,,,,,,,,,,,,,,,,,,,,,,,,,,,,,,,,,,,,,,,,,,,,,,,,,"[7,5,9,6]",,,,,,,,,,,,,,,,,,,,,,,,,,,,,,,,,,,,,2,0,2,0,1,,,,,,,,,,,,
,,5f63cec2fc0d7912ab4e3d6c,2022-09-08_12h45.18.716,CGTgamblingSpanTasks,2022.2.1,Win32,60.0240096,,,,,,,,,,,,,,,,,,,,,,,,,,,,,,,,,,,,,,,,,,,,,,,,,,,,,,,,,,,,,,,,,,,,,,,,,,,,,,,,,,"[7,5,9,6]",,,,,,,,,,,,,,,,,,,,,,,,,,,,,,,,,,,,,3,0,3,0,1,,,,,,,,,,,,
,,5f63cec2fc0d7912ab4e3d6c,2022-09-08_12h45.18.716,CGTgamblingSpanTasks,2022.2.1,Win32,60.0240096,,,,,,,,,,,,,,,,,,,,,,,,,,,,,,,,,,,,,,,,,,,,,,,,,,,,,,,,,,,,,,,0,,,,,,,,,,,,,,,,,,,,,,,,,,,,,,,,,,,,,3,,,,,,,,,,,,,,,,,,,,,,,,6597,-0.04537037,-0.387037037,1,0,0,cont_buttonBS,0,2,2,2,1
,,5f63cec2fc0d7912ab4e3d6c,2022-09-08_12h45.18.716,CGTgamblingSpanTasks,2022.2.1,Win32,60.0240096,,,,,,,,,,,,,,,,,,,,,,,,,,,,,,,,,,,,,,,,,,,,,,,,,,,,,,,,,,,,,,,,,,,,,,,,,,,,,,,,,,"[1,7,3,5]",,,,,,,,,,,,,,,,,,,,,,,,,,,,,,,,,,,,,0,0,0,0,1,,,,,,,,,,,,
,,5f63cec2fc0d7912ab4e3d6c,2022-09-08_12h45.18.716,CGTgamblingSpanTasks,2022.2.1,Win32,60.0240096,,,,,,,,,,,,,,,,,,,,,,,,,,,,,,,,,,,,,,,,,,,,,,,,,,,,,,,,,,,,,,,,,,,,,,,,,,,,,,,,,,"[1,7,3,5]",,,,,,,,,,,,,,,,,,,,,,,,,,,,,,,,,,,,,1,0,1,0,1,,,,,,,,,,,,
,,5f63cec2fc0d7912ab4e3d6c,2022-09-08_12h45.18.716,CGTgamblingSpanTasks,2022.2.1,Win32,60.0240096,,,,,,,,,,,,,,,,,,,,,,,,,,,,,,,,,,,,,,,,,,,,,,,,,,,,,,,,,,,,,,,,,,,,,,,,,,,,,,,,,,"[1,7,3,5]",,,,,,,,,,,,,,,,,,,,,,,,,,,,,,,,,,,,,2,0,2,0,1,,,,,,,,,,,,
,,5f63cec2fc0d7912ab4e3d6c,2022-09-08_12h45.18.716,CGTgamblingSpanTasks,2022.2.1,Win32,60.0240096,,,,,,,,,,,,,,,,,,,,,,,,,,,,,,,,,,,,,,,,,,,,,,,,,,,,,,,,,,,,,,,,,,,,,,,,,,,,,,,,,,"[1,7,3,5]",,,,,,,,,,,,,,,,,,,,,,,,,,,,,,,,,,,,,3,0,3,0,1,,,,,,,,,,,,
,,5f63cec2fc0d7912ab4e3d6c,2022-09-08_12h45.18.716,CGTgamblingSpanTasks,2022.2.1,Win32,60.0240096,,,,,,,,,,,,,,,,,,,,,,,,,,,,,,,,,,,,,,,,,,,,,,,,,,,,,,,,,,,,,,,1,,,,,,,,,,,,,,,,,,,,,,,,,,,,,,,,,,,,,4,,,,,,,,,,,,,,,,,,,,,,,,5371,0.032407407,-0.365740741,1,0,0,cont_buttonBS,0,3,3,3,1
,,5f63cec2fc0d7912ab4e3d6c,2022-09-08_12h45.18.716,CGTgamblingSpanTasks,2022.2.1,Win32,60.0240096,,,,,,,,,,,,,,,,,,,,,,,,,,,,,,,,,,,,,,,,,,,,,,,,,,,,,,,,,,,,,,,,,,,,,,,,,,,,,,,,,,"[8,4,2,3,7]",,,,,,,,,,,,,,,,,,,,,,,,,,,,,,,,,,,,,0,0,0,0,1,,,,,,,,,,,,
,,5f63cec2fc0d7912ab4e3d6c,2022-09-08_12h45.18.716,CGTgamblingSpanTasks,2022.2.1,Win32,60.0240096,,,,,,,,,,,,,,,,,,,,,,,,,,,,,,,,,,,,,,,,,,,,,,,,,,,,,,,,,,,,,,,,,,,,,,,,,,,,,,,,,,"[8,4,2,3,7]",,,,,,,,,,,,,,,,,,,,,,,,,,,,,,,,,,,,,1,0,1,0,1,,,,,,,,,,,,
,,5f63cec2fc0d7912ab4e3d6c,2022-09-08_12h45.18.716,CGTgamblingSpanTasks,2022.2.1,Win32,60.0240096,,,,,,,,,,,,,,,,,,,,,,,,,,,,,,,,,,,,,,,,,,,,,,,,,,,,,,,,,,,,,,,,,,,,,,,,,,,,,,,,,,"[8,4,2,3,7]",,,,,,,,,,,,,,,,,,,,,,,,,,,,,,,,,,,,,2,0,2,0,1,,,,,,,,,,,,
,,5f63cec2fc0d7912ab4e3d6c,2022-09-08_12h45.18.716,CGTgamblingSpanTasks,2022.2.1,Win32,60.0240096,,,,,,,,,,,,,,,,,,,,,,,,,,,,,,,,,,,,,,,,,,,,,,,,,,,,,,,,,,,,,,,,,,,,,,,,,,,,,,,,,,"[8,4,2,3,7]",,,,,,,,,,,,,,,,,,,,,,,,,,,,,,,,,,,,,3,0,3,0,1,,,,,,,,,,,,
,,5f63cec2fc0d7912ab4e3d6c,2022-09-08_12h45.18.716,CGTgamblingSpanTasks,2022.2.1,Win32,60.0240096,,,,,,,,,,,,,,,,,,,,,,,,,,,,,,,,,,,,,,,,,,,,,,,,,,,,,,,,,,,,,,,,,,,,,,,,,,,,,,,,,,"[8,4,2,3,7]",,,,,,,,,,,,,,,,,,,,,,,,,,,,,,,,,,,,,4,0,4,0,1,,,,,,,,,,,,
,,5f63cec2fc0d7912ab4e3d6c,2022-09-08_12h45.18.716,CGTgamblingSpanTasks,2022.2.1,Win32,60.0240096,,,,,,,,,,,,,,,,,,,,,,,,,,,,,,,,,,,,,,,,,,,,,,,,,,,,,,,,,,,,,,,1,,,,,,,,,,,,,,,,,,,,,,,,,,,,,,,,,,,,,5,,,,,,,,,,,,,,,,,,,,,,,,73248,0.109259259,-0.390740741,1,0,0,cont_buttonBS,0,4,4,4,1
,,5f63cec2fc0d7912ab4e3d6c,2022-09-08_12h45.18.716,CGTgamblingSpanTasks,2022.2.1,Win32,60.0240096,,,,,,,,,,,,,,,,,,,,,,,,,,,,,,,,,,,,,,,,,,,,,,,,,,,,,,,,,,,,,,,,,,,,,,,,,,,,,,,,,,"[8,3,6,1,9,5]",,,,,,,,,,,,,,,,,,,,,,,,,,,,,,,,,,,,,0,0,0,0,1,,,,,,,,,,,,
,,5f63cec2fc0d7912ab4e3d6c,2022-09-08_12h45.18.716,CGTgamblingSpanTasks,2022.2.1,Win32,60.0240096,,,,,,,,,,,,,,,,,,,,,,,,,,,,,,,,,,,,,,,,,,,,,,,,,,,,,,,,,,,,,,,,,,,,,,,,,,,,,,,,,,"[8,3,6,1,9,5]",,,,,,,,,,,,,,,,,,,,,,,,,,,,,,,,,,,,,1,0,1,0,1,,,,,,,,,,,,
,,5f63cec2fc0d7912ab4e3d6c,2022-09-08_12h45.18.716,CGTgamblingSpanTasks,2022.2.1,Win32,60.0240096,,,,,,,,,,,,,,,,,,,,,,,,,,,,,,,,,,,,,,,,,,,,,,,,,,,,,,,,,,,,,,,,,,,,,,,,,,,,,,,,,,"[8,3,6,1,9,5]",,,,,,,,,,,,,,,,,,,,,,,,,,,,,,,,,,,,,2,0,2,0,1,,,,,,,,,,,,
,,5f63cec2fc0d7912ab4e3d6c,2022-09-08_12h45.18.716,CGTgamblingSpanTasks,2022.2.1,Win32,60.0240096,,,,,,,,,,,,,,,,,,,,,,,,,,,,,,,,,,,,,,,,,,,,,,,,,,,,,,,,,,,,,,,,,,,,,,,,,,,,,,,,,,"[8,3,6,1,9,5]",,,,,,,,,,,,,,,,,,,,,,,,,,,,,,,,,,,,,3,0,3,0,1,,,,,,,,,,,,
,,5f63cec2fc0d7912ab4e3d6c,2022-09-08_12h45.18.716,CGTgamblingSpanTasks,2022.2.1,Win32,60.0240096,,,,,,,,,,,,,,,,,,,,,,,,,,,,,,,,,,,,,,,,,,,,,,,,,,,,,,,,,,,,,,,,,,,,,,,,,,,,,,,,,,"[8,3,6,1,9,5]",,,,,,,,,,,,,,,,,,,,,,,,,,,,,,,,,,,,,4,0,4,0,1,,,,,,,,,,,,
,,5f63cec2fc0d7912ab4e3d6c,2022-09-08_12h45.18.716,CGTgamblingSpanTasks,2022.2.1,Win32,60.0240096,,,,,,,,,,,,,,,,,,,,,,,,,,,,,,,,,,,,,,,,,,,,,,,,,,,,,,,,,,,,,,,,,,,,,,,,,,,,,,,,,,"[8,3,6,1,9,5]",,,,,,,,,,,,,,,,,,,,,,,,,,,,,,,,,,,,,5,0,5,0,1,,,,,,,,,,,,
,,5f63cec2fc0d7912ab4e3d6c,2022-09-08_12h45.18.716,CGTgamblingSpanTasks,2022.2.1,Win32,60.0240096,,,,,,,,,,,,,,,,,,,,,,,,,,,,,,,,,,,,,,,,,,,,,,,,,,,,,,,,,,,,,,,0,,,,,,,,,,,,,,,,,,,,,,,,,,,,,,,,,,,,,6,,,,,,,,,,,,,,,,,,,,,,,,591368,0.036111111,-0.380555556,1,0,0,cont_buttonBS,0,5,5,5,1
,,5f63cec2fc0d7912ab4e3d6c,2022-09-08_12h45.18.716,CGTgamblingSpanTasks,2022.2.1,Win32,60.0240096,,,,,,,,,,,,,,,,,,,,,,,,,,,,,,,,,,,,,,,,,,,,,,,,,,,,,,,,,,,,,,,,,,,,,,,,,,,,,,,,,,"[9,1,5,3,8,2]",,,,,,,,,,,,,,,,,,,,,,,,,,,,,,,,,,,,,0,0,0,0,1,,,,,,,,,,,,
,,5f63cec2fc0d7912ab4e3d6c,2022-09-08_12h45.18.716,CGTgamblingSpanTasks,2022.2.1,Win32,60.0240096,,,,,,,,,,,,,,,,,,,,,,,,,,,,,,,,,,,,,,,,,,,,,,,,,,,,,,,,,,,,,,,,,,,,,,,,,,,,,,,,,,"[9,1,5,3,8,2]",,,,,,,,,,,,,,,,,,,,,,,,,,,,,,,,,,,,,1,0,1,0,1,,,,,,,,,,,,
,,5f63cec2fc0d7912ab4e3d6c,2022-09-08_12h45.18.716,CGTgamblingSpanTasks,2022.2.1,Win32,60.0240096,,,,,,,,,,,,,,,,,,,,,,,,,,,,,,,,,,,,,,,,,,,,,,,,,,,,,,,,,,,,,,,,,,,,,,,,,,,,,,,,,,"[9,1,5,3,8,2]",,,,,,,,,,,,,,,,,,,,,,,,,,,,,,,,,,,,,2,0,2,0,1,,,,,,,,,,,,
,,5f63cec2fc0d7912ab4e3d6c,2022-09-08_12h45.18.716,CGTgamblingSpanTasks,2022.2.1,Win32,60.0240096,,,,,,,,,,,,,,,,,,,,,,,,,,,,,,,,,,,,,,,,,,,,,,,,,,,,,,,,,,,,,,,,,,,,,,,,,,,,,,,,,,"[9,1,5,3,8,2]",,,,,,,,,,,,,,,,,,,,,,,,,,,,,,,,,,,,,3,0,3,0,1,,,,,,,,,,,,
,,5f63cec2fc0d7912ab4e3d6c,2022-09-08_12h45.18.716,CGTgamblingSpanTasks,2022.2.1,Win32,60.0240096,,,,,,,,,,,,,,,,,,,,,,,,,,,,,,,,,,,,,,,,,,,,,,,,,,,,,,,,,,,,,,,,,,,,,,,,,,,,,,,,,,"[9,1,5,3,8,2]",,,,,,,,,,,,,,,,,,,,,,,,,,,,,,,,,,,,,4,0,4,0,1,,,,,,,,,,,,
,,5f63cec2fc0d7912ab4e3d6c,2022-09-08_12h45.18.716,CGTgamblingSpanTasks,2022.2.1,Win32,60.0240096,,,,,,,,,,,,,,,,,,,,,,,,,,,,,,,,,,,,,,,,,,,,,,,,,,,,,,,,,,,,,,,,,,,,,,,,,,,,,,,,,,"[9,1,5,3,8,2]",,,,,,,,,,,,,,,,,,,,,,,,,,,,,,,,,,,,,5,0,5,0,1,,,,,,,,,,,,
,,5f63cec2fc0d7912ab4e3d6c,2022-09-08_12h45.18.716,CGTgamblingSpanTasks,2022.2.1,Win32,60.0240096,,,,,,,,,,,,,,,,,,,,,,,,,,,,,,,,,,,,,,,,,,,,,,,,,,,,,,,,,,,,,,,1,,,,,,,,,,,,,,,,,,,,,,,,,,,,,,,,,,,,,7,,,,,,,,,,,,,,,,,,,,,,,,283519,0.037037037,-0.408333333,1,0,0,cont_buttonBS,0,6,6,6,1
,,5f63cec2fc0d7912ab4e3d6c,2022-09-08_12h45.18.716,CGTgamblingSpanTasks,2022.2.1,Win32,60.0240096,,,,,,,,,,,,,,,,,,,,,,,,,,,,,,,,,,,,,,,,,,,,,,,,,,,,,,,,,,,,,,,,,,,,,,,,,,,,,,,,,,"[9,4,6,1,8,3,5]",,,,,,,,,,,,,,,,,,,,,,,,,,,,,,,,,,,,,0,0,0,0,1,,,,,,,,,,,,
,,5f63cec2fc0d7912ab4e3d6c,2022-09-08_12h45.18.716,CGTgamblingSpanTasks,2022.2.1,Win32,60.0240096,,,,,,,,,,,,,,,,,,,,,,,,,,,,,,,,,,,,,,,,,,,,,,,,,,,,,,,,,,,,,,,,,,,,,,,,,,,,,,,,,,"[9,4,6,1,8,3,5]",,,,,,,,,,,,,,,,,,,,,,,,,,,,,,,,,,,,,1,0,1,0,1,,,,,,,,,,,,
,,5f63cec2fc0d7912ab4e3d6c,2022-09-08_12h45.18.716,CGTgamblingSpanTasks,2022.2.1,Win32,60.0240096,,,,,,,,,,,,,,,,,,,,,,,,,,,,,,,,,,,,,,,,,,,,,,,,,,,,,,,,,,,,,,,,,,,,,,,,,,,,,,,,,,"[9,4,6,1,8,3,5]",,,,,,,,,,,,,,,,,,,,,,,,,,,,,,,,,,,,,2,0,2,0,1,,,,,,,,,,,,
,,5f63cec2fc0d7912ab4e3d6c,2022-09-08_12h45.18.716,CGTgamblingSpanTasks,2022.2.1,Win32,60.0240096,,,,,,,,,,,,,,,,,,,,,,,,,,,,,,,,,,,,,,,,,,,,,,,,,,,,,,,,,,,,,,,,,,,,,,,,,,,,,,,,,,"[9,4,6,1,8,3,5]",,,,,,,,,,,,,,,,,,,,,,,,,,,,,,,,,,,,,3,0,3,0,1,,,,,,,,,,,,
,,5f63cec2fc0d7912ab4e3d6c,2022-09-08_12h45.18.716,CGTgamblingSpanTasks,2022.2.1,Win32,60.0240096,,,,,,,,,,,,,,,,,,,,,,,,,,,,,,,,,,,,,,,,,,,,,,,,,,,,,,,,,,,,,,,,,,,,,,,,,,,,,,,,,,"[9,4,6,1,8,3,5]",,,,,,,,,,,,,,,,,,,,,,,,,,,,,,,,,,,,,4,0,4,0,1,,,,,,,,,,,,
,,5f63cec2fc0d7912ab4e3d6c,2022-09-08_12h45.18.716,CGTgamblingSpanTasks,2022.2.1,Win32,60.0240096,,,,,,,,,,,,,,,,,,,,,,,,,,,,,,,,,,,,,,,,,,,,,,,,,,,,,,,,,,,,,,,,,,,,,,,,,,,,,,,,,,"[9,4,6,1,8,3,5]",,,,,,,,,,,,,,,,,,,,,,,,,,,,,,,,,,,,,5,0,5,0,1,,,,,,,,,,,,
,,5f63cec2fc0d7912ab4e3d6c,2022-09-08_12h45.18.716,CGTgamblingSpanTasks,2022.2.1,Win32,60.0240096,,,,,,,,,,,,,,,,,,,,,,,,,,,,,,,,,,,,,,,,,,,,,,,,,,,,,,,,,,,,,,,,,,,,,,,,,,,,,,,,,,"[9,4,6,1,8,3,5]",,,,,,,,,,,,,,,,,,,,,,,,,,,,,,,,,,,,,6,0,6,0,1,,,,,,,,,,,,
,,5f63cec2fc0d7912ab4e3d6c,2022-09-08_12h45.18.716,CGTgamblingSpanTasks,2022.2.1,Win32,60.0240096,,,,,,,,,,,,,,,,,,,,,,,,,,,,,,,,,,,,,,,,,,,,,,,,,,,,,,,,,,,,,,,1,,,,,,,,,,,,,,,,,,,,,,,,,,,,,,,,,,,,,8,,,,,,,,,,,,,,,,,,,,,,,,5381649,0.042592593,-0.382407407,1,0,0,cont_buttonBS,0,7,7,7,1
,,5f63cec2fc0d7912ab4e3d6c,2022-09-08_12h45.18.716,CGTgamblingSpanTasks,2022.2.1,Win32,60.0240096,,,,,,,,,,,,,,,,,,,,,,,,,,,,,,,,,,,,,,,,,,,,,,,,,,,,,,,,,,,,,,,,,,,,,,,,,,,,,,,,,,"[2,9,7,8,1,6,4,5]",,,,,,,,,,,,,,,,,,,,,,,,,,,,,,,,,,,,,0,0,0,0,1,,,,,,,,,,,,
,,5f63cec2fc0d7912ab4e3d6c,2022-09-08_12h45.18.716,CGTgamblingSpanTasks,2022.2.1,Win32,60.0240096,,,,,,,,,,,,,,,,,,,,,,,,,,,,,,,,,,,,,,,,,,,,,,,,,,,,,,,,,,,,,,,,,,,,,,,,,,,,,,,,,,"[2,9,7,8,1,6,4,5]",,,,,,,,,,,,,,,,,,,,,,,,,,,,,,,,,,,,,1,0,1,0,1,,,,,,,,,,,,
,,5f63cec2fc0d7912ab4e3d6c,2022-09-08_12h45.18.716,CGTgamblingSpanTasks,2022.2.1,Win32,60.0240096,,,,,,,,,,,,,,,,,,,,,,,,,,,,,,,,,,,,,,,,,,,,,,,,,,,,,,,,,,,,,,,,,,,,,,,,,,,,,,,,,,"[2,9,7,8,1,6,4,5]",,,,,,,,,,,,,,,,,,,,,,,,,,,,,,,,,,,,,2,0,2,0,1,,,,,,,,,,,,
,,5f63cec2fc0d7912ab4e3d6c,2022-09-08_12h45.18.716,CGTgamblingSpanTasks,2022.2.1,Win32,60.0240096,,,,,,,,,,,,,,,,,,,,,,,,,,,,,,,,,,,,,,,,,,,,,,,,,,,,,,,,,,,,,,,,,,,,,,,,,,,,,,,,,,"[2,9,7,8,1,6,4,5]",,,,,,,,,,,,,,,,,,,,,,,,,,,,,,,,,,,,,3,0,3,0,1,,,,,,,,,,,,
,,5f63cec2fc0d7912ab4e3d6c,2022-09-08_12h45.18.716,CGTgamblingSpanTasks,2022.2.1,Win32,60.0240096,,,,,,,,,,,,,,,,,,,,,,,,,,,,,,,,,,,,,,,,,,,,,,,,,,,,,,,,,,,,,,,,,,,,,,,,,,,,,,,,,,"[2,9,7,8,1,6,4,5]",,,,,,,,,,,,,,,,,,,,,,,,,,,,,,,,,,,,,4,0,4,0,1,,,,,,,,,,,,
,,5f63cec2fc0d7912ab4e3d6c,2022-09-08_12h45.18.716,CGTgamblingSpanTasks,2022.2.1,Win32,60.0240096,,,,,,,,,,,,,,,,,,,,,,,,,,,,,,,,,,,,,,,,,,,,,,,,,,,,,,,,,,,,,,,,,,,,,,,,,,,,,,,,,,"[2,9,7,8,1,6,4,5]",,,,,,,,,,,,,,,,,,,,,,,,,,,,,,,,,,,,,5,0,5,0,1,,,,,,,,,,,,
,,5f63cec2fc0d7912ab4e3d6c,2022-09-08_12h45.18.716,CGTgamblingSpanTasks,2022.2.1,Win32,60.0240096,,,,,,,,,,,,,,,,,,,,,,,,,,,,,,,,,,,,,,,,,,,,,,,,,,,,,,,,,,,,,,,,,,,,,,,,,,,,,,,,,,"[2,9,7,8,1,6,4,5]",,,,,,,,,,,,,,,,,,,,,,,,,,,,,,,,,,,,,6,0,6,0,1,,,,,,,,,,,,
,,5f63cec2fc0d7912ab4e3d6c,2022-09-08_12h45.18.716,CGTgamblingSpanTasks,2022.2.1,Win32,60.0240096,,,,,,,,,,,,,,,,,,,,,,,,,,,,,,,,,,,,,,,,,,,,,,,,,,,,,,,,,,,,,,,,,,,,,,,,,,,,,,,,,,"[2,9,7,8,1,6,4,5]",,,,,,,,,,,,,,,,,,,,,,,,,,,,,,,,,,,,,7,0,7,0,1,,,,,,,,,,,,
,,5f63cec2fc0d7912ab4e3d6c,2022-09-08_12h45.18.716,CGTgamblingSpanTasks,2022.2.1,Win32,60.0240096,,,,,,,,,,,,,,,,,,,,,,,,,,,,,,,,,,,,,,,,,,,,,,,,,,,,,,,,,,,,,,,0,,,,,,,,,,,,,,,,,,,,,,,,,,,,,,,,,,,,,9,,,,,,,,,,,,,,,,,,,,,,,,54168792,-0.003703704,-0.39537037,1,0,0,cont_buttonBS,0,8,8,8,1
