initITIstatic,initITIdynamic,participant,date,expName,psychopyVersion,OS,frameRate,inst1.keys,inst1.rt,startPracResp.keys,startPracResp.rt,choice1.keys,choice1.rt,outcome,extraITI,trials.thisRepN,trials.thisTrialN,trials.thisN,trials.thisIndex,trials.ran,riskyGain,riskyLoss,alternative,isi,iti,loc,postPractResp.keys,postPractResp.rt,realloc,realChoice.keys,realChoice.rt,outcomes,choices,actualITI,init ITI,staticRDM.thisRepN,staticRDM.thisTrialN,staticRDM.thisN,staticRDM.thisIndex,staticRDM.ran,riskyoption1,riskyoption2,safeoption,ischecktrial,dynamicChoiceSetName,dynamicChoiceSetPath,bestRho,bestMu,trials_2.thisRepN,trials_2.thisTrialN,trials_2.thisN,trials_2.thisIndex,trials_2.ran,key_resp.keys,key_resp.rt,dynamicRDM.thisRepN,dynamicRDM.thisTrialN,dynamicRDM.thisN,dynamicRDM.thisIndex,dynamicRDM.ran,choiceP,easy0difficult1,stopBreak.keys,stopBreak.rt,movealong.keys,movealong.rt,startPractice.keys,startPractice.rt,textboxPractice.text,correct,mousePractice.x,mousePractice.y,mousePractice.leftButton,mousePractice.midButton,mousePractice.rightButton,mousePractice.clicked_name,trialFSPractice.thisRepN,trialFSPractice.thisTrialN,trialFSPractice.thisN,trialFSPractice.thisIndex,trialFSPractice.ran,digitSpanForward,digits,digitsReverse,digitSpanReverse,digitsReverseCorrAnswer,startFSreal.keys,startFSreal.rt,digitsForTrial,digitLoop.thisRepN,digitLoop.thisTrialN,digitLoop.thisN,digitLoop.thisIndex,digitLoop.ran,textbox.text,mouse_3.x,mouse_3.y,mouse_3.leftButton,mouse_3.midButton,mouse_3.rightButton,mouse_3.clicked_name,trialsFS.thisRepN,trialsFS.thisTrialN,trialsFS.thisN,trialsFS.thisIndex,trialsFS.ran,trialNumber,moveToBS.keys,moveToBS.rt,startBSprac.keys,startBSprac.rt,textboxPractice_2.text,mousePractice_2.x,mousePractice_2.y,mousePractice_2.leftButton,mousePractice_2.midButton,mousePractice_2.rightButton,mousePractice_2.clicked_name,trialsPracticeBS.thisRepN,trialsPracticeBS.thisTrialN,trialsPracticeBS.thisN,trialsPracticeBS.thisIndex,trialsPracticeBS.ran,startBSreal.keys,startBSreal.rt,digitLoopBS.thisRepN,digitLoopBS.thisTrialN,digitLoopBS.thisN,digitLoopBS.thisIndex,digitLoopBS.ran,textboxBS.text,mouseBS.x,mouseBS.y,mouseBS.leftButton,mouseBS.midButton,mouseBS.rightButton,mouseBS.clicked_name,trialsBS.thisRepN,trialsBS.thisTrialN,trialsBS.thisN,trialsBS.thisIndex,trialsBS.ran
"[1.5,1,1,1.5,1.5,1,1,1.5,1,1,1,1,1.5,1.5,1,1.5,1,1.5,1,1.5,1,1,1,1,1.5,1,1,1.5,1,1.5,1.5,1,1.5,1,1.5,1.5,1.5,1,1.5,1.5,1.5,1,1,1.5,1.5,1.5,1.5,1,1.5,1]","[1.5,1.5,1,1,1,1,1,1.5,1,1,1,1.5,1.5,1.5,1.5,1.5,1,1,1.5,1.5,1,1.5,1,1,1,1,1,1,1.5,1.5,1,1.5,1,1.5,1.5,1,1.5,1,1,1,1.5,1.5,1,1.5,1.5,1.5,1,1.5,1,1,1,1,1,1.5,1.5,1.5,1.5,1.5,1.5,1.5,1.5,1,1.5,1,1.5,1,1.5,1.5,1.5,1.5,1.5,1,1,1.5,1,1,1.5,1.5,1,1.5,1,1,1,1.5,1,1,1,1.5,1.5,1.5,1.5,1,1.5,1,1.5,1,1,1.5,1,1.5,1,1,1,1,1.5,1,1,1.5,1.5,1,1.5,1,1,1,1.5,1,1.5,1.5,1.5,1.5]",62d16bca486167475c4954be,2022-09-08_17h32.03.753,CGTgamblingSpanTasks,2022.2.1,Win32,50.16806301,,,,,,,,,,,,,,,,,,,,,,,,,,,,,,,,,,,,,,,,,,,,,,,,,,,,,,,,,,,,,,,,,,,,,,,,,,,,,,,,,,,,,,,,,,,,,,,,,,,,,,,,,,,,,,,,,,,,,,,,,,,,,,,,,,,,,,,
,,62d16bca486167475c4954be,2022-09-08_17h32.03.753,CGTgamblingSpanTasks,2022.2.1,Win32,50.16806301,return,5.4144,,,,,,,,,,,,,,,,,,,,,,,,,,,,,,,,,,,,,,,,,,,,,,,,,,,,,,,,,,,,,,,,,,,,,,,,,,,,,,,,,,,,,,,,,,,,,,,,,,,,,,,,,,,,,,,,,,,,,,,,,,,,,,,,,,,,,
,,62d16bca486167475c4954be,2022-09-08_17h32.03.753,CGTgamblingSpanTasks,2022.2.1,Win32,50.16806301,,,v,7.5071,,,,,,,,,,,,,,,,,,,,,,,,,,,,,,,,,,,,,,,,,,,,,,,,,,,,,,,,,,,,,,,,,,,,,,,,,,,,,,,,,,,,,,,,,,,,,,,,,,,,,,,,,,,,,,,,,,,,,,,,,,,,,,,,,,,
,,62d16bca486167475c4954be,2022-09-08_17h32.03.753,CGTgamblingSpanTasks,2022.2.1,Win32,50.16806301,,,,,n,2.1727,9.45,1.8273,0,0,0,0,1,18.23,0,9.45,2,1,1,,,,,,,,,,,,,,,,,,,,,,,,,,,,,,,,,,,,,,,,,,,,,,,,,,,,,,,,,,,,,,,,,,,,,,,,,,,,,,,,,,,,,,,,,,,,,,,,,,,,,,,,,,,,,,,,,,,,
,,62d16bca486167475c4954be,2022-09-08_17h32.03.753,CGTgamblingSpanTasks,2022.2.1,Win32,50.16806301,,,,,n,1.5263,35.16,2.4737,0,1,1,1,1,53.27,0,35.16,1,1.5,1,,,,,,,,,,,,,,,,,,,,,,,,,,,,,,,,,,,,,,,,,,,,,,,,,,,,,,,,,,,,,,,,,,,,,,,,,,,,,,,,,,,,,,,,,,,,,,,,,,,,,,,,,,,,,,,,,,,,
,,62d16bca486167475c4954be,2022-09-08_17h32.03.753,CGTgamblingSpanTasks,2022.2.1,Win32,50.16806301,,,,,v,1.4838,1.15,2.5162,0,2,2,2,1,8.27,0,1.15,1,1.5,2,,,,,,,,,,,,,,,,,,,,,,,,,,,,,,,,,,,,,,,,,,,,,,,,,,,,,,,,,,,,,,,,,,,,,,,,,,,,,,,,,,,,,,,,,,,,,,,,,,,,,,,,,,,,,,,,,,,,
,,62d16bca486167475c4954be,2022-09-08_17h32.03.753,CGTgamblingSpanTasks,2022.2.1,Win32,50.16806301,,,,,n,1.1151,40.41,2.8849,0,3,3,3,1,45.88,0,40.41,3,1,1,,,,,,,,,,,,,,,,,,,,,,,,,,,,,,,,,,,,,,,,,,,,,,,,,,,,,,,,,,,,,,,,,,,,,,,,,,,,,,,,,,,,,,,,,,,,,,,,,,,,,,,,,,,,,,,,,,,,
,,62d16bca486167475c4954be,2022-09-08_17h32.03.753,CGTgamblingSpanTasks,2022.2.1,Win32,50.16806301,,,,,v,1.0767,11.96,2.9233,0,4,4,4,1,21.56,0,11.96,1,1.5,2,,,,,,,,,,,,,,,,,,,,,,,,,,,,,,,,,,,,,,,,,,,,,,,,,,,,,,,,,,,,,,,,,,,,,,,,,,,,,,,,,,,,,,,,,,,,,,,,,,,,,,,,,,,,,,,,,,,,
,,62d16bca486167475c4954be,2022-09-08_17h32.03.753,CGTgamblingSpanTasks,2022.2.1,Win32,50.16806301,,,,,,,,,,,,,,,,,,,,v,3.2925,,,,,,,,,,,,,,,,,,,,,,,,,,,,,,,,,,,,,,,,,,,,,,,,,,,,,,,,,,,,,,,,,,,,,,,,,,,,,,,,,,,,,,,,,,,,,,,,,,,,,,,,,,,,,,,,,,
,,62d16bca486167475c4954be,2022-09-08_17h32.03.753,CGTgamblingSpanTasks,2022.2.1,Win32,50.16806301,,,,,,,,2.4722,,,,,,,,,,,,,,2,n,1.5278,13.1,1,3.9722,1.5,0,0,0,44,1,13.1,7.73,4.68,1,,,,,,,,,,,,,,,,,,,,,,,,,,,,,,,,,,,,,,,,,,,,,,,,,,,,,,,,,,,,,,,,,,,,,,,,,,,,,,,,,,,,,,,,,,,,,,,,,,
,,62d16bca486167475c4954be,2022-09-08_17h32.03.753,CGTgamblingSpanTasks,2022.2.1,Win32,50.16806301,,,,,,,,2.5202,,,,,,,,,,,,,,1,n,1.4798,6.63,0,3.5202,1,0,1,1,30,1,10.73,0,6.63,0,,,,,,,,,,,,,,,,,,,,,,,,,,,,,,,,,,,,,,,,,,,,,,,,,,,,,,,,,,,,,,,,,,,,,,,,,,,,,,,,,,,,,,,,,,,,,,,,,,
,,62d16bca486167475c4954be,2022-09-08_17h32.03.753,CGTgamblingSpanTasks,2022.2.1,Win32,50.16806301,,,,,,,,2.7864,,,,,,,,,,,,,,2,v,1.2136,1.99,0,3.7864,1,0,2,2,0,1,20.03,0,1.99,0,,,,,,,,,,,,,,,,,,,,,,,,,,,,,,,,,,,,,,,,,,,,,,,,,,,,,,,,,,,,,,,,,,,,,,,,,,,,,,,,,,,,,,,,,,,,,,,,,,
,,62d16bca486167475c4954be,2022-09-08_17h32.03.753,CGTgamblingSpanTasks,2022.2.1,Win32,50.16806301,,,,,,,,2.9732,,,,,,,,,,,,,,2,v,1.0268,9.36,0,4.4732,1.5,0,3,3,23,1,17.28,0,9.36,0,,,,,,,,,,,,,,,,,,,,,,,,,,,,,,,,,,,,,,,,,,,,,,,,,,,,,,,,,,,,,,,,,,,,,,,,,,,,,,,,,,,,,,,,,,,,,,,,,,
,,62d16bca486167475c4954be,2022-09-08_17h32.03.753,CGTgamblingSpanTasks,2022.2.1,Win32,50.16806301,,,,,,,,2.6371,,,,,,,,,,,,,,2,v,1.3629,5.66,0,4.1371,1.5,0,4,4,14,1,12.68,0,5.66,0,,,,,,,,,,,,,,,,,,,,,,,,,,,,,,,,,,,,,,,,,,,,,,,,,,,,,,,,,,,,,,,,,,,,,,,,,,,,,,,,,,,,,,,,,,,,,,,,,,
,,62d16bca486167475c4954be,2022-09-08_17h32.03.753,CGTgamblingSpanTasks,2022.2.1,Win32,50.16806301,,,,,,,,2.8084,,,,,,,,,,,,,,1,n,1.1916,10.27,0,3.8084,1,0,5,5,35,1,15.47,0,10.27,0,,,,,,,,,,,,,,,,,,,,,,,,,,,,,,,,,,,,,,,,,,,,,,,,,,,,,,,,,,,,,,,,,,,,,,,,,,,,,,,,,,,,,,,,,,,,,,,,,,
,,62d16bca486167475c4954be,2022-09-08_17h32.03.753,CGTgamblingSpanTasks,2022.2.1,Win32,50.16806301,,,,,,,,2.6039,,,,,,,,,,,,,,2,v,1.3961,7.34,0,3.6039,1,0,6,6,7,1,21.32,0,7.34,0,,,,,,,,,,,,,,,,,,,,,,,,,,,,,,,,,,,,,,,,,,,,,,,,,,,,,,,,,,,,,,,,,,,,,,,,,,,,,,,,,,,,,,,,,,,,,,,,,,
,,62d16bca486167475c4954be,2022-09-08_17h32.03.753,CGTgamblingSpanTasks,2022.2.1,Win32,50.16806301,,,,,,,,2.4853,,,,,,,,,,,,,,1,n,1.5147,3.13,0,3.9853,1.5,0,7,7,47,1,0,0,3.13,1,,,,,,,,,,,,,,,,,,,,,,,,,,,,,,,,,,,,,,,,,,,,,,,,,,,,,,,,,,,,,,,,,,,,,,,,,,,,,,,,,,,,,,,,,,,,,,,,,,
,,62d16bca486167475c4954be,2022-09-08_17h32.03.753,CGTgamblingSpanTasks,2022.2.1,Win32,50.16806301,,,,,,,,2.5142,,,,,,,,,,,,,,2,v,1.4858,6.4,0,3.5142,1,0,8,8,26,1,11.2,0,6.4,0,,,,,,,,,,,,,,,,,,,,,,,,,,,,,,,,,,,,,,,,,,,,,,,,,,,,,,,,,,,,,,,,,,,,,,,,,,,,,,,,,,,,,,,,,,,,,,,,,,
,,62d16bca486167475c4954be,2022-09-08_17h32.03.753,CGTgamblingSpanTasks,2022.2.1,Win32,50.16806301,,,,,,,,2.8273,,,,,,,,,,,,,,1,n,1.1727,6.88,0,3.8273,1,0,9,9,36,1,10.24,0,6.88,0,,,,,,,,,,,,,,,,,,,,,,,,,,,,,,,,,,,,,,,,,,,,,,,,,,,,,,,,,,,,,,,,,,,,,,,,,,,,,,,,,,,,,,,,,,,,,,,,,,
,,62d16bca486167475c4954be,2022-09-08_17h32.03.753,CGTgamblingSpanTasks,2022.2.1,Win32,50.16806301,,,,,,,,2.8365,,,,,,,,,,,,,,2,v,1.1635,10.02,0,3.8365,1,0,10,10,31,1,15.96,0,10.02,0,,,,,,,,,,,,,,,,,,,,,,,,,,,,,,,,,,,,,,,,,,,,,,,,,,,,,,,,,,,,,,,,,,,,,,,,,,,,,,,,,,,,,,,,,,,,,,,,,,
,,62d16bca486167475c4954be,2022-09-08_17h32.03.753,CGTgamblingSpanTasks,2022.2.1,Win32,50.16806301,,,,,,,,2.2541,,,,,,,,,,,,,,1,v,1.7459,16.11,1,3.2541,1,0,11,11,43,1,16.11,6.99,6.99,1,,,,,,,,,,,,,,,,,,,,,,,,,,,,,,,,,,,,,,,,,,,,,,,,,,,,,,,,,,,,,,,,,,,,,,,,,,,,,,,,,,,,,,,,,,,,,,,,,,
,,62d16bca486167475c4954be,2022-09-08_17h32.03.753,CGTgamblingSpanTasks,2022.2.1,Win32,50.16806301,,,,,,,,2.1876,,,,,,,,,,,,,,1,n,1.8124,7.73,0,3.6876,1.5,0,12,12,9,1,20.53,0,7.73,0,,,,,,,,,,,,,,,,,,,,,,,,,,,,,,,,,,,,,,,,,,,,,,,,,,,,,,,,,,,,,,,,,,,,,,,,,,,,,,,,,,,,,,,,,,,,,,,,,,
,,62d16bca486167475c4954be,2022-09-08_17h32.03.753,CGTgamblingSpanTasks,2022.2.1,Win32,50.16806301,,,,,,,,2.7349,,,,,,,,,,,,,,2,v,1.2651,6.81,0,4.2349,1.5,0,13,13,34,1,10.39,0,6.81,0,,,,,,,,,,,,,,,,,,,,,,,,,,,,,,,,,,,,,,,,,,,,,,,,,,,,,,,,,,,,,,,,,,,,,,,,,,,,,,,,,,,,,,,,,,,,,,,,,,
,,62d16bca486167475c4954be,2022-09-08_17h32.03.753,CGTgamblingSpanTasks,2022.2.1,Win32,50.16806301,,,,,,,,1.872,,,,,,,,,,,,,,1,n,2.128,5.03,0,2.872,1,0,14,14,8,1,13.94,0,5.03,0,,,,,,,,,,,,,,,,,,,,,,,,,,,,,,,,,,,,,,,,,,,,,,,,,,,,,,,,,,,,,,,,,,,,,,,,,,,,,,,,,,,,,,,,,,,,,,,,,,
,,62d16bca486167475c4954be,2022-09-08_17h32.03.753,CGTgamblingSpanTasks,2022.2.1,Win32,50.16806301,,,,,,,,1.347,,,,,,,,,,,,,,1,v,2.653,0,1,2.847,1.5,0,15,15,4,1,16,0,4,0,,,,,,,,,,,,,,,,,,,,,,,,,,,,,,,,,,,,,,,,,,,,,,,,,,,,,,,,,,,,,,,,,,,,,,,,,,,,,,,,,,,,,,,,,,,,,,,,,,
,,62d16bca486167475c4954be,2022-09-08_17h32.03.753,CGTgamblingSpanTasks,2022.2.1,Win32,50.16806301,,,,,,,,2.9504,,,,,,,,,,,,,,1,n,1.0496,9.2,0,3.9504,1,0,16,16,21,1,17.59,0,9.2,0,,,,,,,,,,,,,,,,,,,,,,,,,,,,,,,,,,,,,,,,,,,,,,,,,,,,,,,,,,,,,,,,,,,,,,,,,,,,,,,,,,,,,,,,,,,,,,,,,,
,,62d16bca486167475c4954be,2022-09-08_17h32.03.753,CGTgamblingSpanTasks,2022.2.1,Win32,50.16806301,,,,,,,,2.6121,,,,,,,,,,,,,,1,n,1.3879,3.13,0,4.1121,1.5,0,17,17,2,1,17.73,0,3.13,0,,,,,,,,,,,,,,,,,,,,,,,,,,,,,,,,,,,,,,,,,,,,,,,,,,,,,,,,,,,,,,,,,,,,,,,,,,,,,,,,,,,,,,,,,,,,,,,,,,
,,62d16bca486167475c4954be,2022-09-08_17h32.03.753,CGTgamblingSpanTasks,2022.2.1,Win32,50.16806301,,,,,,,,3.0438,,,,,,,,,,,,,,1,n,0.9562,8.07,0,4.0438,1,0,18,18,11,1,19.86,0,8.07,0,,,,,,,,,,,,,,,,,,,,,,,,,,,,,,,,,,,,,,,,,,,,,,,,,,,,,,,,,,,,,,,,,,,,,,,,,,,,,,,,,,,,,,,,,,,,,,,,,,
,,62d16bca486167475c4954be,2022-09-08_17h32.03.753,CGTgamblingSpanTasks,2022.2.1,Win32,50.16806301,,,,,,,,2.8044,,,,,,,,,,,,,,2,v,1.1956,10.37,0,4.3044,1.5,0,19,19,37,1,15.27,0,10.37,0,,,,,,,,,,,,,,,,,,,,,,,,,,,,,,,,,,,,,,,,,,,,,,,,,,,,,,,,,,,,,,,,,,,,,,,,,,,,,,,,,,,,,,,,,,,,,,,,,,
,,62d16bca486167475c4954be,2022-09-08_17h32.03.753,CGTgamblingSpanTasks,2022.2.1,Win32,50.16806301,,,,,,,,2.9631,,,,,,,,,,,,,,2,v,1.0369,9.87,0,3.9631,1,0,20,20,29,1,16.26,0,9.87,0,,,,,,,,,,,,,,,,,,,,,,,,,,,,,,,,,,,,,,,,,,,,,,,,,,,,,,,,,,,,,,,,,,,,,,,,,,,,,,,,,,,,,,,,,,,,,,,,,,
,,62d16bca486167475c4954be,2022-09-08_17h32.03.753,CGTgamblingSpanTasks,2022.2.1,Win32,50.16806301,,,,,,,,3.0635,,,,,,,,,,,,,,2,v,0.9365,8.84,0,4.0635,1,0,21,21,17,1,18.33,0,8.84,0,,,,,,,,,,,,,,,,,,,,,,,,,,,,,,,,,,,,,,,,,,,,,,,,,,,,,,,,,,,,,,,,,,,,,,,,,,,,,,,,,,,,,,,,,,,,,,,,,,
,,62d16bca486167475c4954be,2022-09-08_17h32.03.753,CGTgamblingSpanTasks,2022.2.1,Win32,50.16806301,,,,,,,,2.6245,,,,,,,,,,,,,,1,n,1.3755,5.82,0,3.6245,1,0,22,22,16,1,12.36,0,5.82,0,,,,,,,,,,,,,,,,,,,,,,,,,,,,,,,,,,,,,,,,,,,,,,,,,,,,,,,,,,,,,,,,,,,,,,,,,,,,,,,,,,,,,,,,,,,,,,,,,,
,,62d16bca486167475c4954be,2022-09-08_17h32.03.753,CGTgamblingSpanTasks,2022.2.1,Win32,50.16806301,,,,,,,,2.8511,,,,,,,,,,,,,,1,n,1.1489,6.08,0,3.8511,1,0,23,23,20,1,11.84,0,6.08,0,,,,,,,,,,,,,,,,,,,,,,,,,,,,,,,,,,,,,,,,,,,,,,,,,,,,,,,,,,,,,,,,,,,,,,,,,,,,,,,,,,,,,,,,,,,,,,,,,,
,,62d16bca486167475c4954be,2022-09-08_17h32.03.753,CGTgamblingSpanTasks,2022.2.1,Win32,50.16806301,,,,,,,,2.853,,,,,,,,,,,,,,1,v,1.147,0,1,4.353,1.5,0,24,24,33,1,15.7,0,10.15,0,,,,,,,,,,,,,,,,,,,,,,,,,,,,,,,,,,,,,,,,,,,,,,,,,,,,,,,,,,,,,,,,,,,,,,,,,,,,,,,,,,,,,,,,,,,,,,,,,,
,,62d16bca486167475c4954be,2022-09-08_17h32.03.753,CGTgamblingSpanTasks,2022.2.1,Win32,50.16806301,,,,,,,,2.8288,,,,,,,,,,,,,,2,n,1.1712,0,1,3.8288,1,0,25,25,18,1,12.08,0,5.96,0,,,,,,,,,,,,,,,,,,,,,,,,,,,,,,,,,,,,,,,,,,,,,,,,,,,,,,,,,,,,,,,,,,,,,,,,,,,,,,,,,,,,,,,,,,,,,,,,,,
,,62d16bca486167475c4954be,2022-09-08_17h32.03.753,CGTgamblingSpanTasks,2022.2.1,Win32,50.16806301,,,,,,,,2.6831,,,,,,,,,,,,,,2,n,1.3169,15.09,1,3.6831,1,0,26,26,39,1,15.09,0,10.46,0,,,,,,,,,,,,,,,,,,,,,,,,,,,,,,,,,,,,,,,,,,,,,,,,,,,,,,,,,,,,,,,,,,,,,,,,,,,,,,,,,,,,,,,,,,,,,,,,,,
,,62d16bca486167475c4954be,2022-09-08_17h32.03.753,CGTgamblingSpanTasks,2022.2.1,Win32,50.16806301,,,,,,,,2.6405,,,,,,,,,,,,,,1,v,1.3595,14.26,1,4.1405,1.5,0,27,27,41,1,14.26,0,0,1,,,,,,,,,,,,,,,,,,,,,,,,,,,,,,,,,,,,,,,,,,,,,,,,,,,,,,,,,,,,,,,,,,,,,,,,,,,,,,,,,,,,,,,,,,,,,,,,,,
,,62d16bca486167475c4954be,2022-09-08_17h32.03.753,CGTgamblingSpanTasks,2022.2.1,Win32,50.16806301,,,,,,,,2.8158,,,,,,,,,,,,,,2,v,1.1842,9.92,0,3.8158,1,0,28,28,49,1,6.79,0,9.92,1,,,,,,,,,,,,,,,,,,,,,,,,,,,,,,,,,,,,,,,,,,,,,,,,,,,,,,,,,,,,,,,,,,,,,,,,,,,,,,,,,,,,,,,,,,,,,,,,,,
,,62d16bca486167475c4954be,2022-09-08_17h32.03.753,CGTgamblingSpanTasks,2022.2.1,Win32,50.16806301,,,,,,,,2.7246,,,,,,,,,,,,,,1,v,1.2754,0,1,4.2246,1.5,0,29,29,15,1,18.77,0,8.61,0,,,,,,,,,,,,,,,,,,,,,,,,,,,,,,,,,,,,,,,,,,,,,,,,,,,,,,,,,,,,,,,,,,,,,,,,,,,,,,,,,,,,,,,,,,,,,,,,,,
,,62d16bca486167475c4954be,2022-09-08_17h32.03.753,CGTgamblingSpanTasks,2022.2.1,Win32,50.16806301,,,,,,,,2.9121,,,,,,,,,,,,,,2,n,1.0879,0,1,4.4121,1.5,0,30,30,40,1,10.35,0,0,1,,,,,,,,,,,,,,,,,,,,,,,,,,,,,,,,,,,,,,,,,,,,,,,,,,,,,,,,,,,,,,,,,,,,,,,,,,,,,,,,,,,,,,,,,,,,,,,,,,
,,62d16bca486167475c4954be,2022-09-08_17h32.03.753,CGTgamblingSpanTasks,2022.2.1,Win32,50.16806301,,,,,,,,2.8492,,,,,,,,,,,,,,2,v,1.1508,9.5,0,3.8492,1,0,31,31,25,1,17,0,9.5,0,,,,,,,,,,,,,,,,,,,,,,,,,,,,,,,,,,,,,,,,,,,,,,,,,,,,,,,,,,,,,,,,,,,,,,,,,,,,,,,,,,,,,,,,,,,,,,,,,,
,,62d16bca486167475c4954be,2022-09-08_17h32.03.753,CGTgamblingSpanTasks,2022.2.1,Win32,50.16806301,,,,,,,,2.7659,,,,,,,,,,,,,,2,n,1.2341,0,1,4.2659,1.5,0,32,32,5,1,22.97,0,6.51,0,,,,,,,,,,,,,,,,,,,,,,,,,,,,,,,,,,,,,,,,,,,,,,,,,,,,,,,,,,,,,,,,,,,,,,,,,,,,,,,,,,,,,,,,,,,,,,,,,,
,,62d16bca486167475c4954be,2022-09-08_17h32.03.753,CGTgamblingSpanTasks,2022.2.1,Win32,50.16806301,,,,,,,,3.0036,,,,,,,,,,,,,,1,v,0.9964,0,1,4.0036,1,0,33,33,42,1,19.86,0,0,1,,,,,,,,,,,,,,,,,,,,,,,,,,,,,,,,,,,,,,,,,,,,,,,,,,,,,,,,,,,,,,,,,,,,,,,,,,,,,,,,,,,,,,,,,,,,,,,,,,
,,62d16bca486167475c4954be,2022-09-08_17h32.03.753,CGTgamblingSpanTasks,2022.2.1,Win32,50.16806301,,,,,,,,3.0235,,,,,,,,,,,,,,1,n,0.9765,10.68,0,4.5235,1.5,0,34,34,48,1,10.68,0,10.68,1,,,,,,,,,,,,,,,,,,,,,,,,,,,,,,,,,,,,,,,,,,,,,,,,,,,,,,,,,,,,,,,,,,,,,,,,,,,,,,,,,,,,,,,,,,,,,,,,,,
,,62d16bca486167475c4954be,2022-09-08_17h32.03.753,CGTgamblingSpanTasks,2022.2.1,Win32,50.16806301,,,,,,,,3.0554,,,,,,,,,,,,,,2,v,0.9446,9.03,0,4.5554,1.5,0,35,35,19,1,17.94,0,9.03,0,,,,,,,,,,,,,,,,,,,,,,,,,,,,,,,,,,,,,,,,,,,,,,,,,,,,,,,,,,,,,,,,,,,,,,,,,,,,,,,,,,,,,,,,,,,,,,,,,,
,,62d16bca486167475c4954be,2022-09-08_17h32.03.753,CGTgamblingSpanTasks,2022.2.1,Win32,50.16806301,,,,,,,,3.0959,,,,,,,,,,,,,,2,v,0.9041,6.94,0,4.5959,1.5,0,36,36,38,1,10.12,0,6.94,0,,,,,,,,,,,,,,,,,,,,,,,,,,,,,,,,,,,,,,,,,,,,,,,,,,,,,,,,,,,,,,,,,,,,,,,,,,,,,,,,,,,,,,,,,,,,,,,,,,
,,62d16bca486167475c4954be,2022-09-08_17h32.03.753,CGTgamblingSpanTasks,2022.2.1,Win32,50.16806301,,,,,,,,3.1284,,,,,,,,,,,,,,1,v,0.8716,10.55,1,4.1284,1,0,37,37,32,1,10.55,0,6.73,0,,,,,,,,,,,,,,,,,,,,,,,,,,,,,,,,,,,,,,,,,,,,,,,,,,,,,,,,,,,,,,,,,,,,,,,,,,,,,,,,,,,,,,,,,,,,,,,,,,
,,62d16bca486167475c4954be,2022-09-08_17h32.03.753,CGTgamblingSpanTasks,2022.2.1,Win32,50.16806301,,,,,,,,2.7115,,,,,,,,,,,,,,2,v,1.2885,10.25,0,4.2115,1.5,0,38,38,46,1,0,0,10.25,1,,,,,,,,,,,,,,,,,,,,,,,,,,,,,,,,,,,,,,,,,,,,,,,,,,,,,,,,,,,,,,,,,,,,,,,,,,,,,,,,,,,,,,,,,,,,,,,,,,
,,62d16bca486167475c4954be,2022-09-08_17h32.03.753,CGTgamblingSpanTasks,2022.2.1,Win32,50.16806301,,,,,,,,2.8728,,,,,,,,,,,,,,2,v,1.1272,5.48,0,4.3728,1.5,0,39,39,12,1,13.04,0,5.48,0,,,,,,,,,,,,,,,,,,,,,,,,,,,,,,,,,,,,,,,,,,,,,,,,,,,,,,,,,,,,,,,,,,,,,,,,,,,,,,,,,,,,,,,,,,,,,,,,,,
,,62d16bca486167475c4954be,2022-09-08_17h32.03.753,CGTgamblingSpanTasks,2022.2.1,Win32,50.16806301,,,,,,,,2.9724,,,,,,,,,,,,,,1,n,1.0276,4.64,0,4.4724,1.5,0,40,40,6,1,14.72,0,4.64,0,,,,,,,,,,,,,,,,,,,,,,,,,,,,,,,,,,,,,,,,,,,,,,,,,,,,,,,,,,,,,,,,,,,,,,,,,,,,,,,,,,,,,,,,,,,,,,,,,,
,,62d16bca486167475c4954be,2022-09-08_17h32.03.753,CGTgamblingSpanTasks,2022.2.1,Win32,50.16806301,,,,,,,,3.0446,,,,,,,,,,,,,,1,n,0.9554,6.29,0,4.0446,1,0,41,41,24,1,11.43,0,6.29,0,,,,,,,,,,,,,,,,,,,,,,,,,,,,,,,,,,,,,,,,,,,,,,,,,,,,,,,,,,,,,,,,,,,,,,,,,,,,,,,,,,,,,,,,,,,,,,,,,,
,,62d16bca486167475c4954be,2022-09-08_17h32.03.753,CGTgamblingSpanTasks,2022.2.1,Win32,50.16806301,,,,,,,,3.0327,,,,,,,,,,,,,,2,v,0.9673,9.7,0,4.0327,1,0,42,42,27,1,16.6,0,9.7,0,,,,,,,,,,,,,,,,,,,,,,,,,,,,,,,,,,,,,,,,,,,,,,,,,,,,,,,,,,,,,,,,,,,,,,,,,,,,,,,,,,,,,,,,,,,,,,,,,,
,,62d16bca486167475c4954be,2022-09-08_17h32.03.753,CGTgamblingSpanTasks,2022.2.1,Win32,50.16806301,,,,,,,,3.1062,,,,,,,,,,,,,,1,n,0.8938,6.53,0,4.6062,1.5,0,43,43,28,1,10.95,0,6.53,0,,,,,,,,,,,,,,,,,,,,,,,,,,,,,,,,,,,,,,,,,,,,,,,,,,,,,,,,,,,,,,,,,,,,,,,,,,,,,,,,,,,,,,,,,,,,,,,,,,
,,62d16bca486167475c4954be,2022-09-08_17h32.03.753,CGTgamblingSpanTasks,2022.2.1,Win32,50.16806301,,,,,,,,3.0349,,,,,,,,,,,,,,1,n,0.9651,5.27,0,4.5349,1.5,0,44,44,10,1,13.45,0,5.27,0,,,,,,,,,,,,,,,,,,,,,,,,,,,,,,,,,,,,,,,,,,,,,,,,,,,,,,,,,,,,,,,,,,,,,,,,,,,,,,,,,,,,,,,,,,,,,,,,,,
,,62d16bca486167475c4954be,2022-09-08_17h32.03.753,CGTgamblingSpanTasks,2022.2.1,Win32,50.16806301,,,,,,,,2.8971,,,,,,,,,,,,,,1,n,1.1029,7.55,0,4.3971,1.5,0,45,45,45,1,0,0,7.55,1,,,,,,,,,,,,,,,,,,,,,,,,,,,,,,,,,,,,,,,,,,,,,,,,,,,,,,,,,,,,,,,,,,,,,,,,,,,,,,,,,,,,,,,,,,,,,,,,,,
,,62d16bca486167475c4954be,2022-09-08_17h32.03.753,CGTgamblingSpanTasks,2022.2.1,Win32,50.16806301,,,,,,,,3.0185,,,,,,,,,,,,,,1,n,0.9815,6.19,0,4.5185,1.5,0,46,46,22,1,11.62,0,6.19,0,,,,,,,,,,,,,,,,,,,,,,,,,,,,,,,,,,,,,,,,,,,,,,,,,,,,,,,,,,,,,,,,,,,,,,,,,,,,,,,,,,,,,,,,,,,,,,,,,,
,,62d16bca486167475c4954be,2022-09-08_17h32.03.753,CGTgamblingSpanTasks,2022.2.1,Win32,50.16806301,,,,,,,,2.5371,,,,,,,,,,,,,,2,n,1.4629,25.2,1,3.5371,1,0,47,47,3,1,25.2,0,5.4,0,,,,,,,,,,,,,,,,,,,,,,,,,,,,,,,,,,,,,,,,,,,,,,,,,,,,,,,,,,,,,,,,,,,,,,,,,,,,,,,,,,,,,,,,,,,,,,,,,,
,,62d16bca486167475c4954be,2022-09-08_17h32.03.753,CGTgamblingSpanTasks,2022.2.1,Win32,50.16806301,,,,,,,,2.6068,,,,,,,,,,,,,,2,v,1.3932,8.36,0,4.1068,1.5,0,48,48,13,1,19.28,0,8.36,0,,,,,,,,,,,,,,,,,,,,,,,,,,,,,,,,,,,,,,,,,,,,,,,,,,,,,,,,,,,,,,,,,,,,,,,,,,,,,,,,,,,,,,,,,,,,,,,,,,
,,62d16bca486167475c4954be,2022-09-08_17h32.03.753,CGTgamblingSpanTasks,2022.2.1,Win32,50.16806301,,,,,,,,2.3563,,,,,,,,,,,,,,1,v,1.6437,28.21,1,3.3563,1,0,49,49,1,1,28.21,0,3.89,0,,,,,,,,,,,,,,,,,,,,,,,,,,,,,,,,,,,,,,,,,,,,,,,,,,,,,,,,,,,,,,,,,,,,,,,,,,,,,,,,,,,,,,,,,,,,,,,,,,
,,62d16bca486167475c4954be,2022-09-08_17h32.03.753,CGTgamblingSpanTasks,2022.2.1,Win32,50.16806301,,,,,,,,,,,,,,,,,,,,,,,,,,,,,,,,,,,,,,bespoke_choiceset_rhoInd013_muInd004.csv,bespoke_choicesets/bespoke_choiceset_rhoInd013_muInd004.csv,13,4,0,0,0,0,1,,,,,,,,,,,,,,,,,,,,,,,,,,,,,,,,,,,,,,,,,,,,,,,,,,,,,,,,,,,,,,,,,,,,,,,,,,,,,,,,,,,,,,,,,
,,62d16bca486167475c4954be,2022-09-08_17h32.03.753,CGTgamblingSpanTasks,2022.2.1,Win32,50.16806301,,,,,,,,,,,,,,,,,,,,,,,,,,,,,,,,,,,,,,,,,,,,,,,,,,,,,,,,,,,,,,,,,,,,,,,,,,,,,,,,,,,,,,,,,,,,,,,,,,,,,,,,,,,,,,,,,,,,,,,,,,,,,,,,,,,,,,,
,,62d16bca486167475c4954be,2022-09-08_17h32.03.753,CGTgamblingSpanTasks,2022.2.1,Win32,50.16806301,,,,,,,,,,,,,,,,,,,,,,,,,,,,,,,,,,,,,,,,,,,,,,,v,35.6662,,,,,,,,,,,,,,,,,,,,,,,,,,,,,,,,,,,,,,,,,,,,,,,,,,,,,,,,,,,,,,,,,,,,,,,,,,,,,,,,,,,,,,,
,,62d16bca486167475c4954be,2022-09-08_17h32.03.753,CGTgamblingSpanTasks,2022.2.1,Win32,50.16806301,,,,,,,,2.3461,,,,,,,,,,,,,,1,v,1.6539,0,1,3.8461,1.5,,,,,,17.30137174,0,1.716380842,,,,,,,,,,,,,0,0,0,20,1,0.500020285,1,,,,,,,,,,,,,,,,,,,,,,,,,,,,,,,,,,,,,,,,,,,,,,,,,,,,,,,,,,,,,,,,,,,,,,,,,,,,,,,,
,,62d16bca486167475c4954be,2022-09-08_17h32.03.753,CGTgamblingSpanTasks,2022.2.1,Win32,50.16806301,,,,,,,,2.7935,,,,,,,,,,,,,,2,v,1.2065,8.653432553,0,4.2935,1.5,,,,,,15.13999312,0,8.653432553,,,,,,,,,,,,,0,1,1,54,1,0.081767484,0,,,,,,,,,,,,,,,,,,,,,,,,,,,,,,,,,,,,,,,,,,,,,,,,,,,,,,,,,,,,,,,,,,,,,,,,,,,,,,,,
,,62d16bca486167475c4954be,2022-09-08_17h32.03.753,CGTgamblingSpanTasks,2022.2.1,Win32,50.16806301,,,,,,,,3.0096,,,,,,,,,,,,,,2,n,0.9904,0,1,4.0096,1,,,,,,23.59556381,0,2.464662219,,,,,,,,,,,,,0,2,2,22,1,0.486383205,1,,,,,,,,,,,,,,,,,,,,,,,,,,,,,,,,,,,,,,,,,,,,,,,,,,,,,,,,,,,,,,,,,,,,,,,,,,,,,,,,
,,62d16bca486167475c4954be,2022-09-08_17h32.03.753,CGTgamblingSpanTasks,2022.2.1,Win32,50.16806301,,,,,,,,2.5337,,,,,,,,,,,,,,2,v,1.4663,7.50753835,0,3.5337,1,,,,,,2.231316635,0,7.50753835,,,,,,,,,,,,,0,3,3,29,1,0.010273427,0,,,,,,,,,,,,,,,,,,,,,,,,,,,,,,,,,,,,,,,,,,,,,,,,,,,,,,,,,,,,,,,,,,,,,,,,,,,,,,,,
,,62d16bca486167475c4954be,2022-09-08_17h32.03.753,CGTgamblingSpanTasks,2022.2.1,Win32,50.16806301,,,,,,,,2.8679,,,,,,,,,,,,,,1,v,1.1321,26.11188619,1,3.8679,1,,,,,,26.11188619,0,0.081942421,,,,,,,,,,,,,0,4,4,105,1,0.905343856,0,,,,,,,,,,,,,,,,,,,,,,,,,,,,,,,,,,,,,,,,,,,,,,,,,,,,,,,,,,,,,,,,,,,,,,,,,,,,,,,,
,,62d16bca486167475c4954be,2022-09-08_17h32.03.753,CGTgamblingSpanTasks,2022.2.1,Win32,50.16806301,,,,,,,,2.8443,,,,,,,,,,,,,,1,v,1.1557,14.3363647,1,3.8443,1,,,,,,14.3363647,0,1.396635362,,,,,,,,,,,,,0,5,5,78,1,0.504775474,1,,,,,,,,,,,,,,,,,,,,,,,,,,,,,,,,,,,,,,,,,,,,,,,,,,,,,,,,,,,,,,,,,,,,,,,,,,,,,,,,
,,62d16bca486167475c4954be,2022-09-08_17h32.03.753,CGTgamblingSpanTasks,2022.2.1,Win32,50.16806301,,,,,,,,2.9836,,,,,,,,,,,,,,2,n,1.0164,0,1,3.9836,1,,,,,,28.94627214,0,2.701896413,,,,,,,,,,,,,0,6,6,111,1,0.515860759,1,,,,,,,,,,,,,,,,,,,,,,,,,,,,,,,,,,,,,,,,,,,,,,,,,,,,,,,,,,,,,,,,,,,,,,,,,,,,,,,,
,,62d16bca486167475c4954be,2022-09-08_17h32.03.753,CGTgamblingSpanTasks,2022.2.1,Win32,50.16806301,,,,,,,,2.1558,,,,,,,,,,,,,,1,v,1.8442,23.24777057,1,3.6558,1.5,,,,,,23.24777057,0,2.003482335,,,,,,,,,,,,,0,7,7,59,1,0.536135174,1,,,,,,,,,,,,,,,,,,,,,,,,,,,,,,,,,,,,,,,,,,,,,,,,,,,,,,,,,,,,,,,,,,,,,,,,,,,,,,,,
,,62d16bca486167475c4954be,2022-09-08_17h32.03.753,CGTgamblingSpanTasks,2022.2.1,Win32,50.16806301,,,,,,,,2.0256,,,,,,,,,,,,,,1,n,1.9744,2.387726776,0,3.0256,1,,,,,,23.0613391,0,2.387726776,,,,,,,,,,,,,0,8,8,69,1,0.488727763,1,,,,,,,,,,,,,,,,,,,,,,,,,,,,,,,,,,,,,,,,,,,,,,,,,,,,,,,,,,,,,,,,,,,,,,,,,,,,,,,,
,,62d16bca486167475c4954be,2022-09-08_17h32.03.753,CGTgamblingSpanTasks,2022.2.1,Win32,50.16806301,,,,,,,,1.4906,,,,,,,,,,,,,,2,v,2.5094,10.68505773,0,2.4906,1,,,,,,17.64114152,0,10.68505773,,,,,,,,,,,,,0,9,9,98,1,0.074299362,0,,,,,,,,,,,,,,,,,,,,,,,,,,,,,,,,,,,,,,,,,,,,,,,,,,,,,,,,,,,,,,,,,,,,,,,,,,,,,,,,
,,62d16bca486167475c4954be,2022-09-08_17h32.03.753,CGTgamblingSpanTasks,2022.2.1,Win32,50.16806301,,,,,,,,3.1575,,,,,,,,,,,,,,2,v,0.8425,7.646213173,0,4.1575,1,,,,,,2.042350179,0,7.646213173,,,,,,,,,,,,,0,10,10,53,1,0.009522273,0,,,,,,,,,,,,,,,,,,,,,,,,,,,,,,,,,,,,,,,,,,,,,,,,,,,,,,,,,,,,,,,,,,,,,,,,,,,,,,,,
,,62d16bca486167475c4954be,2022-09-08_17h32.03.753,CGTgamblingSpanTasks,2022.2.1,Win32,50.16806301,,,,,,,,3.0525,,,,,,,,,,,,,,2,n,0.9475,0,1,4.5525,1.5,,,,,,29.76099779,0,0.095763086,,,,,,,,,,,,,0,11,11,35,1,0.904537896,0,,,,,,,,,,,,,,,,,,,,,,,,,,,,,,,,,,,,,,,,,,,,,,,,,,,,,,,,,,,,,,,,,,,,,,,,,,,,,,,,
,,62d16bca486167475c4954be,2022-09-08_17h32.03.753,CGTgamblingSpanTasks,2022.2.1,Win32,50.16806301,,,,,,,,2.0893,,,,,,,,,,,,,,1,n,1.9107,11.42134125,0,3.5893,1.5,,,,,,12.9904115,0,11.42134125,,,,,,,,,,,,,0,12,12,118,1,0.037876033,0,,,,,,,,,,,,,,,,,,,,,,,,,,,,,,,,,,,,,,,,,,,,,,,,,,,,,,,,,,,,,,,,,,,,,,,,,,,,,,,,
,,62d16bca486167475c4954be,2022-09-08_17h32.03.753,CGTgamblingSpanTasks,2022.2.1,Win32,50.16806301,,,,,,,,2.8625,,,,,,,,,,,,,,2,n,1.1375,28.33977875,1,4.3625,1.5,,,,,,28.33977875,0,2.768313633,,,,,,,,,,,,,0,13,13,116,1,0.50406901,1,,,,,,,,,,,,,,,,,,,,,,,,,,,,,,,,,,,,,,,,,,,,,,,,,,,,,,,,,,,,,,,,,,,,,,,,,,,,,,,,
,,62d16bca486167475c4954be,2022-09-08_17h32.03.753,CGTgamblingSpanTasks,2022.2.1,Win32,50.16806301,,,,,,,,2.8286,,,,,,,,,,,,,,1,v,1.1714,25.0707644,1,4.3286,1.5,,,,,,25.0707644,0,0.067651625,,,,,,,,,,,,,0,14,14,70,1,0.909952349,0,,,,,,,,,,,,,,,,,,,,,,,,,,,,,,,,,,,,,,,,,,,,,,,,,,,,,,,,,,,,,,,,,,,,,,,,,,,,,,,,
,,62d16bca486167475c4954be,2022-09-08_17h32.03.753,CGTgamblingSpanTasks,2022.2.1,Win32,50.16806301,,,,,,,,2.9038,,,,,,,,,,,,,,2,n,1.0962,0,1,4.4038,1.5,,,,,,27.53810185,0,0.097022401,,,,,,,,,,,,,0,15,15,50,1,0.901515865,0,,,,,,,,,,,,,,,,,,,,,,,,,,,,,,,,,,,,,,,,,,,,,,,,,,,,,,,,,,,,,,,,,,,,,,,,,,,,,,,,
,,62d16bca486167475c4954be,2022-09-08_17h32.03.753,CGTgamblingSpanTasks,2022.2.1,Win32,50.16806301,,,,,,,,2.5645,,,,,,,,,,,,,,1,n,1.4355,6.091504705,0,3.5645,1,,,,,,6.662965216,0,6.091504705,,,,,,,,,,,,,0,16,16,102,1,0.035087099,0,,,,,,,,,,,,,,,,,,,,,,,,,,,,,,,,,,,,,,,,,,,,,,,,,,,,,,,,,,,,,,,,,,,,,,,,,,,,,,,,
,,62d16bca486167475c4954be,2022-09-08_17h32.03.753,CGTgamblingSpanTasks,2022.2.1,Win32,50.16806301,,,,,,,,2.4843,,,,,,,,,,,,,,2,n,1.5157,28.18900855,1,3.4843,1,,,,,,28.18900855,0,0.05384276,,,,,,,,,,,,,0,17,17,55,1,0.919081308,0,,,,,,,,,,,,,,,,,,,,,,,,,,,,,,,,,,,,,,,,,,,,,,,,,,,,,,,,,,,,,,,,,,,,,,,,,,,,,,,,
,,62d16bca486167475c4954be,2022-09-08_17h32.03.753,CGTgamblingSpanTasks,2022.2.1,Win32,50.16806301,,,,,,,,2.4248,,,,,,,,,,,,,,1,v,1.5752,24.35708027,1,3.9248,1.5,,,,,,24.35708027,0,2.738695417,,,,,,,,,,,,,0,18,18,114,1,0.466573634,1,,,,,,,,,,,,,,,,,,,,,,,,,,,,,,,,,,,,,,,,,,,,,,,,,,,,,,,,,,,,,,,,,,,,,,,,,,,,,,,,
,,62d16bca486167475c4954be,2022-09-08_17h32.03.753,CGTgamblingSpanTasks,2022.2.1,Win32,50.16806301,,,,,,,,2.9382,,,,,,,,,,,,,,1,n,1.0618,5.683635938,0,4.4382,1.5,,,,,,4.941039335,0,5.683635938,,,,,,,,,,,,,0,19,19,9,1,0.025481984,0,,,,,,,,,,,,,,,,,,,,,,,,,,,,,,,,,,,,,,,,,,,,,,,,,,,,,,,,,,,,,,,,,,,,,,,,,,,,,,,,
,,62d16bca486167475c4954be,2022-09-08_17h32.03.753,CGTgamblingSpanTasks,2022.2.1,Win32,50.16806301,,,,,,,,3.0712,,,,,,,,,,,,,,2,v,0.9288,6.833409611,0,4.0712,1,,,,,,6.325091157,0,6.833409611,,,,,,,,,,,,,0,20,20,58,1,0.027113638,0,,,,,,,,,,,,,,,,,,,,,,,,,,,,,,,,,,,,,,,,,,,,,,,,,,,,,,,,,,,,,,,,,,,,,,,,,,,,,,,,
,,62d16bca486167475c4954be,2022-09-08_17h32.03.753,CGTgamblingSpanTasks,2022.2.1,Win32,50.16806301,,,,,,,,2.7044,,,,,,,,,,,,,,2,n,1.2956,17.85020524,1,4.2044,1.5,,,,,,17.85020524,0,2.058701084,,,,,,,,,,,,,0,21,21,25,1,0.459662216,1,,,,,,,,,,,,,,,,,,,,,,,,,,,,,,,,,,,,,,,,,,,,,,,,,,,,,,,,,,,,,,,,,,,,,,,,,,,,,,,,
,,62d16bca486167475c4954be,2022-09-08_17h32.03.753,CGTgamblingSpanTasks,2022.2.1,Win32,50.16806301,,,,,,,,2.9933,,,,,,,,,,,,,,2,n,1.0067,19.36415485,1,3.9933,1,,,,,,19.36415485,0,1.966229494,,,,,,,,,,,,,0,22,22,96,1,0.493893111,1,,,,,,,,,,,,,,,,,,,,,,,,,,,,,,,,,,,,,,,,,,,,,,,,,,,,,,,,,,,,,,,,,,,,,,,,,,,,,,,,
,,62d16bca486167475c4954be,2022-09-08_17h32.03.753,CGTgamblingSpanTasks,2022.2.1,Win32,50.16806301,,,,,,,,2.8728,,,,,,,,,,,,,,1,v,1.1272,0,1,3.8728,1,,,,,,28.9381277,0,2.663622024,,,,,,,,,,,,,0,23,23,103,1,0.519453367,1,,,,,,,,,,,,,,,,,,,,,,,,,,,,,,,,,,,,,,,,,,,,,,,,,,,,,,,,,,,,,,,,,,,,,,,,,,,,,,,,
,,62d16bca486167475c4954be,2022-09-08_17h32.03.753,CGTgamblingSpanTasks,2022.2.1,Win32,50.16806301,,,,,,,,2.9041,,,,,,,,,,,,,,1,n,1.0959,11.35147481,0,3.9041,1,,,,,,17.67865084,0,11.35147481,,,,,,,,,,,,,0,24,24,91,1,0.067304606,0,,,,,,,,,,,,,,,,,,,,,,,,,,,,,,,,,,,,,,,,,,,,,,,,,,,,,,,,,,,,,,,,,,,,,,,,,,,,,,,,
,,62d16bca486167475c4954be,2022-09-08_17h32.03.753,CGTgamblingSpanTasks,2022.2.1,Win32,50.16806301,,,,,,,,1.8059,,,,,,,,,,,,,,1,v,2.1941,27.39221343,1,2.8059,1,,,,,,27.39221343,0,2.743407746,,,,,,,,,,,,,0,25,25,47,1,0.49752044,1,,,,,,,,,,,,,,,,,,,,,,,,,,,,,,,,,,,,,,,,,,,,,,,,,,,,,,,,,,,,,,,,,,,,,,,,,,,,,,,,
,,62d16bca486167475c4954be,2022-09-08_17h32.03.753,CGTgamblingSpanTasks,2022.2.1,Win32,50.16806301,,,,,,,,2.4647,,,,,,,,,,,,,,1,v,1.5353,24.66627941,1,3.4647,1,,,,,,24.66627941,0,2.765426402,,,,,,,,,,,,,0,26,26,24,1,0.467360588,1,,,,,,,,,,,,,,,,,,,,,,,,,,,,,,,,,,,,,,,,,,,,,,,,,,,,,,,,,,,,,,,,,,,,,,,,,,,,,,,,
,,62d16bca486167475c4954be,2022-09-08_17h32.03.753,CGTgamblingSpanTasks,2022.2.1,Win32,50.16806301,,,,,,,,2.7361,,,,,,,,,,,,,,1,v,1.2639,0,1,3.7361,1,,,,,,21.2188881,0,2.067660742,,,,,,,,,,,,,0,27,27,107,1,0.50470775,1,,,,,,,,,,,,,,,,,,,,,,,,,,,,,,,,,,,,,,,,,,,,,,,,,,,,,,,,,,,,,,,,,,,,,,,,,,,,,,,,
,,62d16bca486167475c4954be,2022-09-08_17h32.03.753,CGTgamblingSpanTasks,2022.2.1,Win32,50.16806301,,,,,,,,2.4047,,,,,,,,,,,,,,1,v,1.5953,0,1,3.9047,1.5,,,,,,27.60724521,0,0.088432325,,,,,,,,,,,,,0,28,28,17,1,0.904684186,0,,,,,,,,,,,,,,,,,,,,,,,,,,,,,,,,,,,,,,,,,,,,,,,,,,,,,,,,,,,,,,,,,,,,,,,,,,,,,,,,
,,62d16bca486167475c4954be,2022-09-08_17h32.03.753,CGTgamblingSpanTasks,2022.2.1,Win32,50.16806301,,,,,,,,2.7806,,,,,,,,,,,,,,1,v,1.2194,25.26994993,1,4.2806,1.5,,,,,,25.26994993,0,2.78925142,,,,,,,,,,,,,0,29,29,108,1,0.471582922,1,,,,,,,,,,,,,,,,,,,,,,,,,,,,,,,,,,,,,,,,,,,,,,,,,,,,,,,,,,,,,,,,,,,,,,,,,,,,,,,,
,,62d16bca486167475c4954be,2022-09-08_17h32.03.753,CGTgamblingSpanTasks,2022.2.1,Win32,50.16806301,,,,,,,,2.8837,,,,,,,,,,,,,,2,v,1.1163,5.526483034,0,3.8837,1,,,,,,9.725876653,0,5.526483034,,,,,,,,,,,,,0,30,30,44,1,0.082550696,0,,,,,,,,,,,,,,,,,,,,,,,,,,,,,,,,,,,,,,,,,,,,,,,,,,,,,,,,,,,,,,,,,,,,,,,,,,,,,,,,
,,62d16bca486167475c4954be,2022-09-08_17h32.03.753,CGTgamblingSpanTasks,2022.2.1,Win32,50.16806301,,,,,,,,2.7844,,,,,,,,,,,,,,1,v,1.2156,0,1,4.2844,1.5,,,,,,8.217594828,0,0.951019374,,,,,,,,,,,,,0,31,31,87,1,0.458722936,1,,,,,,,,,,,,,,,,,,,,,,,,,,,,,,,,,,,,,,,,,,,,,,,,,,,,,,,,,,,,,,,,,,,,,,,,,,,,,,,,
,,62d16bca486167475c4954be,2022-09-08_17h32.03.753,CGTgamblingSpanTasks,2022.2.1,Win32,50.16806301,,,,,,,,2.9538,,,,,,,,,,,,,,2,n,1.0462,20.31034258,1,3.9538,1,,,,,,20.31034258,0,1.870404296,,,,,,,,,,,,,0,32,32,85,1,0.519325853,1,,,,,,,,,,,,,,,,,,,,,,,,,,,,,,,,,,,,,,,,,,,,,,,,,,,,,,,,,,,,,,,,,,,,,,,,,,,,,,,,
,,62d16bca486167475c4954be,2022-09-08_17h32.03.753,CGTgamblingSpanTasks,2022.2.1,Win32,50.16806301,,,,,,,,2.9985,,,,,,,,,,,,,,2,n,1.0015,21.48443242,1,4.4985,1.5,,,,,,21.48443242,0,2.229247341,,,,,,,,,,,,,0,33,33,63,1,0.488155912,1,,,,,,,,,,,,,,,,,,,,,,,,,,,,,,,,,,,,,,,,,,,,,,,,,,,,,,,,,,,,,,,,,,,,,,,,,,,,,,,,
,,62d16bca486167475c4954be,2022-09-08_17h32.03.753,CGTgamblingSpanTasks,2022.2.1,Win32,50.16806301,,,,,,,,2.8334,,,,,,,,,,,,,,1,v,1.1666,21.7711579,1,4.3334,1.5,,,,,,21.7711579,0,2.502728921,,,,,,,,,,,,,0,34,34,101,1,0.460552621,1,,,,,,,,,,,,,,,,,,,,,,,,,,,,,,,,,,,,,,,,,,,,,,,,,,,,,,,,,,,,,,,,,,,,,,,,,,,,,,,,
,,62d16bca486167475c4954be,2022-09-08_17h32.03.753,CGTgamblingSpanTasks,2022.2.1,Win32,50.16806301,,,,,,,,2.8257,,,,,,,,,,,,,,2,n,1.1743,18.50662664,1,3.8257,1,,,,,,18.50662664,0,0.052546026,,,,,,,,,,,,,0,35,35,112,1,0.908444837,0,,,,,,,,,,,,,,,,,,,,,,,,,,,,,,,,,,,,,,,,,,,,,,,,,,,,,,,,,,,,,,,,,,,,,,,,,,,,,,,,
,,62d16bca486167475c4954be,2022-09-08_17h32.03.753,CGTgamblingSpanTasks,2022.2.1,Win32,50.16806301,,,,,,,,2.9241,,,,,,,,,,,,,,2,n,1.0759,27.7711693,1,4.4241,1.5,,,,,,27.7711693,0,2.320849632,,,,,,,,,,,,,0,36,36,94,1,0.543786368,1,,,,,,,,,,,,,,,,,,,,,,,,,,,,,,,,,,,,,,,,,,,,,,,,,,,,,,,,,,,,,,,,,,,,,,,,,,,,,,,,
,,62d16bca486167475c4954be,2022-09-08_17h32.03.753,CGTgamblingSpanTasks,2022.2.1,Win32,50.16806301,,,,,,,,2.6847,,,,,,,,,,,,,,1,n,1.3153,11.61882862,0,3.6847,1,,,,,,4.022743614,0,11.61882862,,,,,,,,,,,,,0,37,37,38,1,0.011499376,0,,,,,,,,,,,,,,,,,,,,,,,,,,,,,,,,,,,,,,,,,,,,,,,,,,,,,,,,,,,,,,,,,,,,,,,,,,,,,,,,
,,62d16bca486167475c4954be,2022-09-08_17h32.03.753,CGTgamblingSpanTasks,2022.2.1,Win32,50.16806301,,,,,,,,2.831,,,,,,,,,,,,,,1,v,1.169,25.76582409,1,3.831,1,,,,,,25.76582409,0,2.393193076,,,,,,,,,,,,,0,38,38,46,1,0.517129855,1,,,,,,,,,,,,,,,,,,,,,,,,,,,,,,,,,,,,,,,,,,,,,,,,,,,,,,,,,,,,,,,,,,,,,,,,,,,,,,,,
,,62d16bca486167475c4954be,2022-09-08_17h32.03.753,CGTgamblingSpanTasks,2022.2.1,Win32,50.16806301,,,,,,,,2.9174,,,,,,,,,,,,,,1,v,1.0826,0,1,3.9174,1,,,,,,17.92584289,0,1.878232496,,,,,,,,,,,,,0,39,39,5,1,0.485559263,1,,,,,,,,,,,,,,,,,,,,,,,,,,,,,,,,,,,,,,,,,,,,,,,,,,,,,,,,,,,,,,,,,,,,,,,,,,,,,,,,
,,62d16bca486167475c4954be,2022-09-08_17h32.03.753,CGTgamblingSpanTasks,2022.2.1,Win32,50.16806301,,,,,,,,3.0557,,,,,,,,,,,,,,2,n,0.9443,29.75778644,1,4.5557,1.5,,,,,,29.75778644,0,2.810531415,,,,,,,,,,,,,0,40,40,113,1,0.512824233,1,,,,,,,,,,,,,,,,,,,,,,,,,,,,,,,,,,,,,,,,,,,,,,,,,,,,,,,,,,,,,,,,,,,,,,,,,,,,,,,,
,,62d16bca486167475c4954be,2022-09-08_17h32.03.753,CGTgamblingSpanTasks,2022.2.1,Win32,50.16806301,,,,,,,,2.9869,,,,,,,,,,,,,,2,n,1.0131,21.00799273,1,4.4869,1.5,,,,,,21.00799273,0,0.067969053,,,,,,,,,,,,,0,41,41,92,1,0.904360262,0,,,,,,,,,,,,,,,,,,,,,,,,,,,,,,,,,,,,,,,,,,,,,,,,,,,,,,,,,,,,,,,,,,,,,,,,,,,,,,,,
,,62d16bca486167475c4954be,2022-09-08_17h32.03.753,CGTgamblingSpanTasks,2022.2.1,Win32,50.16806301,,,,,,,,2.704,,,,,,,,,,,,,,1,v,1.296,7.066129113,1,3.704,1,,,,,,7.066129113,0,0.585581699,,,,,,,,,,,,,0,42,42,19,1,0.545860632,1,,,,,,,,,,,,,,,,,,,,,,,,,,,,,,,,,,,,,,,,,,,,,,,,,,,,,,,,,,,,,,,,,,,,,,,,,,,,,,,,
,,62d16bca486167475c4954be,2022-09-08_17h32.03.753,CGTgamblingSpanTasks,2022.2.1,Win32,50.16806301,,,,,,,,2.2653,,,,,,,,,,,,,,2,n,1.7347,22.62475578,1,3.7653,1.5,,,,,,22.62475578,0,2.397643354,,,,,,,,,,,,,0,43,43,93,1,0.482527609,1,,,,,,,,,,,,,,,,,,,,,,,,,,,,,,,,,,,,,,,,,,,,,,,,,,,,,,,,,,,,,,,,,,,,,,,,,,,,,,,,
,,62d16bca486167475c4954be,2022-09-08_17h32.03.753,CGTgamblingSpanTasks,2022.2.1,Win32,50.16806301,,,,,,,,2.536,,,,,,,,,,,,,,1,v,1.464,0,1,4.036,1.5,,,,,,21.17800335,0,0.059830985,,,,,,,,,,,,,0,44,44,67,1,0.908594974,0,,,,,,,,,,,,,,,,,,,,,,,,,,,,,,,,,,,,,,,,,,,,,,,,,,,,,,,,,,,,,,,,,,,,,,,,,,,,,,,,
,,62d16bca486167475c4954be,2022-09-08_17h32.03.753,CGTgamblingSpanTasks,2022.2.1,Win32,50.16806301,,,,,,,,3.0472,,,,,,,,,,,,,,1,v,0.9528,0,1,4.5472,1.5,,,,,,24.479109,0,0.089582697,,,,,,,,,,,,,0,45,45,89,1,0.900200232,0,,,,,,,,,,,,,,,,,,,,,,,,,,,,,,,,,,,,,,,,,,,,,,,,,,,,,,,,,,,,,,,,,,,,,,,,,,,,,,,,
,,62d16bca486167475c4954be,2022-09-08_17h32.03.753,CGTgamblingSpanTasks,2022.2.1,Win32,50.16806301,,,,,,,,2.9284,,,,,,,,,,,,,,2,n,1.0716,27.88092897,1,3.9284,1,,,,,,27.88092897,0,2.771762788,,,,,,,,,,,,,0,46,46,117,1,0.499466648,1,,,,,,,,,,,,,,,,,,,,,,,,,,,,,,,,,,,,,,,,,,,,,,,,,,,,,,,,,,,,,,,,,,,,,,,,,,,,,,,,
,,62d16bca486167475c4954be,2022-09-08_17h32.03.753,CGTgamblingSpanTasks,2022.2.1,Win32,50.16806301,,,,,,,,2.9075,,,,,,,,,,,,,,1,n,1.0925,8.42547829,0,4.4075,1.5,,,,,,15.87668502,0,8.42547829,,,,,,,,,,,,,0,47,47,56,1,0.092099462,0,,,,,,,,,,,,,,,,,,,,,,,,,,,,,,,,,,,,,,,,,,,,,,,,,,,,,,,,,,,,,,,,,,,,,,,,,,,,,,,,
,,62d16bca486167475c4954be,2022-09-08_17h32.03.753,CGTgamblingSpanTasks,2022.2.1,Win32,50.16806301,,,,,,,,2.6644,,,,,,,,,,,,,,1,n,1.3356,10.41201161,0,3.6644,1,,,,,,6.307062696,0,10.41201161,,,,,,,,,,,,,0,48,48,23,1,0.018187109,0,,,,,,,,,,,,,,,,,,,,,,,,,,,,,,,,,,,,,,,,,,,,,,,,,,,,,,,,,,,,,,,,,,,,,,,,,,,,,,,,
,,62d16bca486167475c4954be,2022-09-08_17h32.03.753,CGTgamblingSpanTasks,2022.2.1,Win32,50.16806301,,,,,,,,2.844,,,,,,,,,,,,,,1,v,1.156,0,1,3.844,1,,,,,,21.16780451,0,2.469465385,,,,,,,,,,,,,0,49,49,32,1,0.456531699,1,,,,,,,,,,,,,,,,,,,,,,,,,,,,,,,,,,,,,,,,,,,,,,,,,,,,,,,,,,,,,,,,,,,,,,,,,,,,,,,,
,,62d16bca486167475c4954be,2022-09-08_17h32.03.753,CGTgamblingSpanTasks,2022.2.1,Win32,50.16806301,,,,,,,,2.5315,,,,,,,,,,,,,,2,n,1.4685,23.4214135,1,3.5315,1,,,,,,23.4214135,0,2.485985001,,,,,,,,,,,,,0,50,50,81,1,0.482105905,1,,,,,,,,,,,,,,,,,,,,,,,,,,,,,,,,,,,,,,,,,,,,,,,,,,,,,,,,,,,,,,,,,,,,,,,,,,,,,,,,
,,62d16bca486167475c4954be,2022-09-08_17h32.03.753,CGTgamblingSpanTasks,2022.2.1,Win32,50.16806301,,,,,,,,2.9657,,,,,,,,,,,,,,2,n,1.0343,21.03408097,1,3.9657,1,,,,,,21.03408097,0,2.208275162,,,,,,,,,,,,,0,51,51,0,1,0.485031246,1,,,,,,,,,,,,,,,,,,,,,,,,,,,,,,,,,,,,,,,,,,,,,,,,,,,,,,,,,,,,,,,,,,,,,,,,,,,,,,,,
,,62d16bca486167475c4954be,2022-09-08_17h32.03.753,CGTgamblingSpanTasks,2022.2.1,Win32,50.16806301,,,,,,,,2.8533,,,,,,,,,,,,,,1,n,1.1467,9.936178001,0,3.8533,1,,,,,,19.58698544,0,9.936178001,,,,,,,,,,,,,0,52,52,77,1,0.098812204,0,,,,,,,,,,,,,,,,,,,,,,,,,,,,,,,,,,,,,,,,,,,,,,,,,,,,,,,,,,,,,,,,,,,,,,,,,,,,,,,,
,,62d16bca486167475c4954be,2022-09-08_17h32.03.753,CGTgamblingSpanTasks,2022.2.1,Win32,50.16806301,,,,,,,,2.7612,,,,,,,,,,,,,,2,n,1.2388,0,1,4.2612,1.5,,,,,,17.23907308,0,2.055848574,,,,,,,,,,,,,0,53,53,66,1,0.450504458,1,,,,,,,,,,,,,,,,,,,,,,,,,,,,,,,,,,,,,,,,,,,,,,,,,,,,,,,,,,,,,,,,,,,,,,,,,,,,,,,,
,,62d16bca486167475c4954be,2022-09-08_17h32.03.753,CGTgamblingSpanTasks,2022.2.1,Win32,50.16806301,,,,,,,,3.1043,,,,,,,,,,,,,,1,v,0.8957,0,1,4.6043,1.5,,,,,,27.12325385,0,0.080932047,,,,,,,,,,,,,0,54,54,14,1,0.906929184,0,,,,,,,,,,,,,,,,,,,,,,,,,,,,,,,,,,,,,,,,,,,,,,,,,,,,,,,,,,,,,,,,,,,,,,,,,,,,,,,,
,,62d16bca486167475c4954be,2022-09-08_17h32.03.753,CGTgamblingSpanTasks,2022.2.1,Win32,50.16806301,,,,,,,,2.0787,,,,,,,,,,,,,,1,v,1.9213,22.86604061,1,3.5787,1.5,,,,,,22.86604061,0,2.293289792,,,,,,,,,,,,,0,55,55,51,1,0.49715382,1,,,,,,,,,,,,,,,,,,,,,,,,,,,,,,,,,,,,,,,,,,,,,,,,,,,,,,,,,,,,,,,,,,,,,,,,,,,,,,,,
,,62d16bca486167475c4954be,2022-09-08_17h32.03.753,CGTgamblingSpanTasks,2022.2.1,Win32,50.16806301,,,,,,,,2.3651,,,,,,,,,,,,,,1,n,1.6349,11.93550497,0,3.8651,1.5,,,,,,14.20587264,0,11.93550497,,,,,,,,,,,,,0,56,56,21,1,0.041340301,0,,,,,,,,,,,,,,,,,,,,,,,,,,,,,,,,,,,,,,,,,,,,,,,,,,,,,,,,,,,,,,,,,,,,,,,,,,,,,,,,
,,62d16bca486167475c4954be,2022-09-08_17h32.03.753,CGTgamblingSpanTasks,2022.2.1,Win32,50.16806301,,,,,,,,2.5594,,,,,,,,,,,,,,2,n,1.4406,7.534278541,1,4.0594,1.5,,,,,,7.534278541,0,0.747140182,,,,,,,,,,,,,0,57,57,37,1,0.50012466,1,,,,,,,,,,,,,,,,,,,,,,,,,,,,,,,,,,,,,,,,,,,,,,,,,,,,,,,,,,,,,,,,,,,,,,,,,,,,,,,,
,,62d16bca486167475c4954be,2022-09-08_17h32.03.753,CGTgamblingSpanTasks,2022.2.1,Win32,50.16806301,,,,,,,,2.3556,,,,,,,,,,,,,,2,v,1.6444,11.39288827,0,3.8556,1.5,,,,,,20.97851654,0,11.39288827,,,,,,,,,,,,,0,58,58,2,1,0.088791079,0,,,,,,,,,,,,,,,,,,,,,,,,,,,,,,,,,,,,,,,,,,,,,,,,,,,,,,,,,,,,,,,,,,,,,,,,,,,,,,,,
,,62d16bca486167475c4954be,2022-09-08_17h32.03.753,CGTgamblingSpanTasks,2022.2.1,Win32,50.16806301,,,,,,,,3.0418,,,,,,,,,,,,,,1,n,0.9582,4.462262453,0,4.5418,1.5,,,,,,0.192759042,0,4.462262453,,,,,,,,,,,,,0,59,59,52,1,0.003553223,0,,,,,,,,,,,,,,,,,,,,,,,,,,,,,,,,,,,,,,,,,,,,,,,,,,,,,,,,,,,,,,,,,,,,,,,,,,,,,,,,
,,62d16bca486167475c4954be,2022-09-08_17h32.03.753,CGTgamblingSpanTasks,2022.2.1,Win32,50.16806301,,,,,,,,3.2168,,,,,,,,,,,,,,2,n,0.7832,0,1,4.7168,1.5,,,,,,26.16821818,0,0.093528069,,,,,,,,,,,,,0,60,60,42,1,0.901022427,0,,,,,,,,,,,,,,,,,,,,,,,,,,,,,,,,,,,,,,,,,,,,,,,,,,,,,,,,,,,,,,,,,,,,,,,,,,,,,,,,
,,62d16bca486167475c4954be,2022-09-08_17h32.03.753,CGTgamblingSpanTasks,2022.2.1,Win32,50.16806301,,,,,,,,3.2127,,,,,,,,,,,,,,2,n,0.7873,0,1,4.2127,1,,,,,,27.76752685,0,0.083968035,,,,,,,,,,,,,0,61,61,13,1,0.906513967,0,,,,,,,,,,,,,,,,,,,,,,,,,,,,,,,,,,,,,,,,,,,,,,,,,,,,,,,,,,,,,,,,,,,,,,,,,,,,,,,,
,,62d16bca486167475c4954be,2022-09-08_17h32.03.753,CGTgamblingSpanTasks,2022.2.1,Win32,50.16806301,,,,,,,,2.8535,,,,,,,,,,,,,,1,v,1.1465,0,1,4.3535,1.5,,,,,,14.11762686,0,8.579385201,,,,,,,,,,,,,0,62,62,60,1,0.073886959,0,,,,,,,,,,,,,,,,,,,,,,,,,,,,,,,,,,,,,,,,,,,,,,,,,,,,,,,,,,,,,,,,,,,,,,,,,,,,,,,,
,,62d16bca486167475c4954be,2022-09-08_17h32.03.753,CGTgamblingSpanTasks,2022.2.1,Win32,50.16806301,,,,,,,,2.7964,,,,,,,,,,,,,,2,n,1.2036,0,1,3.7964,1,,,,,,27.93093084,0,0.050207531,,,,,,,,,,,,,0,63,63,83,1,0.920505936,0,,,,,,,,,,,,,,,,,,,,,,,,,,,,,,,,,,,,,,,,,,,,,,,,,,,,,,,,,,,,,,,,,,,,,,,,,,,,,,,,
,,62d16bca486167475c4954be,2022-09-08_17h32.03.753,CGTgamblingSpanTasks,2022.2.1,Win32,50.16806301,,,,,,,,2.385,,,,,,,,,,,,,,1,v,1.615,0,1,3.885,1.5,,,,,,27.4965044,0,2.461467004,,,,,,,,,,,,,0,64,64,36,1,0.526550878,1,,,,,,,,,,,,,,,,,,,,,,,,,,,,,,,,,,,,,,,,,,,,,,,,,,,,,,,,,,,,,,,,,,,,,,,,,,,,,,,,
,,62d16bca486167475c4954be,2022-09-08_17h32.03.753,CGTgamblingSpanTasks,2022.2.1,Win32,50.16806301,,,,,,,,2.7283,,,,,,,,,,,,,,1,n,1.2717,4.251676631,0,3.7283,1,,,,,,3.395192929,0,4.251676631,,,,,,,,,,,,,0,65,65,7,1,0.023467153,0,,,,,,,,,,,,,,,,,,,,,,,,,,,,,,,,,,,,,,,,,,,,,,,,,,,,,,,,,,,,,,,,,,,,,,,,,,,,,,,,
,,62d16bca486167475c4954be,2022-09-08_17h32.03.753,CGTgamblingSpanTasks,2022.2.1,Win32,50.16806301,,,,,,,,2.6702,,,,,,,,,,,,,,1,v,1.3298,0,1,4.1702,1.5,,,,,,27.94544945,0,2.32030209,,,,,,,,,,,,,0,66,66,115,1,0.545390564,1,,,,,,,,,,,,,,,,,,,,,,,,,,,,,,,,,,,,,,,,,,,,,,,,,,,,,,,,,,,,,,,,,,,,,,,,,,,,,,,,
,,62d16bca486167475c4954be,2022-09-08_17h32.03.753,CGTgamblingSpanTasks,2022.2.1,Win32,50.16806301,,,,,,,,3.2293,,,,,,,,,,,,,,2,n,0.7707,0,1,4.7293,1.5,,,,,,21.46599803,0,0.059789256,,,,,,,,,,,,,0,67,67,8,1,0.909019081,0,,,,,,,,,,,,,,,,,,,,,,,,,,,,,,,,,,,,,,,,,,,,,,,,,,,,,,,,,,,,,,,,,,,,,,,,,,,,,,,,
,,62d16bca486167475c4954be,2022-09-08_17h32.03.753,CGTgamblingSpanTasks,2022.2.1,Win32,50.16806301,,,,,,,,1.928,,,,,,,,,,,,,,1,n,2.072,10.3417501,0,3.428,1.5,,,,,,15.21435748,0,10.3417501,,,,,,,,,,,,,0,68,68,72,1,0.060969226,0,,,,,,,,,,,,,,,,,,,,,,,,,,,,,,,,,,,,,,,,,,,,,,,,,,,,,,,,,,,,,,,,,,,,,,,,,,,,,,,,
,,62d16bca486167475c4954be,2022-09-08_17h32.03.753,CGTgamblingSpanTasks,2022.2.1,Win32,50.16806301,,,,,,,,3.1455,,,,,,,,,,,,,,1,v,0.8545,25.65316415,1,4.6455,1.5,,,,,,25.65316415,0,0.079652925,,,,,,,,,,,,,0,69,69,109,1,0.90568168,0,,,,,,,,,,,,,,,,,,,,,,,,,,,,,,,,,,,,,,,,,,,,,,,,,,,,,,,,,,,,,,,,,,,,,,,,,,,,,,,,
,,62d16bca486167475c4954be,2022-09-08_17h32.03.753,CGTgamblingSpanTasks,2022.2.1,Win32,50.16806301,,,,,,,,1.4075,,,,,,,,,,,,,,2,n,2.5925,17.5608285,1,2.9075,1.5,,,,,,17.5608285,0,1.825111303,,,,,,,,,,,,,0,70,70,104,1,0.487721116,1,,,,,,,,,,,,,,,,,,,,,,,,,,,,,,,,,,,,,,,,,,,,,,,,,,,,,,,,,,,,,,,,,,,,,,,,,,,,,,,,
,,62d16bca486167475c4954be,2022-09-08_17h32.03.753,CGTgamblingSpanTasks,2022.2.1,Win32,50.16806301,,,,,,,,2.9199,,,,,,,,,,,,,,2,n,1.0801,28.68598705,1,3.9199,1,,,,,,28.68598705,0,0.050674956,,,,,,,,,,,,,0,71,71,62,1,0.920905497,0,,,,,,,,,,,,,,,,,,,,,,,,,,,,,,,,,,,,,,,,,,,,,,,,,,,,,,,,,,,,,,,,,,,,,,,,,,,,,,,,
,,62d16bca486167475c4954be,2022-09-08_17h32.03.753,CGTgamblingSpanTasks,2022.2.1,Win32,50.16806301,,,,,,,,1.8031,,,,,,,,,,,,,,2,n,2.1969,26.4985979,1,2.8031,1,,,,,,26.4985979,0,0.051324376,,,,,,,,,,,,,0,72,72,106,1,0.918747215,0,,,,,,,,,,,,,,,,,,,,,,,,,,,,,,,,,,,,,,,,,,,,,,,,,,,,,,,,,,,,,,,,,,,,,,,,,,,,,,,,
,,62d16bca486167475c4954be,2022-09-08_17h32.03.753,CGTgamblingSpanTasks,2022.2.1,Win32,50.16806301,,,,,,,,1.6774,,,,,,,,,,,,,,1,v,2.3226,24.8002852,1,3.1774,1.5,,,,,,24.8002852,0,0.071848086,,,,,,,,,,,,,0,73,73,16,1,0.90783559,0,,,,,,,,,,,,,,,,,,,,,,,,,,,,,,,,,,,,,,,,,,,,,,,,,,,,,,,,,,,,,,,,,,,,,,,,,,,,,,,,
,,62d16bca486167475c4954be,2022-09-08_17h32.03.753,CGTgamblingSpanTasks,2022.2.1,Win32,50.16806301,,,,,,,,2.8755,,,,,,,,,,,,,,1,v,1.1245,0,1,3.8755,1,,,,,,18.20422443,0,1.635040165,,,,,,,,,,,,,0,74,74,82,1,0.525708991,1,,,,,,,,,,,,,,,,,,,,,,,,,,,,,,,,,,,,,,,,,,,,,,,,,,,,,,,,,,,,,,,,,,,,,,,,,,,,,,,,
,,62d16bca486167475c4954be,2022-09-08_17h32.03.753,CGTgamblingSpanTasks,2022.2.1,Win32,50.16806301,,,,,,,,2.5934,,,,,,,,,,,,,,2,n,1.4066,0,1,3.5934,1,,,,,,15.43649625,0,1.65459324,,,,,,,,,,,,,0,75,75,33,1,0.479480163,1,,,,,,,,,,,,,,,,,,,,,,,,,,,,,,,,,,,,,,,,,,,,,,,,,,,,,,,,,,,,,,,,,,,,,,,,,,,,,,,,
,,62d16bca486167475c4954be,2022-09-08_17h32.03.753,CGTgamblingSpanTasks,2022.2.1,Win32,50.16806301,,,,,,,,2.6496,,,,,,,,,,,,,,1,v,1.3504,0,1,4.1496,1.5,,,,,,8.363821911,0,6.781500919,,,,,,,,,,,,,0,76,76,61,1,0.044227959,0,,,,,,,,,,,,,,,,,,,,,,,,,,,,,,,,,,,,,,,,,,,,,,,,,,,,,,,,,,,,,,,,,,,,,,,,,,,,,,,,
,,62d16bca486167475c4954be,2022-09-08_17h32.03.753,CGTgamblingSpanTasks,2022.2.1,Win32,50.16806301,,,,,,,,2.7437,,,,,,,,,,,,,,2,n,1.2563,0,1,4.2437,1.5,,,,,,22.0050376,0,2.257683666,,,,,,,,,,,,,0,77,77,4,1,0.491147312,1,,,,,,,,,,,,,,,,,,,,,,,,,,,,,,,,,,,,,,,,,,,,,,,,,,,,,,,,,,,,,,,,,,,,,,,,,,,,,,,,
,,62d16bca486167475c4954be,2022-09-08_17h32.03.753,CGTgamblingSpanTasks,2022.2.1,Win32,50.16806301,,,,,,,,2.6925,,,,,,,,,,,,,,1,n,1.3075,8.512335864,0,3.6925,1,,,,,,10.05300841,0,8.512335864,,,,,,,,,,,,,0,78,78,74,1,0.040729225,0,,,,,,,,,,,,,,,,,,,,,,,,,,,,,,,,,,,,,,,,,,,,,,,,,,,,,,,,,,,,,,,,,,,,,,,,,,,,,,,,
,,62d16bca486167475c4954be,2022-09-08_17h32.03.753,CGTgamblingSpanTasks,2022.2.1,Win32,50.16806301,,,,,,,,2.9114,,,,,,,,,,,,,,2,v,1.0886,11.19311486,0,4.4114,1.5,,,,,,8.17598802,0,11.19311486,,,,,,,,,,,,,0,79,79,110,1,0.021568003,0,,,,,,,,,,,,,,,,,,,,,,,,,,,,,,,,,,,,,,,,,,,,,,,,,,,,,,,,,,,,,,,,,,,,,,,,,,,,,,,,
,,62d16bca486167475c4954be,2022-09-08_17h32.03.753,CGTgamblingSpanTasks,2022.2.1,Win32,50.16806301,,,,,,,,2.5717,,,,,,,,,,,,,,1,v,1.4283,27.77179191,1,3.5717,1,,,,,,27.77179191,0,0.074524436,,,,,,,,,,,,,0,80,80,99,1,0.910114387,0,,,,,,,,,,,,,,,,,,,,,,,,,,,,,,,,,,,,,,,,,,,,,,,,,,,,,,,,,,,,,,,,,,,,,,,,,,,,,,,,
,,62d16bca486167475c4954be,2022-09-08_17h32.03.753,CGTgamblingSpanTasks,2022.2.1,Win32,50.16806301,,,,,,,,2.1329,,,,,,,,,,,,,,2,n,1.8671,0,1,3.1329,1,,,,,,13.84410806,0,1.535873964,,,,,,,,,,,,,0,81,81,88,1,0.470209002,1,,,,,,,,,,,,,,,,,,,,,,,,,,,,,,,,,,,,,,,,,,,,,,,,,,,,,,,,,,,,,,,,,,,,,,,,,,,,,,,,
,,62d16bca486167475c4954be,2022-09-08_17h32.03.753,CGTgamblingSpanTasks,2022.2.1,Win32,50.16806301,,,,,,,,3.1855,,,,,,,,,,,,,,2,n,0.8145,0,1,4.1855,1,,,,,,11.08143071,0,1.207538756,,,,,,,,,,,,,0,82,82,84,1,0.475047453,1,,,,,,,,,,,,,,,,,,,,,,,,,,,,,,,,,,,,,,,,,,,,,,,,,,,,,,,,,,,,,,,,,,,,,,,,,,,,,,,,
,,62d16bca486167475c4954be,2022-09-08_17h32.03.753,CGTgamblingSpanTasks,2022.2.1,Win32,50.16806301,,,,,,,,3.1835,,,,,,,,,,,,,,2,n,0.8165,27.38828234,1,4.6835,1.5,,,,,,27.38828234,0,0.0639233,,,,,,,,,,,,,0,83,83,43,1,0.914010176,0,,,,,,,,,,,,,,,,,,,,,,,,,,,,,,,,,,,,,,,,,,,,,,,,,,,,,,,,,,,,,,,,,,,,,,,,,,,,,,,,
,,62d16bca486167475c4954be,2022-09-08_17h32.03.753,CGTgamblingSpanTasks,2022.2.1,Win32,50.16806301,,,,,,,,3.23,,,,,,,,,,,,,,1,v,0.77,0,1,4.23,1,,,,,,24.57684014,0,0.061756244,,,,,,,,,,,,,0,84,84,68,1,0.911988903,0,,,,,,,,,,,,,,,,,,,,,,,,,,,,,,,,,,,,,,,,,,,,,,,,,,,,,,,,,,,,,,,,,,,,,,,,,,,,,,,,
,,62d16bca486167475c4954be,2022-09-08_17h32.03.753,CGTgamblingSpanTasks,2022.2.1,Win32,50.16806301,,,,,,,,3.2506,,,,,,,,,,,,,,2,n,0.7494,22.72923833,1,4.2506,1,,,,,,22.72923833,0,0.067170781,,,,,,,,,,,,,0,85,85,86,1,0.907226703,0,,,,,,,,,,,,,,,,,,,,,,,,,,,,,,,,,,,,,,,,,,,,,,,,,,,,,,,,,,,,,,,,,,,,,,,,,,,,,,,,
,,62d16bca486167475c4954be,2022-09-08_17h32.03.753,CGTgamblingSpanTasks,2022.2.1,Win32,50.16806301,,,,,,,,2.8151,,,,,,,,,,,,,,1,v,1.1849,25.56803059,1,3.8151,1,,,,,,25.56803059,0,2.543951743,,,,,,,,,,,,,0,86,86,41,1,0.499247217,1,,,,,,,,,,,,,,,,,,,,,,,,,,,,,,,,,,,,,,,,,,,,,,,,,,,,,,,,,,,,,,,,,,,,,,,,,,,,,,,,
,,62d16bca486167475c4954be,2022-09-08_17h32.03.753,CGTgamblingSpanTasks,2022.2.1,Win32,50.16806301,,,,,,,,3.0358,,,,,,,,,,,,,,1,v,0.9642,27.2532142,1,4.5358,1.5,,,,,,27.2532142,0,0.08089327,,,,,,,,,,,,,0,87,87,119,1,0.907091845,0,,,,,,,,,,,,,,,,,,,,,,,,,,,,,,,,,,,,,,,,,,,,,,,,,,,,,,,,,,,,,,,,,,,,,,,,,,,,,,,,
,,62d16bca486167475c4954be,2022-09-08_17h32.03.753,CGTgamblingSpanTasks,2022.2.1,Win32,50.16806301,,,,,,,,3.2854,,,,,,,,,,,,,,1,v,0.7146,0,1,4.7854,1.5,,,,,,28.14876717,0,3.117906378,,,,,,,,,,,,,0,88,88,76,1,0.470636736,1,,,,,,,,,,,,,,,,,,,,,,,,,,,,,,,,,,,,,,,,,,,,,,,,,,,,,,,,,,,,,,,,,,,,,,,,,,,,,,,,
,,62d16bca486167475c4954be,2022-09-08_17h32.03.753,CGTgamblingSpanTasks,2022.2.1,Win32,50.16806301,,,,,,,,2.733,,,,,,,,,,,,,,2,n,1.267,0,1,4.233,1.5,,,,,,19.3050342,0,2.030232342,,,,,,,,,,,,,0,89,89,73,1,0.484573227,1,,,,,,,,,,,,,,,,,,,,,,,,,,,,,,,,,,,,,,,,,,,,,,,,,,,,,,,,,,,,,,,,,,,,,,,,,,,,,,,,
,,62d16bca486167475c4954be,2022-09-08_17h32.03.753,CGTgamblingSpanTasks,2022.2.1,Win32,50.16806301,,,,,,,,2.6667,,,,,,,,,,,,,,2,n,1.3333,0,1,4.1667,1.5,,,,,,11.16819157,0,0.941456753,,,,,,,,,,,,,0,90,90,45,1,0.54163803,1,,,,,,,,,,,,,,,,,,,,,,,,,,,,,,,,,,,,,,,,,,,,,,,,,,,,,,,,,,,,,,,,,,,,,,,,,,,,,,,,
,,62d16bca486167475c4954be,2022-09-08_17h32.03.753,CGTgamblingSpanTasks,2022.2.1,Win32,50.16806301,,,,,,,,2.9895,,,,,,,,,,,,,,1,v,1.0105,0,1,3.9895,1,,,,,,17.4320197,0,1.448620949,,,,,,,,,,,,,0,91,91,30,1,0.545178213,1,,,,,,,,,,,,,,,,,,,,,,,,,,,,,,,,,,,,,,,,,,,,,,,,,,,,,,,,,,,,,,,,,,,,,,,,,,,,,,,,
,,62d16bca486167475c4954be,2022-09-08_17h32.03.753,CGTgamblingSpanTasks,2022.2.1,Win32,50.16806301,,,,,,,,3.2915,,,,,,,,,,,,,,1,v,0.7085,25.54604005,1,4.7915,1.5,,,,,,25.54604005,0,0.088845411,,,,,,,,,,,,,0,92,92,79,1,0.901957831,0,,,,,,,,,,,,,,,,,,,,,,,,,,,,,,,,,,,,,,,,,,,,,,,,,,,,,,,,,,,,,,,,,,,,,,,,,,,,,,,,
,,62d16bca486167475c4954be,2022-09-08_17h32.03.753,CGTgamblingSpanTasks,2022.2.1,Win32,50.16806301,,,,,,,,3.0629,,,,,,,,,,,,,,1,v,0.9371,0,1,4.0629,1,,,,,,28.9323758,0,2.893007023,,,,,,,,,,,,,0,93,93,11,1,0.497943321,1,,,,,,,,,,,,,,,,,,,,,,,,,,,,,,,,,,,,,,,,,,,,,,,,,,,,,,,,,,,,,,,,,,,,,,,,,,,,,,,,
,,62d16bca486167475c4954be,2022-09-08_17h32.03.753,CGTgamblingSpanTasks,2022.2.1,Win32,50.16806301,,,,,,,,2.8679,,,,,,,,,,,,,,2,v,1.1321,7.850775577,0,4.3679,1.5,,,,,,4.622707531,0,7.850775577,,,,,,,,,,,,,0,94,94,6,1,0.017737407,0,,,,,,,,,,,,,,,,,,,,,,,,,,,,,,,,,,,,,,,,,,,,,,,,,,,,,,,,,,,,,,,,,,,,,,,,,,,,,,,,
,,62d16bca486167475c4954be,2022-09-08_17h32.03.753,CGTgamblingSpanTasks,2022.2.1,Win32,50.16806301,,,,,,,,3.2431,,,,,,,,,,,,,,2,n,0.7569,20.5726842,1,4.2431,1,,,,,,20.5726842,0,0.073558523,,,,,,,,,,,,,0,95,95,26,1,0.901008565,0,,,,,,,,,,,,,,,,,,,,,,,,,,,,,,,,,,,,,,,,,,,,,,,,,,,,,,,,,,,,,,,,,,,,,,,,,,,,,,,,
,,62d16bca486167475c4954be,2022-09-08_17h32.03.753,CGTgamblingSpanTasks,2022.2.1,Win32,50.16806301,,,,,,,,3.0036,,,,,,,,,,,,,,2,n,0.9964,0,1,4.0036,1,,,,,,29.30724159,0,3.247012935,,,,,,,,,,,,,0,96,96,71,1,0.470571125,1,,,,,,,,,,,,,,,,,,,,,,,,,,,,,,,,,,,,,,,,,,,,,,,,,,,,,,,,,,,,,,,,,,,,,,,,,,,,,,,,
,,62d16bca486167475c4954be,2022-09-08_17h32.03.753,CGTgamblingSpanTasks,2022.2.1,Win32,50.16806301,,,,,,,,2.966,,,,,,,,,,,,,,2,n,1.034,19.5450126,1,4.466,1.5,,,,,,19.5450126,0,2.123581464,,,,,,,,,,,,,0,97,97,65,1,0.475836144,1,,,,,,,,,,,,,,,,,,,,,,,,,,,,,,,,,,,,,,,,,,,,,,,,,,,,,,,,,,,,,,,,,,,,,,,,,,,,,,,,
,,62d16bca486167475c4954be,2022-09-08_17h32.03.753,CGTgamblingSpanTasks,2022.2.1,Win32,50.16806301,,,,,,,,2.3541,,,,,,,,,,,,,,2,n,1.6459,0,1,3.3541,1,,,,,,19.30622782,0,10.31611309,,,,,,,,,,,,,0,98,98,1,1,0.091105656,0,,,,,,,,,,,,,,,,,,,,,,,,,,,,,,,,,,,,,,,,,,,,,,,,,,,,,,,,,,,,,,,,,,,,,,,,,,,,,,,,
,,62d16bca486167475c4954be,2022-09-08_17h32.03.753,CGTgamblingSpanTasks,2022.2.1,Win32,50.16806301,,,,,,,,3.2548,,,,,,,,,,,,,,1,v,0.7452,0,1,4.7548,1.5,,,,,,19.68065872,0,1.843597162,,,,,,,,,,,,,0,99,99,80,1,0.514941058,1,,,,,,,,,,,,,,,,,,,,,,,,,,,,,,,,,,,,,,,,,,,,,,,,,,,,,,,,,,,,,,,,,,,,,,,,,,,,,,,,
,,62d16bca486167475c4954be,2022-09-08_17h32.03.753,CGTgamblingSpanTasks,2022.2.1,Win32,50.16806301,,,,,,,,3.2446,,,,,,,,,,,,,,2,v,0.7554,11.41737518,0,4.2446,1,,,,,,18.11029021,0,11.41737518,,,,,,,,,,,,,0,100,100,48,1,0.069445859,0,,,,,,,,,,,,,,,,,,,,,,,,,,,,,,,,,,,,,,,,,,,,,,,,,,,,,,,,,,,,,,,,,,,,,,,,,,,,,,,,
,,62d16bca486167475c4954be,2022-09-08_17h32.03.753,CGTgamblingSpanTasks,2022.2.1,Win32,50.16806301,,,,,,,,2.984,,,,,,,,,,,,,,1,v,1.016,13.4287264,1,3.984,1,,,,,,13.4287264,0,1.317368801,,,,,,,,,,,,,0,101,101,100,1,0.502953125,1,,,,,,,,,,,,,,,,,,,,,,,,,,,,,,,,,,,,,,,,,,,,,,,,,,,,,,,,,,,,,,,,,,,,,,,,,,,,,,,,
,,62d16bca486167475c4954be,2022-09-08_17h32.03.753,CGTgamblingSpanTasks,2022.2.1,Win32,50.16806301,,,,,,,,2.7443,,,,,,,,,,,,,,2,v,1.2557,3.877530383,0,3.7443,1,,,,,,3.471484939,0,3.877530383,,,,,,,,,,,,,0,102,102,40,1,0.02623078,0,,,,,,,,,,,,,,,,,,,,,,,,,,,,,,,,,,,,,,,,,,,,,,,,,,,,,,,,,,,,,,,,,,,,,,,,,,,,,,,,
,,62d16bca486167475c4954be,2022-09-08_17h32.03.753,CGTgamblingSpanTasks,2022.2.1,Win32,50.16806301,,,,,,,,2.8008,,,,,,,,,,,,,,1,v,1.1992,22.87092517,1,3.8008,1,,,,,,22.87092517,0,0.059276504,,,,,,,,,,,,,0,103,103,27,1,0.911114935,0,,,,,,,,,,,,,,,,,,,,,,,,,,,,,,,,,,,,,,,,,,,,,,,,,,,,,,,,,,,,,,,,,,,,,,,,,,,,,,,,
,,62d16bca486167475c4954be,2022-09-08_17h32.03.753,CGTgamblingSpanTasks,2022.2.1,Win32,50.16806301,,,,,,,,1.569,,,,,,,,,,,,,,1,v,2.431,0,1,3.069,1.5,,,,,,18.51345298,0,1.932334278,,,,,,,,,,,,,0,104,104,31,1,0.48658696,1,,,,,,,,,,,,,,,,,,,,,,,,,,,,,,,,,,,,,,,,,,,,,,,,,,,,,,,,,,,,,,,,,,,,,,,,,,,,,,,,
,,62d16bca486167475c4954be,2022-09-08_17h32.03.753,CGTgamblingSpanTasks,2022.2.1,Win32,50.16806301,,,,,,,,1.5827,,,,,,,,,,,,,,2,n,2.4173,8.670591867,1,2.5827,1,,,,,,8.670591867,0,1.025847652,,,,,,,,,,,,,0,105,105,18,1,0.452680459,1,,,,,,,,,,,,,,,,,,,,,,,,,,,,,,,,,,,,,,,,,,,,,,,,,,,,,,,,,,,,,,,,,,,,,,,,,,,,,,,,
,,62d16bca486167475c4954be,2022-09-08_17h32.03.753,CGTgamblingSpanTasks,2022.2.1,Win32,50.16806301,,,,,,,,3.3232,,,,,,,,,,,,,,2,n,0.6768,22.25959835,1,4.3232,1,,,,,,22.25959835,0,0.065383587,,,,,,,,,,,,,0,106,106,97,1,0.907413875,0,,,,,,,,,,,,,,,,,,,,,,,,,,,,,,,,,,,,,,,,,,,,,,,,,,,,,,,,,,,,,,,,,,,,,,,,,,,,,,,,
,,62d16bca486167475c4954be,2022-09-08_17h32.03.753,CGTgamblingSpanTasks,2022.2.1,Win32,50.16806301,,,,,,,,3.2578,,,,,,,,,,,,,,1,v,0.7422,26.36733703,1,4.7578,1.5,,,,,,26.36733703,0,2.201057101,,,,,,,,,,,,,0,107,107,90,1,0.544064207,1,,,,,,,,,,,,,,,,,,,,,,,,,,,,,,,,,,,,,,,,,,,,,,,,,,,,,,,,,,,,,,,,,,,,,,,,,,,,,,,,
,,62d16bca486167475c4954be,2022-09-08_17h32.03.753,CGTgamblingSpanTasks,2022.2.1,Win32,50.16806301,,,,,,,,2.7642,,,,,,,,,,,,,,2,n,1.2358,0,1,4.2642,1.5,,,,,,18.16238569,0,1.540604093,,,,,,,,,,,,,0,108,108,34,1,0.540092491,1,,,,,,,,,,,,,,,,,,,,,,,,,,,,,,,,,,,,,,,,,,,,,,,,,,,,,,,,,,,,,,,,,,,,,,,,,,,,,,,,
,,62d16bca486167475c4954be,2022-09-08_17h32.03.753,CGTgamblingSpanTasks,2022.2.1,Win32,50.16806301,,,,,,,,1.9428,,,,,,,,,,,,,,1,v,2.0572,15.73000491,1,2.9428,1,,,,,,15.73000491,0,8.830252162,,,,,,,,,,,,,0,109,109,95,1,0.084193143,0,,,,,,,,,,,,,,,,,,,,,,,,,,,,,,,,,,,,,,,,,,,,,,,,,,,,,,,,,,,,,,,,,,,,,,,,,,,,,,,,
,,62d16bca486167475c4954be,2022-09-08_17h32.03.753,CGTgamblingSpanTasks,2022.2.1,Win32,50.16806301,,,,,,,,1.6795,,,,,,,,,,,,,,1,n,2.3205,4.904872644,0,3.1795,1.5,,,,,,4.698775357,0,4.904872644,,,,,,,,,,,,,0,110,110,75,1,0.028064484,0,,,,,,,,,,,,,,,,,,,,,,,,,,,,,,,,,,,,,,,,,,,,,,,,,,,,,,,,,,,,,,,,,,,,,,,,,,,,,,,,
,,62d16bca486167475c4954be,2022-09-08_17h32.03.753,CGTgamblingSpanTasks,2022.2.1,Win32,50.16806301,,,,,,,,2.5531,,,,,,,,,,,,,,2,n,1.4469,29.77342428,1,3.5531,1,,,,,,29.77342428,0,2.838865588,,,,,,,,,,,,,0,111,111,57,1,0.510363415,1,,,,,,,,,,,,,,,,,,,,,,,,,,,,,,,,,,,,,,,,,,,,,,,,,,,,,,,,,,,,,,,,,,,,,,,,,,,,,,,,
,,62d16bca486167475c4954be,2022-09-08_17h32.03.753,CGTgamblingSpanTasks,2022.2.1,Win32,50.16806301,,,,,,,,3.087,,,,,,,,,,,,,,2,n,0.913,13.96521039,1,4.087,1,,,,,,13.96521039,0,1.591282699,,,,,,,,,,,,,0,112,112,49,1,0.462956344,1,,,,,,,,,,,,,,,,,,,,,,,,,,,,,,,,,,,,,,,,,,,,,,,,,,,,,,,,,,,,,,,,,,,,,,,,,,,,,,,,
,,62d16bca486167475c4954be,2022-09-08_17h32.03.753,CGTgamblingSpanTasks,2022.2.1,Win32,50.16806301,,,,,,,,3.7947,,,,,,,,,,,,,,2,v,0.2053,11.6744431,0,4.7947,1,,,,,,10.43004651,0,11.6744431,,,,,,,,,,,,,0,113,113,15,1,0.026176489,0,,,,,,,,,,,,,,,,,,,,,,,,,,,,,,,,,,,,,,,,,,,,,,,,,,,,,,,,,,,,,,,,,,,,,,,,,,,,,,,,
,,62d16bca486167475c4954be,2022-09-08_17h32.03.753,CGTgamblingSpanTasks,2022.2.1,Win32,50.16806301,,,,,,,,2.8881,,,,,,,,,,,,,,1,v,1.1119,21.39646914,1,4.3881,1.5,,,,,,21.39646914,0,0.072474078,,,,,,,,,,,,,0,114,114,3,1,0.902848133,0,,,,,,,,,,,,,,,,,,,,,,,,,,,,,,,,,,,,,,,,,,,,,,,,,,,,,,,,,,,,,,,,,,,,,,,,,,,,,,,,
,,62d16bca486167475c4954be,2022-09-08_17h32.03.753,CGTgamblingSpanTasks,2022.2.1,Win32,50.16806301,,,,,,,,2.8409,,,,,,,,,,,,,,2,n,1.1591,27.37527992,1,3.8409,1,,,,,,27.37527992,0,2.860319095,,,,,,,,,,,,,0,115,115,39,1,0.486304156,1,,,,,,,,,,,,,,,,,,,,,,,,,,,,,,,,,,,,,,,,,,,,,,,,,,,,,,,,,,,,,,,,,,,,,,,,,,,,,,,,
,,62d16bca486167475c4954be,2022-09-08_17h32.03.753,CGTgamblingSpanTasks,2022.2.1,Win32,50.16806301,,,,,,,,2.6867,,,,,,,,,,,,,,1,v,1.3133,9.012590634,1,4.1867,1.5,,,,,,9.012590634,0,1.002188111,,,,,,,,,,,,,0,116,116,12,1,0.46958041,1,,,,,,,,,,,,,,,,,,,,,,,,,,,,,,,,,,,,,,,,,,,,,,,,,,,,,,,,,,,,,,,,,,,,,,,,,,,,,,,,
,,62d16bca486167475c4954be,2022-09-08_17h32.03.753,CGTgamblingSpanTasks,2022.2.1,Win32,50.16806301,,,,,,,,1.4501,,,,,,,,,,,,,,2,v,2.5499,0.085746782,0,2.9501,1.5,,,,,,25.21882231,0,0.085746782,,,,,,,,,,,,,0,117,117,64,1,0.90272076,0,,,,,,,,,,,,,,,,,,,,,,,,,,,,,,,,,,,,,,,,,,,,,,,,,,,,,,,,,,,,,,,,,,,,,,,,,,,,,,,,
,,62d16bca486167475c4954be,2022-09-08_17h32.03.753,CGTgamblingSpanTasks,2022.2.1,Win32,50.16806301,,,,,,,,2.953,,,,,,,,,,,,,,1,v,1.047,28.13634754,1,4.453,1.5,,,,,,28.13634754,0,2.532806323,,,,,,,,,,,,,0,118,118,28,1,0.525136524,1,,,,,,,,,,,,,,,,,,,,,,,,,,,,,,,,,,,,,,,,,,,,,,,,,,,,,,,,,,,,,,,,,,,,,,,,,,,,,,,,
,,62d16bca486167475c4954be,2022-09-08_17h32.03.753,CGTgamblingSpanTasks,2022.2.1,Win32,50.16806301,,,,,,,,3.1711,,,,,,,,,,,,,,1,v,0.8289,0,1,4.6711,1.5,,,,,,27.57491653,0,2.99133314,,,,,,,,,,,,,0,119,119,10,1,0.47625893,1,,,,,,,,,,,,,,,,,,,,,,,,,,,,,,,,,,,,,,,,,,,,,,,,,,,,,,,,,,,,,,,,,,,,,,,,,,,,,,,,
,,62d16bca486167475c4954be,2022-09-08_17h32.03.753,CGTgamblingSpanTasks,2022.2.1,Win32,50.16806301,,,,,,,,,,,,,,,,,,,,,,,,,,,,,,,,,,,,,,,,,,,,,,,,,,,,,,,,return,38.2953,,,,,,,,,,,,,,,,,,,,,,,,,,,,,,,,,,,,,,,,,,,,,,,,,,,,,,,,,,,,,,,,,,,,,,,,,,,,,,
,,62d16bca486167475c4954be,2022-09-08_17h32.03.753,CGTgamblingSpanTasks,2022.2.1,Win32,50.16806301,,,,,,,,,,,,,,,,,,,,,,,,,,,,,,,,,,,,,,,,,,,,,,,,,,,,,,,,,,return,35.0383,,,,,,,,,,,,,,,,,,,,,,,,,,,,,,,,,,,,,,,,,,,,,,,,,,,,,,,,,,,,,,,,,,,,,,,,,,,,
,,62d16bca486167475c4954be,2022-09-08_17h32.03.753,CGTgamblingSpanTasks,2022.2.1,Win32,50.16806301,,,,,,,,,,,,,,,,,,,,,,,,,,,,,,,,,,,,,,,,,,,,,,,,,,,,,,,,,,,,return,41.2751,,,,,,,,,,,,,,,,,,,,,,,,,,,,,,,,,,,,,,,,,,,,,,,,,,,,,,,,,,,,,,,,,,,,,,,,,,
,,62d16bca486167475c4954be,2022-09-08_17h32.03.753,CGTgamblingSpanTasks,2022.2.1,Win32,50.16806301,,,,,,,,,,,,,,,,,,,,,,,,,,,,,,,,,,,,,,,,,,,,,,,,,,,,,,,,,,,,,,342,1,0.009114583,-0.404947917,1,0,0,cont_buttonPractice,0,0,0,0,1,3,342,24,2,42,,,,,,,,,,,,,,,,,,,,,,,,,,,,,,,,,,,,,,,,,,,,,,,,,,,,,,,,
,,62d16bca486167475c4954be,2022-09-08_17h32.03.753,CGTgamblingSpanTasks,2022.2.1,Win32,50.16806301,,,,,,,,,,,,,,,,,,,,,,,,,,,,,,,,,,,,,,,,,,,,,,,,,,,,,,,,,,,,,,,0,0.009114583,-0.404947917,1,0,0,cont_buttonPractice,0,1,1,1,1,3,937,73,2,37,,,,,,,,,,,,,,,,,,,,,,,,,,,,,,,,,,,,,,,,,,,,,,,,,,,,,,,,
,,62d16bca486167475c4954be,2022-09-08_17h32.03.753,CGTgamblingSpanTasks,2022.2.1,Win32,50.16806301,,,,,,,,,,,,,,,,,,,,,,,,,,,,,,,,,,,,,,,,,,,,,,,,,,,,,,,,,,,,,,,,,,,,,,,,,,,,,,,,return,6.3638,,,,,,,,,,,,,,,,,,,,,,,,,,,,,,,,,,,,,,,,,,,,,,,,,,,,,,
,,62d16bca486167475c4954be,2022-09-08_17h32.03.753,CGTgamblingSpanTasks,2022.2.1,Win32,50.16806301,,,,,,,,,,,,,,,,,,,,,,,,,,,,,,,,,,,,,,,,,,,,,,,,,,,,,,,,,,,,,,,,,,,,,,,,,,,,,,,,,,"[8,9,1]",0,0,0,0,1,,,,,,,,,,,,,,,,,,,,,,,,,,,,,,,,,,,,,,,,,,,,,,,,
,,62d16bca486167475c4954be,2022-09-08_17h32.03.753,CGTgamblingSpanTasks,2022.2.1,Win32,50.16806301,,,,,,,,,,,,,,,,,,,,,,,,,,,,,,,,,,,,,,,,,,,,,,,,,,,,,,,,,,,,,,,,,,,,,,,,,,,,,,,,,,"[8,9,1]",1,0,1,0,1,,,,,,,,,,,,,,,,,,,,,,,,,,,,,,,,,,,,,,,,,,,,,,,,
,,62d16bca486167475c4954be,2022-09-08_17h32.03.753,CGTgamblingSpanTasks,2022.2.1,Win32,50.16806301,,,,,,,,,,,,,,,,,,,,,,,,,,,,,,,,,,,,,,,,,,,,,,,,,,,,,,,,,,,,,,,,,,,,,,,,,,,,,,,,,,"[8,9,1]",2,0,2,0,1,,,,,,,,,,,,,,,,,,,,,,,,,,,,,,,,,,,,,,,,,,,,,,,,
,,62d16bca486167475c4954be,2022-09-08_17h32.03.753,CGTgamblingSpanTasks,2022.2.1,Win32,50.16806301,,,,,,,,,,,,,,,,,,,,,,,,,,,,,,,,,,,,,,,,,,,,,,,,,,,,,,,,,,,,,,,1,,,,,,,,,,,,,,,,,,,,,,,,,891,0.065104167,-0.393229167,1,0,0,cont_button,0,0,0,0,1,1,,,,,,,,,,,,,,,,,,,,,,,,,,,,,,,,,,,
,,62d16bca486167475c4954be,2022-09-08_17h32.03.753,CGTgamblingSpanTasks,2022.2.1,Win32,50.16806301,,,,,,,,,,,,,,,,,,,,,,,,,,,,,,,,,,,,,,,,,,,,,,,,,,,,,,,,,,,,,,,,,,,,,,,,,,,,,,,,,,"[7,2,5,3]",0,0,0,0,1,,,,,,,,,,,,,,,,,,,,,,,,,,,,,,,,,,,,,,,,,,,,,,,,
,,62d16bca486167475c4954be,2022-09-08_17h32.03.753,CGTgamblingSpanTasks,2022.2.1,Win32,50.16806301,,,,,,,,,,,,,,,,,,,,,,,,,,,,,,,,,,,,,,,,,,,,,,,,,,,,,,,,,,,,,,,,,,,,,,,,,,,,,,,,,,"[7,2,5,3]",1,0,1,0,1,,,,,,,,,,,,,,,,,,,,,,,,,,,,,,,,,,,,,,,,,,,,,,,,
,,62d16bca486167475c4954be,2022-09-08_17h32.03.753,CGTgamblingSpanTasks,2022.2.1,Win32,50.16806301,,,,,,,,,,,,,,,,,,,,,,,,,,,,,,,,,,,,,,,,,,,,,,,,,,,,,,,,,,,,,,,,,,,,,,,,,,,,,,,,,,"[7,2,5,3]",2,0,2,0,1,,,,,,,,,,,,,,,,,,,,,,,,,,,,,,,,,,,,,,,,,,,,,,,,
,,62d16bca486167475c4954be,2022-09-08_17h32.03.753,CGTgamblingSpanTasks,2022.2.1,Win32,50.16806301,,,,,,,,,,,,,,,,,,,,,,,,,,,,,,,,,,,,,,,,,,,,,,,,,,,,,,,,,,,,,,,,,,,,,,,,,,,,,,,,,,"[7,2,5,3]",3,0,3,0,1,,,,,,,,,,,,,,,,,,,,,,,,,,,,,,,,,,,,,,,,,,,,,,,,
,,62d16bca486167475c4954be,2022-09-08_17h32.03.753,CGTgamblingSpanTasks,2022.2.1,Win32,50.16806301,,,,,,,,,,,,,,,,,,,,,,,,,,,,,,,,,,,,,,,,,,,,,,,,,,,,,,,,,,,,,,,0,,,,,,,,,,,,,,,,,,,,,,,,,253,0.013020833,-0.411458333,1,0,0,cont_button,0,1,1,1,1,2,,,,,,,,,,,,,,,,,,,,,,,,,,,,,,,,,,,
,,62d16bca486167475c4954be,2022-09-08_17h32.03.753,CGTgamblingSpanTasks,2022.2.1,Win32,50.16806301,,,,,,,,,,,,,,,,,,,,,,,,,,,,,,,,,,,,,,,,,,,,,,,,,,,,,,,,,,,,,,,,,,,,,,,,,,,,,,,,,,"[8,2,7,6]",0,0,0,0,1,,,,,,,,,,,,,,,,,,,,,,,,,,,,,,,,,,,,,,,,,,,,,,,,
,,62d16bca486167475c4954be,2022-09-08_17h32.03.753,CGTgamblingSpanTasks,2022.2.1,Win32,50.16806301,,,,,,,,,,,,,,,,,,,,,,,,,,,,,,,,,,,,,,,,,,,,,,,,,,,,,,,,,,,,,,,,,,,,,,,,,,,,,,,,,,"[8,2,7,6]",1,0,1,0,1,,,,,,,,,,,,,,,,,,,,,,,,,,,,,,,,,,,,,,,,,,,,,,,,
,,62d16bca486167475c4954be,2022-09-08_17h32.03.753,CGTgamblingSpanTasks,2022.2.1,Win32,50.16806301,,,,,,,,,,,,,,,,,,,,,,,,,,,,,,,,,,,,,,,,,,,,,,,,,,,,,,,,,,,,,,,,,,,,,,,,,,,,,,,,,,"[8,2,7,6]",2,0,2,0,1,,,,,,,,,,,,,,,,,,,,,,,,,,,,,,,,,,,,,,,,,,,,,,,,
,,62d16bca486167475c4954be,2022-09-08_17h32.03.753,CGTgamblingSpanTasks,2022.2.1,Win32,50.16806301,,,,,,,,,,,,,,,,,,,,,,,,,,,,,,,,,,,,,,,,,,,,,,,,,,,,,,,,,,,,,,,,,,,,,,,,,,,,,,,,,,"[8,2,7,6]",3,0,3,0,1,,,,,,,,,,,,,,,,,,,,,,,,,,,,,,,,,,,,,,,,,,,,,,,,
,,62d16bca486167475c4954be,2022-09-08_17h32.03.753,CGTgamblingSpanTasks,2022.2.1,Win32,50.16806301,,,,,,,,,,,,,,,,,,,,,,,,,,,,,,,,,,,,,,,,,,,,,,,,,,,,,,,,,,,,,,,1,,,,,,,,,,,,,,,,,,,,,,,,,8276,-0.016927083,-0.3984375,1,0,0,cont_button,0,2,2,2,1,3,,,,,,,,,,,,,,,,,,,,,,,,,,,,,,,,,,,
,,62d16bca486167475c4954be,2022-09-08_17h32.03.753,CGTgamblingSpanTasks,2022.2.1,Win32,50.16806301,,,,,,,,,,,,,,,,,,,,,,,,,,,,,,,,,,,,,,,,,,,,,,,,,,,,,,,,,,,,,,,,,,,,,,,,,,,,,,,,,,"[1,9,6,8,2]",0,0,0,0,1,,,,,,,,,,,,,,,,,,,,,,,,,,,,,,,,,,,,,,,,,,,,,,,,
,,62d16bca486167475c4954be,2022-09-08_17h32.03.753,CGTgamblingSpanTasks,2022.2.1,Win32,50.16806301,,,,,,,,,,,,,,,,,,,,,,,,,,,,,,,,,,,,,,,,,,,,,,,,,,,,,,,,,,,,,,,,,,,,,,,,,,,,,,,,,,"[1,9,6,8,2]",1,0,1,0,1,,,,,,,,,,,,,,,,,,,,,,,,,,,,,,,,,,,,,,,,,,,,,,,,
,,62d16bca486167475c4954be,2022-09-08_17h32.03.753,CGTgamblingSpanTasks,2022.2.1,Win32,50.16806301,,,,,,,,,,,,,,,,,,,,,,,,,,,,,,,,,,,,,,,,,,,,,,,,,,,,,,,,,,,,,,,,,,,,,,,,,,,,,,,,,,"[1,9,6,8,2]",2,0,2,0,1,,,,,,,,,,,,,,,,,,,,,,,,,,,,,,,,,,,,,,,,,,,,,,,,
,,62d16bca486167475c4954be,2022-09-08_17h32.03.753,CGTgamblingSpanTasks,2022.2.1,Win32,50.16806301,,,,,,,,,,,,,,,,,,,,,,,,,,,,,,,,,,,,,,,,,,,,,,,,,,,,,,,,,,,,,,,,,,,,,,,,,,,,,,,,,,"[1,9,6,8,2]",3,0,3,0,1,,,,,,,,,,,,,,,,,,,,,,,,,,,,,,,,,,,,,,,,,,,,,,,,
,,62d16bca486167475c4954be,2022-09-08_17h32.03.753,CGTgamblingSpanTasks,2022.2.1,Win32,50.16806301,,,,,,,,,,,,,,,,,,,,,,,,,,,,,,,,,,,,,,,,,,,,,,,,,,,,,,,,,,,,,,,,,,,,,,,,,,,,,,,,,,"[1,9,6,8,2]",4,0,4,0,1,,,,,,,,,,,,,,,,,,,,,,,,,,,,,,,,,,,,,,,,,,,,,,,,
,,62d16bca486167475c4954be,2022-09-08_17h32.03.753,CGTgamblingSpanTasks,2022.2.1,Win32,50.16806301,,,,,,,,,,,,,,,,,,,,,,,,,,,,,,,,,,,,,,,,,,,,,,,,,,,,,,,,,,,,,,,0,,,,,,,,,,,,,,,,,,,,,,,,,9682,-0.055989583,-0.40625,1,0,0,cont_button,0,3,3,3,1,4,,,,,,,,,,,,,,,,,,,,,,,,,,,,,,,,,,,
,,62d16bca486167475c4954be,2022-09-08_17h32.03.753,CGTgamblingSpanTasks,2022.2.1,Win32,50.16806301,,,,,,,,,,,,,,,,,,,,,,,,,,,,,,,,,,,,,,,,,,,,,,,,,,,,,,,,,,,,,,,,,,,,,,,,,,,,,,,,,,"[8,9,6,2,1]",0,0,0,0,1,,,,,,,,,,,,,,,,,,,,,,,,,,,,,,,,,,,,,,,,,,,,,,,,
,,62d16bca486167475c4954be,2022-09-08_17h32.03.753,CGTgamblingSpanTasks,2022.2.1,Win32,50.16806301,,,,,,,,,,,,,,,,,,,,,,,,,,,,,,,,,,,,,,,,,,,,,,,,,,,,,,,,,,,,,,,,,,,,,,,,,,,,,,,,,,"[8,9,6,2,1]",1,0,1,0,1,,,,,,,,,,,,,,,,,,,,,,,,,,,,,,,,,,,,,,,,,,,,,,,,
,,62d16bca486167475c4954be,2022-09-08_17h32.03.753,CGTgamblingSpanTasks,2022.2.1,Win32,50.16806301,,,,,,,,,,,,,,,,,,,,,,,,,,,,,,,,,,,,,,,,,,,,,,,,,,,,,,,,,,,,,,,,,,,,,,,,,,,,,,,,,,"[8,9,6,2,1]",2,0,2,0,1,,,,,,,,,,,,,,,,,,,,,,,,,,,,,,,,,,,,,,,,,,,,,,,,
,,62d16bca486167475c4954be,2022-09-08_17h32.03.753,CGTgamblingSpanTasks,2022.2.1,Win32,50.16806301,,,,,,,,,,,,,,,,,,,,,,,,,,,,,,,,,,,,,,,,,,,,,,,,,,,,,,,,,,,,,,,,,,,,,,,,,,,,,,,,,,"[8,9,6,2,1]",3,0,3,0,1,,,,,,,,,,,,,,,,,,,,,,,,,,,,,,,,,,,,,,,,,,,,,,,,
,,62d16bca486167475c4954be,2022-09-08_17h32.03.753,CGTgamblingSpanTasks,2022.2.1,Win32,50.16806301,,,,,,,,,,,,,,,,,,,,,,,,,,,,,,,,,,,,,,,,,,,,,,,,,,,,,,,,,,,,,,,,,,,,,,,,,,,,,,,,,,"[8,9,6,2,1]",4,0,4,0,1,,,,,,,,,,,,,,,,,,,,,,,,,,,,,,,,,,,,,,,,,,,,,,,,
,,62d16bca486167475c4954be,2022-09-08_17h32.03.753,CGTgamblingSpanTasks,2022.2.1,Win32,50.16806301,,,,,,,,,,,,,,,,,,,,,,,,,,,,,,,,,,,,,,,,,,,,,,,,,,,,,,,,,,,,,,,1,,,,,,,,,,,,,,,,,,,,,,,,,89621,-0.080729167,-0.424479167,1,0,0,cont_button,0,4,4,4,1,5,,,,,,,,,,,,,,,,,,,,,,,,,,,,,,,,,,,
,,62d16bca486167475c4954be,2022-09-08_17h32.03.753,CGTgamblingSpanTasks,2022.2.1,Win32,50.16806301,,,,,,,,,,,,,,,,,,,,,,,,,,,,,,,,,,,,,,,,,,,,,,,,,,,,,,,,,,,,,,,,,,,,,,,,,,,,,,,,,,"[9,8,3,4,2,7]",0,0,0,0,1,,,,,,,,,,,,,,,,,,,,,,,,,,,,,,,,,,,,,,,,,,,,,,,,
,,62d16bca486167475c4954be,2022-09-08_17h32.03.753,CGTgamblingSpanTasks,2022.2.1,Win32,50.16806301,,,,,,,,,,,,,,,,,,,,,,,,,,,,,,,,,,,,,,,,,,,,,,,,,,,,,,,,,,,,,,,,,,,,,,,,,,,,,,,,,,"[9,8,3,4,2,7]",1,0,1,0,1,,,,,,,,,,,,,,,,,,,,,,,,,,,,,,,,,,,,,,,,,,,,,,,,
,,62d16bca486167475c4954be,2022-09-08_17h32.03.753,CGTgamblingSpanTasks,2022.2.1,Win32,50.16806301,,,,,,,,,,,,,,,,,,,,,,,,,,,,,,,,,,,,,,,,,,,,,,,,,,,,,,,,,,,,,,,,,,,,,,,,,,,,,,,,,,"[9,8,3,4,2,7]",2,0,2,0,1,,,,,,,,,,,,,,,,,,,,,,,,,,,,,,,,,,,,,,,,,,,,,,,,
,,62d16bca486167475c4954be,2022-09-08_17h32.03.753,CGTgamblingSpanTasks,2022.2.1,Win32,50.16806301,,,,,,,,,,,,,,,,,,,,,,,,,,,,,,,,,,,,,,,,,,,,,,,,,,,,,,,,,,,,,,,,,,,,,,,,,,,,,,,,,,"[9,8,3,4,2,7]",3,0,3,0,1,,,,,,,,,,,,,,,,,,,,,,,,,,,,,,,,,,,,,,,,,,,,,,,,
,,62d16bca486167475c4954be,2022-09-08_17h32.03.753,CGTgamblingSpanTasks,2022.2.1,Win32,50.16806301,,,,,,,,,,,,,,,,,,,,,,,,,,,,,,,,,,,,,,,,,,,,,,,,,,,,,,,,,,,,,,,,,,,,,,,,,,,,,,,,,,"[9,8,3,4,2,7]",4,0,4,0,1,,,,,,,,,,,,,,,,,,,,,,,,,,,,,,,,,,,,,,,,,,,,,,,,
,,62d16bca486167475c4954be,2022-09-08_17h32.03.753,CGTgamblingSpanTasks,2022.2.1,Win32,50.16806301,,,,,,,,,,,,,,,,,,,,,,,,,,,,,,,,,,,,,,,,,,,,,,,,,,,,,,,,,,,,,,,,,,,,,,,,,,,,,,,,,,"[9,8,3,4,2,7]",5,0,5,0,1,,,,,,,,,,,,,,,,,,,,,,,,,,,,,,,,,,,,,,,,,,,,,,,,
,,62d16bca486167475c4954be,2022-09-08_17h32.03.753,CGTgamblingSpanTasks,2022.2.1,Win32,50.16806301,,,,,,,,,,,,,,,,,,,,,,,,,,,,,,,,,,,,,,,,,,,,,,,,,,,,,,,,,,,,,,,1,,,,,,,,,,,,,,,,,,,,,,,,,983427,-0.041666667,-0.388020833,1,0,0,cont_button,0,5,5,5,1,6,,,,,,,,,,,,,,,,,,,,,,,,,,,,,,,,,,,
,,62d16bca486167475c4954be,2022-09-08_17h32.03.753,CGTgamblingSpanTasks,2022.2.1,Win32,50.16806301,,,,,,,,,,,,,,,,,,,,,,,,,,,,,,,,,,,,,,,,,,,,,,,,,,,,,,,,,,,,,,,,,,,,,,,,,,,,,,,,,,"[8,2,5,1,3,4,7]",0,0,0,0,1,,,,,,,,,,,,,,,,,,,,,,,,,,,,,,,,,,,,,,,,,,,,,,,,
,,62d16bca486167475c4954be,2022-09-08_17h32.03.753,CGTgamblingSpanTasks,2022.2.1,Win32,50.16806301,,,,,,,,,,,,,,,,,,,,,,,,,,,,,,,,,,,,,,,,,,,,,,,,,,,,,,,,,,,,,,,,,,,,,,,,,,,,,,,,,,"[8,2,5,1,3,4,7]",1,0,1,0,1,,,,,,,,,,,,,,,,,,,,,,,,,,,,,,,,,,,,,,,,,,,,,,,,
,,62d16bca486167475c4954be,2022-09-08_17h32.03.753,CGTgamblingSpanTasks,2022.2.1,Win32,50.16806301,,,,,,,,,,,,,,,,,,,,,,,,,,,,,,,,,,,,,,,,,,,,,,,,,,,,,,,,,,,,,,,,,,,,,,,,,,,,,,,,,,"[8,2,5,1,3,4,7]",2,0,2,0,1,,,,,,,,,,,,,,,,,,,,,,,,,,,,,,,,,,,,,,,,,,,,,,,,
,,62d16bca486167475c4954be,2022-09-08_17h32.03.753,CGTgamblingSpanTasks,2022.2.1,Win32,50.16806301,,,,,,,,,,,,,,,,,,,,,,,,,,,,,,,,,,,,,,,,,,,,,,,,,,,,,,,,,,,,,,,,,,,,,,,,,,,,,,,,,,"[8,2,5,1,3,4,7]",3,0,3,0,1,,,,,,,,,,,,,,,,,,,,,,,,,,,,,,,,,,,,,,,,,,,,,,,,
,,62d16bca486167475c4954be,2022-09-08_17h32.03.753,CGTgamblingSpanTasks,2022.2.1,Win32,50.16806301,,,,,,,,,,,,,,,,,,,,,,,,,,,,,,,,,,,,,,,,,,,,,,,,,,,,,,,,,,,,,,,,,,,,,,,,,,,,,,,,,,"[8,2,5,1,3,4,7]",4,0,4,0,1,,,,,,,,,,,,,,,,,,,,,,,,,,,,,,,,,,,,,,,,,,,,,,,,
,,62d16bca486167475c4954be,2022-09-08_17h32.03.753,CGTgamblingSpanTasks,2022.2.1,Win32,50.16806301,,,,,,,,,,,,,,,,,,,,,,,,,,,,,,,,,,,,,,,,,,,,,,,,,,,,,,,,,,,,,,,,,,,,,,,,,,,,,,,,,,"[8,2,5,1,3,4,7]",5,0,5,0,1,,,,,,,,,,,,,,,,,,,,,,,,,,,,,,,,,,,,,,,,,,,,,,,,
,,62d16bca486167475c4954be,2022-09-08_17h32.03.753,CGTgamblingSpanTasks,2022.2.1,Win32,50.16806301,,,,,,,,,,,,,,,,,,,,,,,,,,,,,,,,,,,,,,,,,,,,,,,,,,,,,,,,,,,,,,,,,,,,,,,,,,,,,,,,,,"[8,2,5,1,3,4,7]",6,0,6,0,1,,,,,,,,,,,,,,,,,,,,,,,,,,,,,,,,,,,,,,,,,,,,,,,,
,,62d16bca486167475c4954be,2022-09-08_17h32.03.753,CGTgamblingSpanTasks,2022.2.1,Win32,50.16806301,,,,,,,,,,,,,,,,,,,,,,,,,,,,,,,,,,,,,,,,,,,,,,,,,,,,,,,,,,,,,,,0,,,,,,,,,,,,,,,,,,,,,,,,,8134517,-0.067708333,-0.411458333,1,0,0,cont_button,0,6,6,6,1,7,,,,,,,,,,,,,,,,,,,,,,,,,,,,,,,,,,,
,,62d16bca486167475c4954be,2022-09-08_17h32.03.753,CGTgamblingSpanTasks,2022.2.1,Win32,50.16806301,,,,,,,,,,,,,,,,,,,,,,,,,,,,,,,,,,,,,,,,,,,,,,,,,,,,,,,,,,,,,,,,,,,,,,,,,,,,,,,,,,"[2,4,5,8,3,1,7]",0,0,0,0,1,,,,,,,,,,,,,,,,,,,,,,,,,,,,,,,,,,,,,,,,,,,,,,,,
,,62d16bca486167475c4954be,2022-09-08_17h32.03.753,CGTgamblingSpanTasks,2022.2.1,Win32,50.16806301,,,,,,,,,,,,,,,,,,,,,,,,,,,,,,,,,,,,,,,,,,,,,,,,,,,,,,,,,,,,,,,,,,,,,,,,,,,,,,,,,,"[2,4,5,8,3,1,7]",1,0,1,0,1,,,,,,,,,,,,,,,,,,,,,,,,,,,,,,,,,,,,,,,,,,,,,,,,
,,62d16bca486167475c4954be,2022-09-08_17h32.03.753,CGTgamblingSpanTasks,2022.2.1,Win32,50.16806301,,,,,,,,,,,,,,,,,,,,,,,,,,,,,,,,,,,,,,,,,,,,,,,,,,,,,,,,,,,,,,,,,,,,,,,,,,,,,,,,,,"[2,4,5,8,3,1,7]",2,0,2,0,1,,,,,,,,,,,,,,,,,,,,,,,,,,,,,,,,,,,,,,,,,,,,,,,,
,,62d16bca486167475c4954be,2022-09-08_17h32.03.753,CGTgamblingSpanTasks,2022.2.1,Win32,50.16806301,,,,,,,,,,,,,,,,,,,,,,,,,,,,,,,,,,,,,,,,,,,,,,,,,,,,,,,,,,,,,,,,,,,,,,,,,,,,,,,,,,"[2,4,5,8,3,1,7]",3,0,3,0,1,,,,,,,,,,,,,,,,,,,,,,,,,,,,,,,,,,,,,,,,,,,,,,,,
,,62d16bca486167475c4954be,2022-09-08_17h32.03.753,CGTgamblingSpanTasks,2022.2.1,Win32,50.16806301,,,,,,,,,,,,,,,,,,,,,,,,,,,,,,,,,,,,,,,,,,,,,,,,,,,,,,,,,,,,,,,,,,,,,,,,,,,,,,,,,,"[2,4,5,8,3,1,7]",4,0,4,0,1,,,,,,,,,,,,,,,,,,,,,,,,,,,,,,,,,,,,,,,,,,,,,,,,
,,62d16bca486167475c4954be,2022-09-08_17h32.03.753,CGTgamblingSpanTasks,2022.2.1,Win32,50.16806301,,,,,,,,,,,,,,,,,,,,,,,,,,,,,,,,,,,,,,,,,,,,,,,,,,,,,,,,,,,,,,,,,,,,,,,,,,,,,,,,,,"[2,4,5,8,3,1,7]",5,0,5,0,1,,,,,,,,,,,,,,,,,,,,,,,,,,,,,,,,,,,,,,,,,,,,,,,,
,,62d16bca486167475c4954be,2022-09-08_17h32.03.753,CGTgamblingSpanTasks,2022.2.1,Win32,50.16806301,,,,,,,,,,,,,,,,,,,,,,,,,,,,,,,,,,,,,,,,,,,,,,,,,,,,,,,,,,,,,,,,,,,,,,,,,,,,,,,,,,"[2,4,5,8,3,1,7]",6,0,6,0,1,,,,,,,,,,,,,,,,,,,,,,,,,,,,,,,,,,,,,,,,,,,,,,,,
,,62d16bca486167475c4954be,2022-09-08_17h32.03.753,CGTgamblingSpanTasks,2022.2.1,Win32,50.16806301,,,,,,,,,,,,,,,,,,,,,,,,,,,,,,,,,,,,,,,,,,,,,,,,,,,,,,,,,,,,,,,1,,,,,,,,,,,,,,,,,,,,,,,,,2458317,-0.026041667,-0.375,1,0,0,cont_button,0,7,7,7,1,8,,,,,,,,,,,,,,,,,,,,,,,,,,,,,,,,,,,
,,62d16bca486167475c4954be,2022-09-08_17h32.03.753,CGTgamblingSpanTasks,2022.2.1,Win32,50.16806301,,,,,,,,,,,,,,,,,,,,,,,,,,,,,,,,,,,,,,,,,,,,,,,,,,,,,,,,,,,,,,,,,,,,,,,,,,,,,,,,,,"[4,1,6,8,3,2,9,7]",0,0,0,0,1,,,,,,,,,,,,,,,,,,,,,,,,,,,,,,,,,,,,,,,,,,,,,,,,
,,62d16bca486167475c4954be,2022-09-08_17h32.03.753,CGTgamblingSpanTasks,2022.2.1,Win32,50.16806301,,,,,,,,,,,,,,,,,,,,,,,,,,,,,,,,,,,,,,,,,,,,,,,,,,,,,,,,,,,,,,,,,,,,,,,,,,,,,,,,,,"[4,1,6,8,3,2,9,7]",1,0,1,0,1,,,,,,,,,,,,,,,,,,,,,,,,,,,,,,,,,,,,,,,,,,,,,,,,
,,62d16bca486167475c4954be,2022-09-08_17h32.03.753,CGTgamblingSpanTasks,2022.2.1,Win32,50.16806301,,,,,,,,,,,,,,,,,,,,,,,,,,,,,,,,,,,,,,,,,,,,,,,,,,,,,,,,,,,,,,,,,,,,,,,,,,,,,,,,,,"[4,1,6,8,3,2,9,7]",2,0,2,0,1,,,,,,,,,,,,,,,,,,,,,,,,,,,,,,,,,,,,,,,,,,,,,,,,
,,62d16bca486167475c4954be,2022-09-08_17h32.03.753,CGTgamblingSpanTasks,2022.2.1,Win32,50.16806301,,,,,,,,,,,,,,,,,,,,,,,,,,,,,,,,,,,,,,,,,,,,,,,,,,,,,,,,,,,,,,,,,,,,,,,,,,,,,,,,,,"[4,1,6,8,3,2,9,7]",3,0,3,0,1,,,,,,,,,,,,,,,,,,,,,,,,,,,,,,,,,,,,,,,,,,,,,,,,
,,62d16bca486167475c4954be,2022-09-08_17h32.03.753,CGTgamblingSpanTasks,2022.2.1,Win32,50.16806301,,,,,,,,,,,,,,,,,,,,,,,,,,,,,,,,,,,,,,,,,,,,,,,,,,,,,,,,,,,,,,,,,,,,,,,,,,,,,,,,,,"[4,1,6,8,3,2,9,7]",4,0,4,0,1,,,,,,,,,,,,,,,,,,,,,,,,,,,,,,,,,,,,,,,,,,,,,,,,
,,62d16bca486167475c4954be,2022-09-08_17h32.03.753,CGTgamblingSpanTasks,2022.2.1,Win32,50.16806301,,,,,,,,,,,,,,,,,,,,,,,,,,,,,,,,,,,,,,,,,,,,,,,,,,,,,,,,,,,,,,,,,,,,,,,,,,,,,,,,,,"[4,1,6,8,3,2,9,7]",5,0,5,0,1,,,,,,,,,,,,,,,,,,,,,,,,,,,,,,,,,,,,,,,,,,,,,,,,
,,62d16bca486167475c4954be,2022-09-08_17h32.03.753,CGTgamblingSpanTasks,2022.2.1,Win32,50.16806301,,,,,,,,,,,,,,,,,,,,,,,,,,,,,,,,,,,,,,,,,,,,,,,,,,,,,,,,,,,,,,,,,,,,,,,,,,,,,,,,,,"[4,1,6,8,3,2,9,7]",6,0,6,0,1,,,,,,,,,,,,,,,,,,,,,,,,,,,,,,,,,,,,,,,,,,,,,,,,
,,62d16bca486167475c4954be,2022-09-08_17h32.03.753,CGTgamblingSpanTasks,2022.2.1,Win32,50.16806301,,,,,,,,,,,,,,,,,,,,,,,,,,,,,,,,,,,,,,,,,,,,,,,,,,,,,,,,,,,,,,,,,,,,,,,,,,,,,,,,,,"[4,1,6,8,3,2,9,7]",7,0,7,0,1,,,,,,,,,,,,,,,,,,,,,,,,,,,,,,,,,,,,,,,,,,,,,,,,
,,62d16bca486167475c4954be,2022-09-08_17h32.03.753,CGTgamblingSpanTasks,2022.2.1,Win32,50.16806301,,,,,,,,,,,,,,,,,,,,,,,,,,,,,,,,,,,,,,,,,,,,,,,,,,,,,,,,,,,,,,,0,,,,,,,,,,,,,,,,,,,,,,,,,31583294,-0.08984375,-0.407552083,1,0,0,cont_button,0,8,8,8,1,9,,,,,,,,,,,,,,,,,,,,,,,,,,,,,,,,,,,
,,62d16bca486167475c4954be,2022-09-08_17h32.03.753,CGTgamblingSpanTasks,2022.2.1,Win32,50.16806301,,,,,,,,,,,,,,,,,,,,,,,,,,,,,,,,,,,,,,,,,,,,,,,,,,,,,,,,,,,,,,,,,,,,,,,,,,,,,,,,,,"[4,5,7,2,6,8,1,9]",0,0,0,0,1,,,,,,,,,,,,,,,,,,,,,,,,,,,,,,,,,,,,,,,,,,,,,,,,
,,62d16bca486167475c4954be,2022-09-08_17h32.03.753,CGTgamblingSpanTasks,2022.2.1,Win32,50.16806301,,,,,,,,,,,,,,,,,,,,,,,,,,,,,,,,,,,,,,,,,,,,,,,,,,,,,,,,,,,,,,,,,,,,,,,,,,,,,,,,,,"[4,5,7,2,6,8,1,9]",1,0,1,0,1,,,,,,,,,,,,,,,,,,,,,,,,,,,,,,,,,,,,,,,,,,,,,,,,
,,62d16bca486167475c4954be,2022-09-08_17h32.03.753,CGTgamblingSpanTasks,2022.2.1,Win32,50.16806301,,,,,,,,,,,,,,,,,,,,,,,,,,,,,,,,,,,,,,,,,,,,,,,,,,,,,,,,,,,,,,,,,,,,,,,,,,,,,,,,,,"[4,5,7,2,6,8,1,9]",2,0,2,0,1,,,,,,,,,,,,,,,,,,,,,,,,,,,,,,,,,,,,,,,,,,,,,,,,
,,62d16bca486167475c4954be,2022-09-08_17h32.03.753,CGTgamblingSpanTasks,2022.2.1,Win32,50.16806301,,,,,,,,,,,,,,,,,,,,,,,,,,,,,,,,,,,,,,,,,,,,,,,,,,,,,,,,,,,,,,,,,,,,,,,,,,,,,,,,,,"[4,5,7,2,6,8,1,9]",3,0,3,0,1,,,,,,,,,,,,,,,,,,,,,,,,,,,,,,,,,,,,,,,,,,,,,,,,
,,62d16bca486167475c4954be,2022-09-08_17h32.03.753,CGTgamblingSpanTasks,2022.2.1,Win32,50.16806301,,,,,,,,,,,,,,,,,,,,,,,,,,,,,,,,,,,,,,,,,,,,,,,,,,,,,,,,,,,,,,,,,,,,,,,,,,,,,,,,,,"[4,5,7,2,6,8,1,9]",4,0,4,0,1,,,,,,,,,,,,,,,,,,,,,,,,,,,,,,,,,,,,,,,,,,,,,,,,
,,62d16bca486167475c4954be,2022-09-08_17h32.03.753,CGTgamblingSpanTasks,2022.2.1,Win32,50.16806301,,,,,,,,,,,,,,,,,,,,,,,,,,,,,,,,,,,,,,,,,,,,,,,,,,,,,,,,,,,,,,,,,,,,,,,,,,,,,,,,,,"[4,5,7,2,6,8,1,9]",5,0,5,0,1,,,,,,,,,,,,,,,,,,,,,,,,,,,,,,,,,,,,,,,,,,,,,,,,
,,62d16bca486167475c4954be,2022-09-08_17h32.03.753,CGTgamblingSpanTasks,2022.2.1,Win32,50.16806301,,,,,,,,,,,,,,,,,,,,,,,,,,,,,,,,,,,,,,,,,,,,,,,,,,,,,,,,,,,,,,,,,,,,,,,,,,,,,,,,,,"[4,5,7,2,6,8,1,9]",6,0,6,0,1,,,,,,,,,,,,,,,,,,,,,,,,,,,,,,,,,,,,,,,,,,,,,,,,
,,62d16bca486167475c4954be,2022-09-08_17h32.03.753,CGTgamblingSpanTasks,2022.2.1,Win32,50.16806301,,,,,,,,,,,,,,,,,,,,,,,,,,,,,,,,,,,,,,,,,,,,,,,,,,,,,,,,,,,,,,,,,,,,,,,,,,,,,,,,,,"[4,5,7,2,6,8,1,9]",7,0,7,0,1,,,,,,,,,,,,,,,,,,,,,,,,,,,,,,,,,,,,,,,,,,,,,,,,
,,62d16bca486167475c4954be,2022-09-08_17h32.03.753,CGTgamblingSpanTasks,2022.2.1,Win32,50.16806301,,,,,,,,,,,,,,,,,,,,,,,,,,,,,,,,,,,,,,,,,,,,,,,,,,,,,,,,,,,,,,,0,,,,,,,,,,,,,,,,,,,,,,,,,4156786,-0.049479167,-0.408854167,1,0,0,cont_button,0,9,9,9,1,10,,,,,,,,,,,,,,,,,,,,,,,,,,,,,,,,,,,
,,62d16bca486167475c4954be,2022-09-08_17h32.03.753,CGTgamblingSpanTasks,2022.2.1,Win32,50.16806301,,,,,,,,,,,,,,,,,,,,,,,,,,,,,,,,,,,,,,,,,,,,,,,,,,,,,,,,,,,,,,,,,,,,,,,,,,,,,,,,,,"[7,1,2,8,5,3,6]",0,0,0,0,1,,,,,,,,,,,,,,,,,,,,,,,,,,,,,,,,,,,,,,,,,,,,,,,,
,,62d16bca486167475c4954be,2022-09-08_17h32.03.753,CGTgamblingSpanTasks,2022.2.1,Win32,50.16806301,,,,,,,,,,,,,,,,,,,,,,,,,,,,,,,,,,,,,,,,,,,,,,,,,,,,,,,,,,,,,,,,,,,,,,,,,,,,,,,,,,"[7,1,2,8,5,3,6]",1,0,1,0,1,,,,,,,,,,,,,,,,,,,,,,,,,,,,,,,,,,,,,,,,,,,,,,,,
,,62d16bca486167475c4954be,2022-09-08_17h32.03.753,CGTgamblingSpanTasks,2022.2.1,Win32,50.16806301,,,,,,,,,,,,,,,,,,,,,,,,,,,,,,,,,,,,,,,,,,,,,,,,,,,,,,,,,,,,,,,,,,,,,,,,,,,,,,,,,,"[7,1,2,8,5,3,6]",2,0,2,0,1,,,,,,,,,,,,,,,,,,,,,,,,,,,,,,,,,,,,,,,,,,,,,,,,
,,62d16bca486167475c4954be,2022-09-08_17h32.03.753,CGTgamblingSpanTasks,2022.2.1,Win32,50.16806301,,,,,,,,,,,,,,,,,,,,,,,,,,,,,,,,,,,,,,,,,,,,,,,,,,,,,,,,,,,,,,,,,,,,,,,,,,,,,,,,,,"[7,1,2,8,5,3,6]",3,0,3,0,1,,,,,,,,,,,,,,,,,,,,,,,,,,,,,,,,,,,,,,,,,,,,,,,,
,,62d16bca486167475c4954be,2022-09-08_17h32.03.753,CGTgamblingSpanTasks,2022.2.1,Win32,50.16806301,,,,,,,,,,,,,,,,,,,,,,,,,,,,,,,,,,,,,,,,,,,,,,,,,,,,,,,,,,,,,,,,,,,,,,,,,,,,,,,,,,"[7,1,2,8,5,3,6]",4,0,4,0,1,,,,,,,,,,,,,,,,,,,,,,,,,,,,,,,,,,,,,,,,,,,,,,,,
,,62d16bca486167475c4954be,2022-09-08_17h32.03.753,CGTgamblingSpanTasks,2022.2.1,Win32,50.16806301,,,,,,,,,,,,,,,,,,,,,,,,,,,,,,,,,,,,,,,,,,,,,,,,,,,,,,,,,,,,,,,,,,,,,,,,,,,,,,,,,,"[7,1,2,8,5,3,6]",5,0,5,0,1,,,,,,,,,,,,,,,,,,,,,,,,,,,,,,,,,,,,,,,,,,,,,,,,
,,62d16bca486167475c4954be,2022-09-08_17h32.03.753,CGTgamblingSpanTasks,2022.2.1,Win32,50.16806301,,,,,,,,,,,,,,,,,,,,,,,,,,,,,,,,,,,,,,,,,,,,,,,,,,,,,,,,,,,,,,,,,,,,,,,,,,,,,,,,,,"[7,1,2,8,5,3,6]",6,0,6,0,1,,,,,,,,,,,,,,,,,,,,,,,,,,,,,,,,,,,,,,,,,,,,,,,,
,,62d16bca486167475c4954be,2022-09-08_17h32.03.753,CGTgamblingSpanTasks,2022.2.1,Win32,50.16806301,,,,,,,,,,,,,,,,,,,,,,,,,,,,,,,,,,,,,,,,,,,,,,,,,,,,,,,,,,,,,,,0,,,,,,,,,,,,,,,,,,,,,,,,,128536,-0.037760417,-0.38671875,1,0,0,cont_button,0,10,10,10,1,11,,,,,,,,,,,,,,,,,,,,,,,,,,,,,,,,,,,
,,62d16bca486167475c4954be,2022-09-08_17h32.03.753,CGTgamblingSpanTasks,2022.2.1,Win32,50.16806301,,,,,,,,,,,,,,,,,,,,,,,,,,,,,,,,,,,,,,,,,,,,,,,,,,,,,,,,,,,,,,,,,,,,,,,,,,,,,,,,,,"[9,8,1,2,4,7,6]",0,0,0,0,1,,,,,,,,,,,,,,,,,,,,,,,,,,,,,,,,,,,,,,,,,,,,,,,,
,,62d16bca486167475c4954be,2022-09-08_17h32.03.753,CGTgamblingSpanTasks,2022.2.1,Win32,50.16806301,,,,,,,,,,,,,,,,,,,,,,,,,,,,,,,,,,,,,,,,,,,,,,,,,,,,,,,,,,,,,,,,,,,,,,,,,,,,,,,,,,"[9,8,1,2,4,7,6]",1,0,1,0,1,,,,,,,,,,,,,,,,,,,,,,,,,,,,,,,,,,,,,,,,,,,,,,,,
,,62d16bca486167475c4954be,2022-09-08_17h32.03.753,CGTgamblingSpanTasks,2022.2.1,Win32,50.16806301,,,,,,,,,,,,,,,,,,,,,,,,,,,,,,,,,,,,,,,,,,,,,,,,,,,,,,,,,,,,,,,,,,,,,,,,,,,,,,,,,,"[9,8,1,2,4,7,6]",2,0,2,0,1,,,,,,,,,,,,,,,,,,,,,,,,,,,,,,,,,,,,,,,,,,,,,,,,
,,62d16bca486167475c4954be,2022-09-08_17h32.03.753,CGTgamblingSpanTasks,2022.2.1,Win32,50.16806301,,,,,,,,,,,,,,,,,,,,,,,,,,,,,,,,,,,,,,,,,,,,,,,,,,,,,,,,,,,,,,,,,,,,,,,,,,,,,,,,,,"[9,8,1,2,4,7,6]",3,0,3,0,1,,,,,,,,,,,,,,,,,,,,,,,,,,,,,,,,,,,,,,,,,,,,,,,,
,,62d16bca486167475c4954be,2022-09-08_17h32.03.753,CGTgamblingSpanTasks,2022.2.1,Win32,50.16806301,,,,,,,,,,,,,,,,,,,,,,,,,,,,,,,,,,,,,,,,,,,,,,,,,,,,,,,,,,,,,,,,,,,,,,,,,,,,,,,,,,"[9,8,1,2,4,7,6]",4,0,4,0,1,,,,,,,,,,,,,,,,,,,,,,,,,,,,,,,,,,,,,,,,,,,,,,,,
,,62d16bca486167475c4954be,2022-09-08_17h32.03.753,CGTgamblingSpanTasks,2022.2.1,Win32,50.16806301,,,,,,,,,,,,,,,,,,,,,,,,,,,,,,,,,,,,,,,,,,,,,,,,,,,,,,,,,,,,,,,,,,,,,,,,,,,,,,,,,,"[9,8,1,2,4,7,6]",5,0,5,0,1,,,,,,,,,,,,,,,,,,,,,,,,,,,,,,,,,,,,,,,,,,,,,,,,
,,62d16bca486167475c4954be,2022-09-08_17h32.03.753,CGTgamblingSpanTasks,2022.2.1,Win32,50.16806301,,,,,,,,,,,,,,,,,,,,,,,,,,,,,,,,,,,,,,,,,,,,,,,,,,,,,,,,,,,,,,,,,,,,,,,,,,,,,,,,,,"[9,8,1,2,4,7,6]",6,0,6,0,1,,,,,,,,,,,,,,,,,,,,,,,,,,,,,,,,,,,,,,,,,,,,,,,,
,,62d16bca486167475c4954be,2022-09-08_17h32.03.753,CGTgamblingSpanTasks,2022.2.1,Win32,50.16806301,,,,,,,,,,,,,,,,,,,,,,,,,,,,,,,,,,,,,,,,,,,,,,,,,,,,,,,,,,,,,,,1,,,,,,,,,,,,,,,,,,,,,,,,,9812476,-0.033854167,-0.412760417,1,0,0,cont_button,0,11,11,11,1,12,,,,,,,,,,,,,,,,,,,,,,,,,,,,,,,,,,,
,,62d16bca486167475c4954be,2022-09-08_17h32.03.753,CGTgamblingSpanTasks,2022.2.1,Win32,50.16806301,,,,,,,,,,,,,,,,,,,,,,,,,,,,,,,,,,,,,,,,,,,,,,,,,,,,,,,,,,,,,,,,,,,,,,,,,,,,,,,,,,"[5,9,2,8,7,4,1,3]",0,0,0,0,1,,,,,,,,,,,,,,,,,,,,,,,,,,,,,,,,,,,,,,,,,,,,,,,,
,,62d16bca486167475c4954be,2022-09-08_17h32.03.753,CGTgamblingSpanTasks,2022.2.1,Win32,50.16806301,,,,,,,,,,,,,,,,,,,,,,,,,,,,,,,,,,,,,,,,,,,,,,,,,,,,,,,,,,,,,,,,,,,,,,,,,,,,,,,,,,"[5,9,2,8,7,4,1,3]",1,0,1,0,1,,,,,,,,,,,,,,,,,,,,,,,,,,,,,,,,,,,,,,,,,,,,,,,,
,,62d16bca486167475c4954be,2022-09-08_17h32.03.753,CGTgamblingSpanTasks,2022.2.1,Win32,50.16806301,,,,,,,,,,,,,,,,,,,,,,,,,,,,,,,,,,,,,,,,,,,,,,,,,,,,,,,,,,,,,,,,,,,,,,,,,,,,,,,,,,"[5,9,2,8,7,4,1,3]",2,0,2,0,1,,,,,,,,,,,,,,,,,,,,,,,,,,,,,,,,,,,,,,,,,,,,,,,,
,,62d16bca486167475c4954be,2022-09-08_17h32.03.753,CGTgamblingSpanTasks,2022.2.1,Win32,50.16806301,,,,,,,,,,,,,,,,,,,,,,,,,,,,,,,,,,,,,,,,,,,,,,,,,,,,,,,,,,,,,,,,,,,,,,,,,,,,,,,,,,"[5,9,2,8,7,4,1,3]",3,0,3,0,1,,,,,,,,,,,,,,,,,,,,,,,,,,,,,,,,,,,,,,,,,,,,,,,,
,,62d16bca486167475c4954be,2022-09-08_17h32.03.753,CGTgamblingSpanTasks,2022.2.1,Win32,50.16806301,,,,,,,,,,,,,,,,,,,,,,,,,,,,,,,,,,,,,,,,,,,,,,,,,,,,,,,,,,,,,,,,,,,,,,,,,,,,,,,,,,"[5,9,2,8,7,4,1,3]",4,0,4,0,1,,,,,,,,,,,,,,,,,,,,,,,,,,,,,,,,,,,,,,,,,,,,,,,,
,,62d16bca486167475c4954be,2022-09-08_17h32.03.753,CGTgamblingSpanTasks,2022.2.1,Win32,50.16806301,,,,,,,,,,,,,,,,,,,,,,,,,,,,,,,,,,,,,,,,,,,,,,,,,,,,,,,,,,,,,,,,,,,,,,,,,,,,,,,,,,"[5,9,2,8,7,4,1,3]",5,0,5,0,1,,,,,,,,,,,,,,,,,,,,,,,,,,,,,,,,,,,,,,,,,,,,,,,,
,,62d16bca486167475c4954be,2022-09-08_17h32.03.753,CGTgamblingSpanTasks,2022.2.1,Win32,50.16806301,,,,,,,,,,,,,,,,,,,,,,,,,,,,,,,,,,,,,,,,,,,,,,,,,,,,,,,,,,,,,,,,,,,,,,,,,,,,,,,,,,"[5,9,2,8,7,4,1,3]",6,0,6,0,1,,,,,,,,,,,,,,,,,,,,,,,,,,,,,,,,,,,,,,,,,,,,,,,,
,,62d16bca486167475c4954be,2022-09-08_17h32.03.753,CGTgamblingSpanTasks,2022.2.1,Win32,50.16806301,,,,,,,,,,,,,,,,,,,,,,,,,,,,,,,,,,,,,,,,,,,,,,,,,,,,,,,,,,,,,,,,,,,,,,,,,,,,,,,,,,"[5,9,2,8,7,4,1,3]",7,0,7,0,1,,,,,,,,,,,,,,,,,,,,,,,,,,,,,,,,,,,,,,,,,,,,,,,,
,,62d16bca486167475c4954be,2022-09-08_17h32.03.753,CGTgamblingSpanTasks,2022.2.1,Win32,50.16806301,,,,,,,,,,,,,,,,,,,,,,,,,,,,,,,,,,,,,,,,,,,,,,,,,,,,,,,,,,,,,,,1,,,,,,,,,,,,,,,,,,,,,,,,,59287413,-0.033854167,-0.412760417,1,0,0,cont_button,0,12,12,12,1,13,,,,,,,,,,,,,,,,,,,,,,,,,,,,,,,,,,,
,,62d16bca486167475c4954be,2022-09-08_17h32.03.753,CGTgamblingSpanTasks,2022.2.1,Win32,50.16806301,,,,,,,,,,,,,,,,,,,,,,,,,,,,,,,,,,,,,,,,,,,,,,,,,,,,,,,,,,,,,,,,,,,,,,,,,,,,,,,,,,"[8,5,6,4,7,2,3,9,1]",0,0,0,0,1,,,,,,,,,,,,,,,,,,,,,,,,,,,,,,,,,,,,,,,,,,,,,,,,
,,62d16bca486167475c4954be,2022-09-08_17h32.03.753,CGTgamblingSpanTasks,2022.2.1,Win32,50.16806301,,,,,,,,,,,,,,,,,,,,,,,,,,,,,,,,,,,,,,,,,,,,,,,,,,,,,,,,,,,,,,,,,,,,,,,,,,,,,,,,,,"[8,5,6,4,7,2,3,9,1]",1,0,1,0,1,,,,,,,,,,,,,,,,,,,,,,,,,,,,,,,,,,,,,,,,,,,,,,,,
,,62d16bca486167475c4954be,2022-09-08_17h32.03.753,CGTgamblingSpanTasks,2022.2.1,Win32,50.16806301,,,,,,,,,,,,,,,,,,,,,,,,,,,,,,,,,,,,,,,,,,,,,,,,,,,,,,,,,,,,,,,,,,,,,,,,,,,,,,,,,,"[8,5,6,4,7,2,3,9,1]",2,0,2,0,1,,,,,,,,,,,,,,,,,,,,,,,,,,,,,,,,,,,,,,,,,,,,,,,,
,,62d16bca486167475c4954be,2022-09-08_17h32.03.753,CGTgamblingSpanTasks,2022.2.1,Win32,50.16806301,,,,,,,,,,,,,,,,,,,,,,,,,,,,,,,,,,,,,,,,,,,,,,,,,,,,,,,,,,,,,,,,,,,,,,,,,,,,,,,,,,"[8,5,6,4,7,2,3,9,1]",3,0,3,0,1,,,,,,,,,,,,,,,,,,,,,,,,,,,,,,,,,,,,,,,,,,,,,,,,
,,62d16bca486167475c4954be,2022-09-08_17h32.03.753,CGTgamblingSpanTasks,2022.2.1,Win32,50.16806301,,,,,,,,,,,,,,,,,,,,,,,,,,,,,,,,,,,,,,,,,,,,,,,,,,,,,,,,,,,,,,,,,,,,,,,,,,,,,,,,,,"[8,5,6,4,7,2,3,9,1]",4,0,4,0,1,,,,,,,,,,,,,,,,,,,,,,,,,,,,,,,,,,,,,,,,,,,,,,,,
,,62d16bca486167475c4954be,2022-09-08_17h32.03.753,CGTgamblingSpanTasks,2022.2.1,Win32,50.16806301,,,,,,,,,,,,,,,,,,,,,,,,,,,,,,,,,,,,,,,,,,,,,,,,,,,,,,,,,,,,,,,,,,,,,,,,,,,,,,,,,,"[8,5,6,4,7,2,3,9,1]",5,0,5,0,1,,,,,,,,,,,,,,,,,,,,,,,,,,,,,,,,,,,,,,,,,,,,,,,,
,,62d16bca486167475c4954be,2022-09-08_17h32.03.753,CGTgamblingSpanTasks,2022.2.1,Win32,50.16806301,,,,,,,,,,,,,,,,,,,,,,,,,,,,,,,,,,,,,,,,,,,,,,,,,,,,,,,,,,,,,,,,,,,,,,,,,,,,,,,,,,"[8,5,6,4,7,2,3,9,1]",6,0,6,0,1,,,,,,,,,,,,,,,,,,,,,,,,,,,,,,,,,,,,,,,,,,,,,,,,
,,62d16bca486167475c4954be,2022-09-08_17h32.03.753,CGTgamblingSpanTasks,2022.2.1,Win32,50.16806301,,,,,,,,,,,,,,,,,,,,,,,,,,,,,,,,,,,,,,,,,,,,,,,,,,,,,,,,,,,,,,,,,,,,,,,,,,,,,,,,,,"[8,5,6,4,7,2,3,9,1]",7,0,7,0,1,,,,,,,,,,,,,,,,,,,,,,,,,,,,,,,,,,,,,,,,,,,,,,,,
,,62d16bca486167475c4954be,2022-09-08_17h32.03.753,CGTgamblingSpanTasks,2022.2.1,Win32,50.16806301,,,,,,,,,,,,,,,,,,,,,,,,,,,,,,,,,,,,,,,,,,,,,,,,,,,,,,,,,,,,,,,,,,,,,,,,,,,,,,,,,,"[8,5,6,4,7,2,3,9,1]",8,0,8,0,1,,,,,,,,,,,,,,,,,,,,,,,,,,,,,,,,,,,,,,,,,,,,,,,,
,,62d16bca486167475c4954be,2022-09-08_17h32.03.753,CGTgamblingSpanTasks,2022.2.1,Win32,50.16806301,,,,,,,,,,,,,,,,,,,,,,,,,,,,,,,,,,,,,,,,,,,,,,,,,,,,,,,,,,,,,,,1,,,,,,,,,,,,,,,,,,,,,,,,,856472391,-0.033854167,-0.420572917,1,0,0,cont_button,0,13,13,13,1,14,,,,,,,,,,,,,,,,,,,,,,,,,,,,,,,,,,,
,,62d16bca486167475c4954be,2022-09-08_17h32.03.753,CGTgamblingSpanTasks,2022.2.1,Win32,50.16806301,,,,,,,,,,,,,,,,,,,,,,,,,,,,,,,,,,,,,,,,,,,,,,,,,,,,,,,,,,,,,,,,,,,,,,,,,,,,,,,,,,,,,,,,,,,,,,,,,,,,,return,5.2487,,,,,,,,,,,,,,,,,,,,,,,,,,,,,,,,,
,,62d16bca486167475c4954be,2022-09-08_17h32.03.753,CGTgamblingSpanTasks,2022.2.1,Win32,50.16806301,,,,,,,,,,,,,,,,,,,,,,,,,,,,,,,,,,,,,,,,,,,,,,,,,,,,,,,,,,,,,,,,,,,,,,,,,,,,,,,,,,,,,,,,,,,,,,,,,,,,,,,return,18.3995,,,,,,,,,,,,,,,,,,,,,,,,,,,,,,,
,,62d16bca486167475c4954be,2022-09-08_17h32.03.753,CGTgamblingSpanTasks,2022.2.1,Win32,50.16806301,,,,,,,,,,,,,,,,,,,,,,,,,,,,,,,,,,,,,,,,,,,,,,,,,,,,,,,,,,,,,,,1,,,,,,,,,,,,3,342,24,2,42,,,,,,,,,,,,,,,,,,,,,,,,,,42,0.065104167,-0.38671875,1,0,0,cont_buttonPractice_2,0,0,0,0,1,,,,,,,,,,,,,,,,,,,
,,62d16bca486167475c4954be,2022-09-08_17h32.03.753,CGTgamblingSpanTasks,2022.2.1,Win32,50.16806301,,,,,,,,,,,,,,,,,,,,,,,,,,,,,,,,,,,,,,,,,,,,,,,,,,,,,,,,,,,,,,,1,,,,,,,,,,,,3,937,73,2,37,,,,,,,,,,,,,,,,,,,,,,,,,,37,0.037760417,-0.411458333,1,0,0,cont_buttonPractice_2,0,1,1,1,1,,,,,,,,,,,,,,,,,,,
,,62d16bca486167475c4954be,2022-09-08_17h32.03.753,CGTgamblingSpanTasks,2022.2.1,Win32,50.16806301,,,,,,,,,,,,,,,,,,,,,,,,,,,,,,,,,,,,,,,,,,,,,,,,,,,,,,,,,,,,,,,,,,,,,,,,,,,,,,,,,,,,,,,,,,,,,,,,,,,,,,,,,,,,,,,,,,,,,return,1.5987,,,,,,,,,,,,,,,,,
,,62d16bca486167475c4954be,2022-09-08_17h32.03.753,CGTgamblingSpanTasks,2022.2.1,Win32,50.16806301,,,,,,,,,,,,,,,,,,,,,,,,,,,,,,,,,,,,,,,,,,,,,,,,,,,,,,,,,,,,,,,,,,,,,,,,,,,,,,,,,,"[1,2]",,,,,,,,,,,,,,,,,,,,,,,,,,,,,,,,,,,,,0,0,0,0,1,,,,,,,,,,,,
,,62d16bca486167475c4954be,2022-09-08_17h32.03.753,CGTgamblingSpanTasks,2022.2.1,Win32,50.16806301,,,,,,,,,,,,,,,,,,,,,,,,,,,,,,,,,,,,,,,,,,,,,,,,,,,,,,,,,,,,,,,,,,,,,,,,,,,,,,,,,,"[1,2]",,,,,,,,,,,,,,,,,,,,,,,,,,,,,,,,,,,,,1,0,1,0,1,,,,,,,,,,,,
,,62d16bca486167475c4954be,2022-09-08_17h32.03.753,CGTgamblingSpanTasks,2022.2.1,Win32,50.16806301,,,,,,,,,,,,,,,,,,,,,,,,,,,,,,,,,,,,,,,,,,,,,,,,,,,,,,,,,,,,,,,1,,,,,,,,,,,,,,,,,,,,,,,,,,,,,,,,,,,,,1,,,,,,,,,,,,,,,,,,,,,,,,21,0.065104167,-0.397135417,1,0,0,cont_buttonBS,0,0,0,0,1
,,62d16bca486167475c4954be,2022-09-08_17h32.03.753,CGTgamblingSpanTasks,2022.2.1,Win32,50.16806301,,,,,,,,,,,,,,,,,,,,,,,,,,,,,,,,,,,,,,,,,,,,,,,,,,,,,,,,,,,,,,,,,,,,,,,,,,,,,,,,,,"[3,7,1]",,,,,,,,,,,,,,,,,,,,,,,,,,,,,,,,,,,,,0,0,0,0,1,,,,,,,,,,,,
,,62d16bca486167475c4954be,2022-09-08_17h32.03.753,CGTgamblingSpanTasks,2022.2.1,Win32,50.16806301,,,,,,,,,,,,,,,,,,,,,,,,,,,,,,,,,,,,,,,,,,,,,,,,,,,,,,,,,,,,,,,,,,,,,,,,,,,,,,,,,,"[3,7,1]",,,,,,,,,,,,,,,,,,,,,,,,,,,,,,,,,,,,,1,0,1,0,1,,,,,,,,,,,,
,,62d16bca486167475c4954be,2022-09-08_17h32.03.753,CGTgamblingSpanTasks,2022.2.1,Win32,50.16806301,,,,,,,,,,,,,,,,,,,,,,,,,,,,,,,,,,,,,,,,,,,,,,,,,,,,,,,,,,,,,,,,,,,,,,,,,,,,,,,,,,"[3,7,1]",,,,,,,,,,,,,,,,,,,,,,,,,,,,,,,,,,,,,2,0,2,0,1,,,,,,,,,,,,
,,62d16bca486167475c4954be,2022-09-08_17h32.03.753,CGTgamblingSpanTasks,2022.2.1,Win32,50.16806301,,,,,,,,,,,,,,,,,,,,,,,,,,,,,,,,,,,,,,,,,,,,,,,,,,,,,,,,,,,,,,,1,,,,,,,,,,,,,,,,,,,,,,,,,,,,,,,,,,,,,2,,,,,,,,,,,,,,,,,,,,,,,,173,0.04296875,-0.41015625,1,0,0,cont_buttonBS,0,1,1,1,1
,,62d16bca486167475c4954be,2022-09-08_17h32.03.753,CGTgamblingSpanTasks,2022.2.1,Win32,50.16806301,,,,,,,,,,,,,,,,,,,,,,,,,,,,,,,,,,,,,,,,,,,,,,,,,,,,,,,,,,,,,,,,,,,,,,,,,,,,,,,,,,"[7,8,3,9]",,,,,,,,,,,,,,,,,,,,,,,,,,,,,,,,,,,,,0,0,0,0,1,,,,,,,,,,,,
,,62d16bca486167475c4954be,2022-09-08_17h32.03.753,CGTgamblingSpanTasks,2022.2.1,Win32,50.16806301,,,,,,,,,,,,,,,,,,,,,,,,,,,,,,,,,,,,,,,,,,,,,,,,,,,,,,,,,,,,,,,,,,,,,,,,,,,,,,,,,,"[7,8,3,9]",,,,,,,,,,,,,,,,,,,,,,,,,,,,,,,,,,,,,1,0,1,0,1,,,,,,,,,,,,
,,62d16bca486167475c4954be,2022-09-08_17h32.03.753,CGTgamblingSpanTasks,2022.2.1,Win32,50.16806301,,,,,,,,,,,,,,,,,,,,,,,,,,,,,,,,,,,,,,,,,,,,,,,,,,,,,,,,,,,,,,,,,,,,,,,,,,,,,,,,,,"[7,8,3,9]",,,,,,,,,,,,,,,,,,,,,,,,,,,,,,,,,,,,,2,0,2,0,1,,,,,,,,,,,,
,,62d16bca486167475c4954be,2022-09-08_17h32.03.753,CGTgamblingSpanTasks,2022.2.1,Win32,50.16806301,,,,,,,,,,,,,,,,,,,,,,,,,,,,,,,,,,,,,,,,,,,,,,,,,,,,,,,,,,,,,,,,,,,,,,,,,,,,,,,,,,"[7,8,3,9]",,,,,,,,,,,,,,,,,,,,,,,,,,,,,,,,,,,,,3,0,3,0,1,,,,,,,,,,,,
,,62d16bca486167475c4954be,2022-09-08_17h32.03.753,CGTgamblingSpanTasks,2022.2.1,Win32,50.16806301,,,,,,,,,,,,,,,,,,,,,,,,,,,,,,,,,,,,,,,,,,,,,,,,,,,,,,,,,,,,,,,0,,,,,,,,,,,,,,,,,,,,,,,,,,,,,,,,,,,,,3,,,,,,,,,,,,,,,,,,,,,,,,9837,0.018229167,-0.415364583,1,0,0,cont_buttonBS,0,2,2,2,1
,,62d16bca486167475c4954be,2022-09-08_17h32.03.753,CGTgamblingSpanTasks,2022.2.1,Win32,50.16806301,,,,,,,,,,,,,,,,,,,,,,,,,,,,,,,,,,,,,,,,,,,,,,,,,,,,,,,,,,,,,,,,,,,,,,,,,,,,,,,,,,"[1,7,9,8]",,,,,,,,,,,,,,,,,,,,,,,,,,,,,,,,,,,,,0,0,0,0,1,,,,,,,,,,,,
,,62d16bca486167475c4954be,2022-09-08_17h32.03.753,CGTgamblingSpanTasks,2022.2.1,Win32,50.16806301,,,,,,,,,,,,,,,,,,,,,,,,,,,,,,,,,,,,,,,,,,,,,,,,,,,,,,,,,,,,,,,,,,,,,,,,,,,,,,,,,,"[1,7,9,8]",,,,,,,,,,,,,,,,,,,,,,,,,,,,,,,,,,,,,1,0,1,0,1,,,,,,,,,,,,
,,62d16bca486167475c4954be,2022-09-08_17h32.03.753,CGTgamblingSpanTasks,2022.2.1,Win32,50.16806301,,,,,,,,,,,,,,,,,,,,,,,,,,,,,,,,,,,,,,,,,,,,,,,,,,,,,,,,,,,,,,,,,,,,,,,,,,,,,,,,,,"[1,7,9,8]",,,,,,,,,,,,,,,,,,,,,,,,,,,,,,,,,,,,,2,0,2,0,1,,,,,,,,,,,,
,,62d16bca486167475c4954be,2022-09-08_17h32.03.753,CGTgamblingSpanTasks,2022.2.1,Win32,50.16806301,,,,,,,,,,,,,,,,,,,,,,,,,,,,,,,,,,,,,,,,,,,,,,,,,,,,,,,,,,,,,,,,,,,,,,,,,,,,,,,,,,"[1,7,9,8]",,,,,,,,,,,,,,,,,,,,,,,,,,,,,,,,,,,,,3,0,3,0,1,,,,,,,,,,,,
,,62d16bca486167475c4954be,2022-09-08_17h32.03.753,CGTgamblingSpanTasks,2022.2.1,Win32,50.16806301,,,,,,,,,,,,,,,,,,,,,,,,,,,,,,,,,,,,,,,,,,,,,,,,,,,,,,,,,,,,,,,1,,,,,,,,,,,,,,,,,,,,,,,,,,,,,,,,,,,,,4,,,,,,,,,,,,,,,,,,,,,,,,8971,0.018229167,-0.415364583,1,0,0,cont_buttonBS,0,3,3,3,1
,,62d16bca486167475c4954be,2022-09-08_17h32.03.753,CGTgamblingSpanTasks,2022.2.1,Win32,50.16806301,,,,,,,,,,,,,,,,,,,,,,,,,,,,,,,,,,,,,,,,,,,,,,,,,,,,,,,,,,,,,,,,,,,,,,,,,,,,,,,,,,"[7,3,2,8,6]",,,,,,,,,,,,,,,,,,,,,,,,,,,,,,,,,,,,,0,0,0,0,1,,,,,,,,,,,,
,,62d16bca486167475c4954be,2022-09-08_17h32.03.753,CGTgamblingSpanTasks,2022.2.1,Win32,50.16806301,,,,,,,,,,,,,,,,,,,,,,,,,,,,,,,,,,,,,,,,,,,,,,,,,,,,,,,,,,,,,,,,,,,,,,,,,,,,,,,,,,"[7,3,2,8,6]",,,,,,,,,,,,,,,,,,,,,,,,,,,,,,,,,,,,,1,0,1,0,1,,,,,,,,,,,,
,,62d16bca486167475c4954be,2022-09-08_17h32.03.753,CGTgamblingSpanTasks,2022.2.1,Win32,50.16806301,,,,,,,,,,,,,,,,,,,,,,,,,,,,,,,,,,,,,,,,,,,,,,,,,,,,,,,,,,,,,,,,,,,,,,,,,,,,,,,,,,"[7,3,2,8,6]",,,,,,,,,,,,,,,,,,,,,,,,,,,,,,,,,,,,,2,0,2,0,1,,,,,,,,,,,,
,,62d16bca486167475c4954be,2022-09-08_17h32.03.753,CGTgamblingSpanTasks,2022.2.1,Win32,50.16806301,,,,,,,,,,,,,,,,,,,,,,,,,,,,,,,,,,,,,,,,,,,,,,,,,,,,,,,,,,,,,,,,,,,,,,,,,,,,,,,,,,"[7,3,2,8,6]",,,,,,,,,,,,,,,,,,,,,,,,,,,,,,,,,,,,,3,0,3,0,1,,,,,,,,,,,,
,,62d16bca486167475c4954be,2022-09-08_17h32.03.753,CGTgamblingSpanTasks,2022.2.1,Win32,50.16806301,,,,,,,,,,,,,,,,,,,,,,,,,,,,,,,,,,,,,,,,,,,,,,,,,,,,,,,,,,,,,,,,,,,,,,,,,,,,,,,,,,"[7,3,2,8,6]",,,,,,,,,,,,,,,,,,,,,,,,,,,,,,,,,,,,,4,0,4,0,1,,,,,,,,,,,,
,,62d16bca486167475c4954be,2022-09-08_17h32.03.753,CGTgamblingSpanTasks,2022.2.1,Win32,50.16806301,,,,,,,,,,,,,,,,,,,,,,,,,,,,,,,,,,,,,,,,,,,,,,,,,,,,,,,,,,,,,,,1,,,,,,,,,,,,,,,,,,,,,,,,,,,,,,,,,,,,,5,,,,,,,,,,,,,,,,,,,,,,,,68237,0.002604167,-0.40625,1,0,0,cont_buttonBS,0,4,4,4,1
,,62d16bca486167475c4954be,2022-09-08_17h32.03.753,CGTgamblingSpanTasks,2022.2.1,Win32,50.16806301,,,,,,,,,,,,,,,,,,,,,,,,,,,,,,,,,,,,,,,,,,,,,,,,,,,,,,,,,,,,,,,,,,,,,,,,,,,,,,,,,,"[5,9,4,7,3,1]",,,,,,,,,,,,,,,,,,,,,,,,,,,,,,,,,,,,,0,0,0,0,1,,,,,,,,,,,,
,,62d16bca486167475c4954be,2022-09-08_17h32.03.753,CGTgamblingSpanTasks,2022.2.1,Win32,50.16806301,,,,,,,,,,,,,,,,,,,,,,,,,,,,,,,,,,,,,,,,,,,,,,,,,,,,,,,,,,,,,,,,,,,,,,,,,,,,,,,,,,"[5,9,4,7,3,1]",,,,,,,,,,,,,,,,,,,,,,,,,,,,,,,,,,,,,1,0,1,0,1,,,,,,,,,,,,
,,62d16bca486167475c4954be,2022-09-08_17h32.03.753,CGTgamblingSpanTasks,2022.2.1,Win32,50.16806301,,,,,,,,,,,,,,,,,,,,,,,,,,,,,,,,,,,,,,,,,,,,,,,,,,,,,,,,,,,,,,,,,,,,,,,,,,,,,,,,,,"[5,9,4,7,3,1]",,,,,,,,,,,,,,,,,,,,,,,,,,,,,,,,,,,,,2,0,2,0,1,,,,,,,,,,,,
,,62d16bca486167475c4954be,2022-09-08_17h32.03.753,CGTgamblingSpanTasks,2022.2.1,Win32,50.16806301,,,,,,,,,,,,,,,,,,,,,,,,,,,,,,,,,,,,,,,,,,,,,,,,,,,,,,,,,,,,,,,,,,,,,,,,,,,,,,,,,,"[5,9,4,7,3,1]",,,,,,,,,,,,,,,,,,,,,,,,,,,,,,,,,,,,,3,0,3,0,1,,,,,,,,,,,,
,,62d16bca486167475c4954be,2022-09-08_17h32.03.753,CGTgamblingSpanTasks,2022.2.1,Win32,50.16806301,,,,,,,,,,,,,,,,,,,,,,,,,,,,,,,,,,,,,,,,,,,,,,,,,,,,,,,,,,,,,,,,,,,,,,,,,,,,,,,,,,"[5,9,4,7,3,1]",,,,,,,,,,,,,,,,,,,,,,,,,,,,,,,,,,,,,4,0,4,0,1,,,,,,,,,,,,
,,62d16bca486167475c4954be,2022-09-08_17h32.03.753,CGTgamblingSpanTasks,2022.2.1,Win32,50.16806301,,,,,,,,,,,,,,,,,,,,,,,,,,,,,,,,,,,,,,,,,,,,,,,,,,,,,,,,,,,,,,,,,,,,,,,,,,,,,,,,,,"[5,9,4,7,3,1]",,,,,,,,,,,,,,,,,,,,,,,,,,,,,,,,,,,,,5,0,5,0,1,,,,,,,,,,,,
,,62d16bca486167475c4954be,2022-09-08_17h32.03.753,CGTgamblingSpanTasks,2022.2.1,Win32,50.16806301,,,,,,,,,,,,,,,,,,,,,,,,,,,,,,,,,,,,,,,,,,,,,,,,,,,,,,,,,,,,,,,1,,,,,,,,,,,,,,,,,,,,,,,,,,,,,,,,,,,,,6,,,,,,,,,,,,,,,,,,,,,,,,137495,0.06640625,-0.395833333,1,0,0,cont_buttonBS,0,5,5,5,1
,,62d16bca486167475c4954be,2022-09-08_17h32.03.753,CGTgamblingSpanTasks,2022.2.1,Win32,50.16806301,,,,,,,,,,,,,,,,,,,,,,,,,,,,,,,,,,,,,,,,,,,,,,,,,,,,,,,,,,,,,,,,,,,,,,,,,,,,,,,,,,"[9,5,6,1,3,4,2]",,,,,,,,,,,,,,,,,,,,,,,,,,,,,,,,,,,,,0,0,0,0,1,,,,,,,,,,,,
,,62d16bca486167475c4954be,2022-09-08_17h32.03.753,CGTgamblingSpanTasks,2022.2.1,Win32,50.16806301,,,,,,,,,,,,,,,,,,,,,,,,,,,,,,,,,,,,,,,,,,,,,,,,,,,,,,,,,,,,,,,,,,,,,,,,,,,,,,,,,,"[9,5,6,1,3,4,2]",,,,,,,,,,,,,,,,,,,,,,,,,,,,,,,,,,,,,1,0,1,0,1,,,,,,,,,,,,
,,62d16bca486167475c4954be,2022-09-08_17h32.03.753,CGTgamblingSpanTasks,2022.2.1,Win32,50.16806301,,,,,,,,,,,,,,,,,,,,,,,,,,,,,,,,,,,,,,,,,,,,,,,,,,,,,,,,,,,,,,,,,,,,,,,,,,,,,,,,,,"[9,5,6,1,3,4,2]",,,,,,,,,,,,,,,,,,,,,,,,,,,,,,,,,,,,,2,0,2,0,1,,,,,,,,,,,,
,,62d16bca486167475c4954be,2022-09-08_17h32.03.753,CGTgamblingSpanTasks,2022.2.1,Win32,50.16806301,,,,,,,,,,,,,,,,,,,,,,,,,,,,,,,,,,,,,,,,,,,,,,,,,,,,,,,,,,,,,,,,,,,,,,,,,,,,,,,,,,"[9,5,6,1,3,4,2]",,,,,,,,,,,,,,,,,,,,,,,,,,,,,,,,,,,,,3,0,3,0,1,,,,,,,,,,,,
,,62d16bca486167475c4954be,2022-09-08_17h32.03.753,CGTgamblingSpanTasks,2022.2.1,Win32,50.16806301,,,,,,,,,,,,,,,,,,,,,,,,,,,,,,,,,,,,,,,,,,,,,,,,,,,,,,,,,,,,,,,,,,,,,,,,,,,,,,,,,,"[9,5,6,1,3,4,2]",,,,,,,,,,,,,,,,,,,,,,,,,,,,,,,,,,,,,4,0,4,0,1,,,,,,,,,,,,
,,62d16bca486167475c4954be,2022-09-08_17h32.03.753,CGTgamblingSpanTasks,2022.2.1,Win32,50.16806301,,,,,,,,,,,,,,,,,,,,,,,,,,,,,,,,,,,,,,,,,,,,,,,,,,,,,,,,,,,,,,,,,,,,,,,,,,,,,,,,,,"[9,5,6,1,3,4,2]",,,,,,,,,,,,,,,,,,,,,,,,,,,,,,,,,,,,,5,0,5,0,1,,,,,,,,,,,,
,,62d16bca486167475c4954be,2022-09-08_17h32.03.753,CGTgamblingSpanTasks,2022.2.1,Win32,50.16806301,,,,,,,,,,,,,,,,,,,,,,,,,,,,,,,,,,,,,,,,,,,,,,,,,,,,,,,,,,,,,,,,,,,,,,,,,,,,,,,,,,"[9,5,6,1,3,4,2]",,,,,,,,,,,,,,,,,,,,,,,,,,,,,,,,,,,,,6,0,6,0,1,,,,,,,,,,,,
,,62d16bca486167475c4954be,2022-09-08_17h32.03.753,CGTgamblingSpanTasks,2022.2.1,Win32,50.16806301,,,,,,,,,,,,,,,,,,,,,,,,,,,,,,,,,,,,,,,,,,,,,,,,,,,,,,,,,,,,,,,0,,,,,,,,,,,,,,,,,,,,,,,,,,,,,,,,,,,,,7,,,,,,,,,,,,,,,,,,,,,,,,241356,0.014322917,-0.428385417,1,0,0,cont_buttonBS,0,6,6,6,1
,,62d16bca486167475c4954be,2022-09-08_17h32.03.753,CGTgamblingSpanTasks,2022.2.1,Win32,50.16806301,,,,,,,,,,,,,,,,,,,,,,,,,,,,,,,,,,,,,,,,,,,,,,,,,,,,,,,,,,,,,,,,,,,,,,,,,,,,,,,,,,"[8,2,3,1,4,5,7]",,,,,,,,,,,,,,,,,,,,,,,,,,,,,,,,,,,,,0,0,0,0,1,,,,,,,,,,,,
,,62d16bca486167475c4954be,2022-09-08_17h32.03.753,CGTgamblingSpanTasks,2022.2.1,Win32,50.16806301,,,,,,,,,,,,,,,,,,,,,,,,,,,,,,,,,,,,,,,,,,,,,,,,,,,,,,,,,,,,,,,,,,,,,,,,,,,,,,,,,,"[8,2,3,1,4,5,7]",,,,,,,,,,,,,,,,,,,,,,,,,,,,,,,,,,,,,1,0,1,0,1,,,,,,,,,,,,
,,62d16bca486167475c4954be,2022-09-08_17h32.03.753,CGTgamblingSpanTasks,2022.2.1,Win32,50.16806301,,,,,,,,,,,,,,,,,,,,,,,,,,,,,,,,,,,,,,,,,,,,,,,,,,,,,,,,,,,,,,,,,,,,,,,,,,,,,,,,,,"[8,2,3,1,4,5,7]",,,,,,,,,,,,,,,,,,,,,,,,,,,,,,,,,,,,,2,0,2,0,1,,,,,,,,,,,,
,,62d16bca486167475c4954be,2022-09-08_17h32.03.753,CGTgamblingSpanTasks,2022.2.1,Win32,50.16806301,,,,,,,,,,,,,,,,,,,,,,,,,,,,,,,,,,,,,,,,,,,,,,,,,,,,,,,,,,,,,,,,,,,,,,,,,,,,,,,,,,"[8,2,3,1,4,5,7]",,,,,,,,,,,,,,,,,,,,,,,,,,,,,,,,,,,,,3,0,3,0,1,,,,,,,,,,,,
,,62d16bca486167475c4954be,2022-09-08_17h32.03.753,CGTgamblingSpanTasks,2022.2.1,Win32,50.16806301,,,,,,,,,,,,,,,,,,,,,,,,,,,,,,,,,,,,,,,,,,,,,,,,,,,,,,,,,,,,,,,,,,,,,,,,,,,,,,,,,,"[8,2,3,1,4,5,7]",,,,,,,,,,,,,,,,,,,,,,,,,,,,,,,,,,,,,4,0,4,0,1,,,,,,,,,,,,
,,62d16bca486167475c4954be,2022-09-08_17h32.03.753,CGTgamblingSpanTasks,2022.2.1,Win32,50.16806301,,,,,,,,,,,,,,,,,,,,,,,,,,,,,,,,,,,,,,,,,,,,,,,,,,,,,,,,,,,,,,,,,,,,,,,,,,,,,,,,,,"[8,2,3,1,4,5,7]",,,,,,,,,,,,,,,,,,,,,,,,,,,,,,,,,,,,,5,0,5,0,1,,,,,,,,,,,,
,,62d16bca486167475c4954be,2022-09-08_17h32.03.753,CGTgamblingSpanTasks,2022.2.1,Win32,50.16806301,,,,,,,,,,,,,,,,,,,,,,,,,,,,,,,,,,,,,,,,,,,,,,,,,,,,,,,,,,,,,,,,,,,,,,,,,,,,,,,,,,"[8,2,3,1,4,5,7]",,,,,,,,,,,,,,,,,,,,,,,,,,,,,,,,,,,,,6,0,6,0,1,,,,,,,,,,,,
,,62d16bca486167475c4954be,2022-09-08_17h32.03.753,CGTgamblingSpanTasks,2022.2.1,Win32,50.16806301,,,,,,,,,,,,,,,,,,,,,,,,,,,,,,,,,,,,,,,,,,,,,,,,,,,,,,,,,,,,,,,1,,,,,,,,,,,,,,,,,,,,,,,,,,,,,,,,,,,,,8,,,,,,,,,,,,,,,,,,,,,,,,7541328,0.057291667,-0.408854167,1,0,0,cont_buttonBS,0,7,7,7,1
,,62d16bca486167475c4954be,2022-09-08_17h32.03.753,CGTgamblingSpanTasks,2022.2.1,Win32,50.16806301,,,,,,,,,,,,,,,,,,,,,,,,,,,,,,,,,,,,,,,,,,,,,,,,,,,,,,,,,,,,,,,,,,,,,,,,,,,,,,,,,,"[4,3,9,5,2,7,6,8]",,,,,,,,,,,,,,,,,,,,,,,,,,,,,,,,,,,,,0,0,0,0,1,,,,,,,,,,,,
,,62d16bca486167475c4954be,2022-09-08_17h32.03.753,CGTgamblingSpanTasks,2022.2.1,Win32,50.16806301,,,,,,,,,,,,,,,,,,,,,,,,,,,,,,,,,,,,,,,,,,,,,,,,,,,,,,,,,,,,,,,,,,,,,,,,,,,,,,,,,,"[4,3,9,5,2,7,6,8]",,,,,,,,,,,,,,,,,,,,,,,,,,,,,,,,,,,,,1,0,1,0,1,,,,,,,,,,,,
,,62d16bca486167475c4954be,2022-09-08_17h32.03.753,CGTgamblingSpanTasks,2022.2.1,Win32,50.16806301,,,,,,,,,,,,,,,,,,,,,,,,,,,,,,,,,,,,,,,,,,,,,,,,,,,,,,,,,,,,,,,,,,,,,,,,,,,,,,,,,,"[4,3,9,5,2,7,6,8]",,,,,,,,,,,,,,,,,,,,,,,,,,,,,,,,,,,,,2,0,2,0,1,,,,,,,,,,,,
,,62d16bca486167475c4954be,2022-09-08_17h32.03.753,CGTgamblingSpanTasks,2022.2.1,Win32,50.16806301,,,,,,,,,,,,,,,,,,,,,,,,,,,,,,,,,,,,,,,,,,,,,,,,,,,,,,,,,,,,,,,,,,,,,,,,,,,,,,,,,,"[4,3,9,5,2,7,6,8]",,,,,,,,,,,,,,,,,,,,,,,,,,,,,,,,,,,,,3,0,3,0,1,,,,,,,,,,,,
,,62d16bca486167475c4954be,2022-09-08_17h32.03.753,CGTgamblingSpanTasks,2022.2.1,Win32,50.16806301,,,,,,,,,,,,,,,,,,,,,,,,,,,,,,,,,,,,,,,,,,,,,,,,,,,,,,,,,,,,,,,,,,,,,,,,,,,,,,,,,,"[4,3,9,5,2,7,6,8]",,,,,,,,,,,,,,,,,,,,,,,,,,,,,,,,,,,,,4,0,4,0,1,,,,,,,,,,,,
,,62d16bca486167475c4954be,2022-09-08_17h32.03.753,CGTgamblingSpanTasks,2022.2.1,Win32,50.16806301,,,,,,,,,,,,,,,,,,,,,,,,,,,,,,,,,,,,,,,,,,,,,,,,,,,,,,,,,,,,,,,,,,,,,,,,,,,,,,,,,,"[4,3,9,5,2,7,6,8]",,,,,,,,,,,,,,,,,,,,,,,,,,,,,,,,,,,,,5,0,5,0,1,,,,,,,,,,,,
