initITIstatic,initITIdynamic,participant,date,expName,psychopyVersion,OS,frameRate,inst1.keys,inst1.rt,startPracResp.keys,startPracResp.rt,choice1.keys,choice1.rt,outcome,extraITI,trials.thisRepN,trials.thisTrialN,trials.thisN,trials.thisIndex,trials.ran,riskyGain,riskyLoss,alternative,isi,iti,loc,postPractResp.keys,postPractResp.rt,realloc,realChoice.keys,realChoice.rt,outcomes,choices,actualITI,init ITI,staticRDM.thisRepN,staticRDM.thisTrialN,staticRDM.thisN,staticRDM.thisIndex,staticRDM.ran,riskyoption1,riskyoption2,safeoption,ischecktrial,dynamicChoiceSetName,dynamicChoiceSetPath,bestRho,bestMu,trials_2.thisRepN,trials_2.thisTrialN,trials_2.thisN,trials_2.thisIndex,trials_2.ran,key_resp.keys,key_resp.rt,dynamicRDM.thisRepN,dynamicRDM.thisTrialN,dynamicRDM.thisN,dynamicRDM.thisIndex,dynamicRDM.ran,choiceP,easy0difficult1,stopBreak.keys,stopBreak.rt,movealong.keys,movealong.rt,startPractice.keys,startPractice.rt,textboxPractice.text,correct,mousePractice.x,mousePractice.y,mousePractice.leftButton,mousePractice.midButton,mousePractice.rightButton,mousePractice.clicked_name,trialFSPractice.thisRepN,trialFSPractice.thisTrialN,trialFSPractice.thisN,trialFSPractice.thisIndex,trialFSPractice.ran,digitSpanForward,digits,digitsReverse,digitSpanReverse,digitsReverseCorrAnswer,startFSreal.keys,startFSreal.rt,digitsForTrial,digitLoop.thisRepN,digitLoop.thisTrialN,digitLoop.thisN,digitLoop.thisIndex,digitLoop.ran,textbox.text,mouse_3.x,mouse_3.y,mouse_3.leftButton,mouse_3.midButton,mouse_3.rightButton,mouse_3.clicked_name,trialsFS.thisRepN,trialsFS.thisTrialN,trialsFS.thisN,trialsFS.thisIndex,trialsFS.ran,trialNumber,moveToBS.keys,moveToBS.rt,startBSprac.keys,startBSprac.rt,textboxPractice_2.text,mousePractice_2.x,mousePractice_2.y,mousePractice_2.leftButton,mousePractice_2.midButton,mousePractice_2.rightButton,mousePractice_2.clicked_name,trialsPracticeBS.thisRepN,trialsPracticeBS.thisTrialN,trialsPracticeBS.thisN,trialsPracticeBS.thisIndex,trialsPracticeBS.ran,startBSreal.keys,startBSreal.rt,digitLoopBS.thisRepN,digitLoopBS.thisTrialN,digitLoopBS.thisN,digitLoopBS.thisIndex,digitLoopBS.ran,textboxBS.text,mouseBS.x,mouseBS.y,mouseBS.leftButton,mouseBS.midButton,mouseBS.rightButton,mouseBS.clicked_name,trialsBS.thisRepN,trialsBS.thisTrialN,trialsBS.thisN,trialsBS.thisIndex,trialsBS.ran
"[1,1.5,1.5,1.5,1,1,1,1,1.5,1,1,1.5,1,1.5,1.5,1.5,1,1.5,1.5,1.5,1,1.5,1,1,1.5,1,1.5,1,1,1.5,1,1.5,1,1.5,1.5,1.5,1.5,1,1.5,1,1.5,1,1.5,1.5,1,1,1,1.5,1,1]","[1.5,1,1.5,1,1.5,1,1.5,1,1,1.5,1.5,1.5,1.5,1,1,1,1.5,1.5,1.5,1.5,1,1,1.5,1,1,1,1,1,1.5,1.5,1.5,1.5,1.5,1,1.5,1,1.5,1,1.5,1,1.5,1,1,1.5,1,1,1,1.5,1.5,1.5,1.5,1,1.5,1.5,1,1.5,1.5,1,1.5,1,1.5,1,1.5,1,1.5,1,1,1,1.5,1,1.5,1,1.5,1.5,1,1,1,1,1.5,1.5,1,1.5,1,1.5,1,1.5,1,1.5,1,1,1,1.5,1.5,1.5,1,1.5,1,1,1,1.5,1,1,1,1,1,1.5,1.5,1.5,1.5,1,1,1,1,1.5,1.5,1,1.5,1.5,1.5,1.5]",5f691df8cc431c0fb5c12739,2022-09-08_10h58.38.053,CGTgamblingSpanTasks,2022.2.1,Win32,59.9880024,,,,,,,,,,,,,,,,,,,,,,,,,,,,,,,,,,,,,,,,,,,,,,,,,,,,,,,,,,,,,,,,,,,,,,,,,,,,,,,,,,,,,,,,,,,,,,,,,,,,,,,,,,,,,,,,,,,,,,,,,,,,,,,,,,,,,,,
,,5f691df8cc431c0fb5c12739,2022-09-08_10h58.38.053,CGTgamblingSpanTasks,2022.2.1,Win32,59.9880024,return,4.9909,,,,,,,,,,,,,,,,,,,,,,,,,,,,,,,,,,,,,,,,,,,,,,,,,,,,,,,,,,,,,,,,,,,,,,,,,,,,,,,,,,,,,,,,,,,,,,,,,,,,,,,,,,,,,,,,,,,,,,,,,,,,,,,,,,,,,
,,5f691df8cc431c0fb5c12739,2022-09-08_10h58.38.053,CGTgamblingSpanTasks,2022.2.1,Win32,59.9880024,,,v,2.6699,,,,,,,,,,,,,,,,,,,,,,,,,,,,,,,,,,,,,,,,,,,,,,,,,,,,,,,,,,,,,,,,,,,,,,,,,,,,,,,,,,,,,,,,,,,,,,,,,,,,,,,,,,,,,,,,,,,,,,,,,,,,,,,,,,,
,,5f691df8cc431c0fb5c12739,2022-09-08_10h58.38.053,CGTgamblingSpanTasks,2022.2.1,Win32,59.9880024,,,,,n,1.557,9.45,2.443,0,0,0,0,1,18.23,0,9.45,2,1,1,,,,,,,,,,,,,,,,,,,,,,,,,,,,,,,,,,,,,,,,,,,,,,,,,,,,,,,,,,,,,,,,,,,,,,,,,,,,,,,,,,,,,,,,,,,,,,,,,,,,,,,,,,,,,,,,,,,,
,,5f691df8cc431c0fb5c12739,2022-09-08_10h58.38.053,CGTgamblingSpanTasks,2022.2.1,Win32,59.9880024,,,,,v,1.0115,0,2.9885,0,1,1,1,1,53.27,0,35.16,1,1.5,1,,,,,,,,,,,,,,,,,,,,,,,,,,,,,,,,,,,,,,,,,,,,,,,,,,,,,,,,,,,,,,,,,,,,,,,,,,,,,,,,,,,,,,,,,,,,,,,,,,,,,,,,,,,,,,,,,,,,
,,5f691df8cc431c0fb5c12739,2022-09-08_10h58.38.053,CGTgamblingSpanTasks,2022.2.1,Win32,59.9880024,,,,,v,1.0308,1.15,2.9692,0,2,2,2,1,8.27,0,1.15,1,1.5,2,,,,,,,,,,,,,,,,,,,,,,,,,,,,,,,,,,,,,,,,,,,,,,,,,,,,,,,,,,,,,,,,,,,,,,,,,,,,,,,,,,,,,,,,,,,,,,,,,,,,,,,,,,,,,,,,,,,,
,,5f691df8cc431c0fb5c12739,2022-09-08_10h58.38.053,CGTgamblingSpanTasks,2022.2.1,Win32,59.9880024,,,,,v,0.7526,0,3.2474,0,3,3,3,1,45.88,0,40.41,3,1,1,,,,,,,,,,,,,,,,,,,,,,,,,,,,,,,,,,,,,,,,,,,,,,,,,,,,,,,,,,,,,,,,,,,,,,,,,,,,,,,,,,,,,,,,,,,,,,,,,,,,,,,,,,,,,,,,,,,,
,,5f691df8cc431c0fb5c12739,2022-09-08_10h58.38.053,CGTgamblingSpanTasks,2022.2.1,Win32,59.9880024,,,,,n,0.8756,0,3.1244,0,4,4,4,1,21.56,0,11.96,1,1.5,2,,,,,,,,,,,,,,,,,,,,,,,,,,,,,,,,,,,,,,,,,,,,,,,,,,,,,,,,,,,,,,,,,,,,,,,,,,,,,,,,,,,,,,,,,,,,,,,,,,,,,,,,,,,,,,,,,,,,
,,5f691df8cc431c0fb5c12739,2022-09-08_10h58.38.053,CGTgamblingSpanTasks,2022.2.1,Win32,59.9880024,,,,,,,,,,,,,,,,,,,,n,3.3772,,,,,,,,,,,,,,,,,,,,,,,,,,,,,,,,,,,,,,,,,,,,,,,,,,,,,,,,,,,,,,,,,,,,,,,,,,,,,,,,,,,,,,,,,,,,,,,,,,,,,,,,,,,,,,,,,,
,,5f691df8cc431c0fb5c12739,2022-09-08_10h58.38.053,CGTgamblingSpanTasks,2022.2.1,Win32,59.9880024,,,,,,,,3.0607,,,,,,,,,,,,,,1,n,0.9393,6.19,0,4.0607,1,0,0,0,22,1,11.62,0,6.19,0,,,,,,,,,,,,,,,,,,,,,,,,,,,,,,,,,,,,,,,,,,,,,,,,,,,,,,,,,,,,,,,,,,,,,,,,,,,,,,,,,,,,,,,,,,,,,,,,,,
,,5f691df8cc431c0fb5c12739,2022-09-08_10h58.38.053,CGTgamblingSpanTasks,2022.2.1,Win32,59.9880024,,,,,,,,2.9357,,,,,,,,,,,,,,2,n,1.0643,0,1,4.4357,1.5,0,1,1,28,1,10.95,0,6.53,0,,,,,,,,,,,,,,,,,,,,,,,,,,,,,,,,,,,,,,,,,,,,,,,,,,,,,,,,,,,,,,,,,,,,,,,,,,,,,,,,,,,,,,,,,,,,,,,,,,
,,5f691df8cc431c0fb5c12739,2022-09-08_10h58.38.053,CGTgamblingSpanTasks,2022.2.1,Win32,59.9880024,,,,,,,,3.3702,,,,,,,,,,,,,,2,n,0.6298,0,1,4.8702,1.5,0,2,2,13,1,19.28,0,8.36,0,,,,,,,,,,,,,,,,,,,,,,,,,,,,,,,,,,,,,,,,,,,,,,,,,,,,,,,,,,,,,,,,,,,,,,,,,,,,,,,,,,,,,,,,,,,,,,,,,,
,,5f691df8cc431c0fb5c12739,2022-09-08_10h58.38.053,CGTgamblingSpanTasks,2022.2.1,Win32,59.9880024,,,,,,,,3.23,,,,,,,,,,,,,,2,v,0.77,4.68,0,4.73,1.5,0,3,3,44,1,13.1,7.73,4.68,1,,,,,,,,,,,,,,,,,,,,,,,,,,,,,,,,,,,,,,,,,,,,,,,,,,,,,,,,,,,,,,,,,,,,,,,,,,,,,,,,,,,,,,,,,,,,,,,,,,
,,5f691df8cc431c0fb5c12739,2022-09-08_10h58.38.053,CGTgamblingSpanTasks,2022.2.1,Win32,59.9880024,,,,,,,,3.6195,,,,,,,,,,,,,,2,n,0.3805,20.53,1,4.6195,1,0,4,4,9,1,20.53,0,7.73,0,,,,,,,,,,,,,,,,,,,,,,,,,,,,,,,,,,,,,,,,,,,,,,,,,,,,,,,,,,,,,,,,,,,,,,,,,,,,,,,,,,,,,,,,,,,,,,,,,,
,,5f691df8cc431c0fb5c12739,2022-09-08_10h58.38.053,CGTgamblingSpanTasks,2022.2.1,Win32,59.9880024,,,,,,,,3.0917,,,,,,,,,,,,,,1,n,0.9083,5.03,0,4.0917,1,0,5,5,8,1,13.94,0,5.03,0,,,,,,,,,,,,,,,,,,,,,,,,,,,,,,,,,,,,,,,,,,,,,,,,,,,,,,,,,,,,,,,,,,,,,,,,,,,,,,,,,,,,,,,,,,,,,,,,,,
,,5f691df8cc431c0fb5c12739,2022-09-08_10h58.38.053,CGTgamblingSpanTasks,2022.2.1,Win32,59.9880024,,,,,,,,3.0851,,,,,,,,,,,,,,1,n,0.9149,6.73,0,4.0851,1,0,6,6,32,1,10.55,0,6.73,0,,,,,,,,,,,,,,,,,,,,,,,,,,,,,,,,,,,,,,,,,,,,,,,,,,,,,,,,,,,,,,,,,,,,,,,,,,,,,,,,,,,,,,,,,,,,,,,,,,
,,5f691df8cc431c0fb5c12739,2022-09-08_10h58.38.053,CGTgamblingSpanTasks,2022.2.1,Win32,59.9880024,,,,,,,,3.4253,,,,,,,,,,,,,,1,v,0.5747,16.26,1,4.4253,1,0,7,7,29,1,16.26,0,9.87,0,,,,,,,,,,,,,,,,,,,,,,,,,,,,,,,,,,,,,,,,,,,,,,,,,,,,,,,,,,,,,,,,,,,,,,,,,,,,,,,,,,,,,,,,,,,,,,,,,,
,,5f691df8cc431c0fb5c12739,2022-09-08_10h58.38.053,CGTgamblingSpanTasks,2022.2.1,Win32,59.9880024,,,,,,,,3.0226,,,,,,,,,,,,,,2,v,0.9774,9.5,0,4.5226,1.5,0,8,8,25,1,17,0,9.5,0,,,,,,,,,,,,,,,,,,,,,,,,,,,,,,,,,,,,,,,,,,,,,,,,,,,,,,,,,,,,,,,,,,,,,,,,,,,,,,,,,,,,,,,,,,,,,,,,,,
,,5f691df8cc431c0fb5c12739,2022-09-08_10h58.38.053,CGTgamblingSpanTasks,2022.2.1,Win32,59.9880024,,,,,,,,2.7188,,,,,,,,,,,,,,2,v,1.2812,10.37,0,3.7188,1,0,9,9,37,1,15.27,0,10.37,0,,,,,,,,,,,,,,,,,,,,,,,,,,,,,,,,,,,,,,,,,,,,,,,,,,,,,,,,,,,,,,,,,,,,,,,,,,,,,,,,,,,,,,,,,,,,,,,,,,
,,5f691df8cc431c0fb5c12739,2022-09-08_10h58.38.053,CGTgamblingSpanTasks,2022.2.1,Win32,59.9880024,,,,,,,,3.3224,,,,,,,,,,,,,,2,v,0.6776,3.13,0,4.3224,1,0,10,10,2,1,17.73,0,3.13,0,,,,,,,,,,,,,,,,,,,,,,,,,,,,,,,,,,,,,,,,,,,,,,,,,,,,,,,,,,,,,,,,,,,,,,,,,,,,,,,,,,,,,,,,,,,,,,,,,,
,,5f691df8cc431c0fb5c12739,2022-09-08_10h58.38.053,CGTgamblingSpanTasks,2022.2.1,Win32,59.9880024,,,,,,,,1.6391,,,,,,,,,,,,,,1,n,2.3609,3.13,0,3.1391,1.5,0,11,11,47,1,0,0,3.13,1,,,,,,,,,,,,,,,,,,,,,,,,,,,,,,,,,,,,,,,,,,,,,,,,,,,,,,,,,,,,,,,,,,,,,,,,,,,,,,,,,,,,,,,,,,,,,,,,,,
,,5f691df8cc431c0fb5c12739,2022-09-08_10h58.38.053,CGTgamblingSpanTasks,2022.2.1,Win32,59.9880024,,,,,,,,2.9882,,,,,,,,,,,,,,1,n,1.0118,9.36,0,3.9882,1,0,12,12,23,1,17.28,0,9.36,0,,,,,,,,,,,,,,,,,,,,,,,,,,,,,,,,,,,,,,,,,,,,,,,,,,,,,,,,,,,,,,,,,,,,,,,,,,,,,,,,,,,,,,,,,,,,,,,,,,
,,5f691df8cc431c0fb5c12739,2022-09-08_10h58.38.053,CGTgamblingSpanTasks,2022.2.1,Win32,59.9880024,,,,,,,,3.0737,,,,,,,,,,,,,,2,v,0.9263,10.15,0,4.5737,1.5,0,13,13,33,1,15.7,0,10.15,0,,,,,,,,,,,,,,,,,,,,,,,,,,,,,,,,,,,,,,,,,,,,,,,,,,,,,,,,,,,,,,,,,,,,,,,,,,,,,,,,,,,,,,,,,,,,,,,,,,
,,5f691df8cc431c0fb5c12739,2022-09-08_10h58.38.053,CGTgamblingSpanTasks,2022.2.1,Win32,59.9880024,,,,,,,,2.2892,,,,,,,,,,,,,,2,n,1.7108,19.86,1,3.7892,1.5,0,14,14,42,1,19.86,0,0,1,,,,,,,,,,,,,,,,,,,,,,,,,,,,,,,,,,,,,,,,,,,,,,,,,,,,,,,,,,,,,,,,,,,,,,,,,,,,,,,,,,,,,,,,,,,,,,,,,,
,,5f691df8cc431c0fb5c12739,2022-09-08_10h58.38.053,CGTgamblingSpanTasks,2022.2.1,Win32,59.9880024,,,,,,,,3.0734,,,,,,,,,,,,,,2,v,0.9266,4.64,0,4.5734,1.5,0,15,15,6,1,14.72,0,4.64,0,,,,,,,,,,,,,,,,,,,,,,,,,,,,,,,,,,,,,,,,,,,,,,,,,,,,,,,,,,,,,,,,,,,,,,,,,,,,,,,,,,,,,,,,,,,,,,,,,,
,,5f691df8cc431c0fb5c12739,2022-09-08_10h58.38.053,CGTgamblingSpanTasks,2022.2.1,Win32,59.9880024,,,,,,,,3.0829,,,,,,,,,,,,,,2,v,0.9171,5.4,0,4.0829,1,0,16,16,3,1,25.2,0,5.4,0,,,,,,,,,,,,,,,,,,,,,,,,,,,,,,,,,,,,,,,,,,,,,,,,,,,,,,,,,,,,,,,,,,,,,,,,,,,,,,,,,,,,,,,,,,,,,,,,,,
,,5f691df8cc431c0fb5c12739,2022-09-08_10h58.38.053,CGTgamblingSpanTasks,2022.2.1,Win32,59.9880024,,,,,,,,3.3108,,,,,,,,,,,,,,2,v,0.6892,6.51,0,4.8108,1.5,0,17,17,5,1,22.97,0,6.51,0,,,,,,,,,,,,,,,,,,,,,,,,,,,,,,,,,,,,,,,,,,,,,,,,,,,,,,,,,,,,,,,,,,,,,,,,,,,,,,,,,,,,,,,,,,,,,,,,,,
,,5f691df8cc431c0fb5c12739,2022-09-08_10h58.38.053,CGTgamblingSpanTasks,2022.2.1,Win32,59.9880024,,,,,,,,3.2227,,,,,,,,,,,,,,2,v,0.7773,5.82,0,4.7227,1.5,0,18,18,16,1,12.36,0,5.82,0,,,,,,,,,,,,,,,,,,,,,,,,,,,,,,,,,,,,,,,,,,,,,,,,,,,,,,,,,,,,,,,,,,,,,,,,,,,,,,,,,,,,,,,,,,,,,,,,,,
,,5f691df8cc431c0fb5c12739,2022-09-08_10h58.38.053,CGTgamblingSpanTasks,2022.2.1,Win32,59.9880024,,,,,,,,3.1837,,,,,,,,,,,,,,2,v,0.8163,3.89,0,4.6837,1.5,0,19,19,1,1,28.21,0,3.89,0,,,,,,,,,,,,,,,,,,,,,,,,,,,,,,,,,,,,,,,,,,,,,,,,,,,,,,,,,,,,,,,,,,,,,,,,,,,,,,,,,,,,,,,,,,,,,,,,,,
,,5f691df8cc431c0fb5c12739,2022-09-08_10h58.38.053,CGTgamblingSpanTasks,2022.2.1,Win32,59.9880024,,,,,,,,2.9271,,,,,,,,,,,,,,2,v,1.0729,5.27,0,3.9271,1,0,20,20,10,1,13.45,0,5.27,0,,,,,,,,,,,,,,,,,,,,,,,,,,,,,,,,,,,,,,,,,,,,,,,,,,,,,,,,,,,,,,,,,,,,,,,,,,,,,,,,,,,,,,,,,,,,,,,,,,
,,5f691df8cc431c0fb5c12739,2022-09-08_10h58.38.053,CGTgamblingSpanTasks,2022.2.1,Win32,59.9880024,,,,,,,,1.8685,,,,,,,,,,,,,,1,n,2.1315,8.61,0,3.3685,1.5,0,21,21,15,1,18.77,0,8.61,0,,,,,,,,,,,,,,,,,,,,,,,,,,,,,,,,,,,,,,,,,,,,,,,,,,,,,,,,,,,,,,,,,,,,,,,,,,,,,,,,,,,,,,,,,,,,,,,,,,
,,5f691df8cc431c0fb5c12739,2022-09-08_10h58.38.053,CGTgamblingSpanTasks,2022.2.1,Win32,59.9880024,,,,,,,,3.307,,,,,,,,,,,,,,1,n,0.693,9.2,0,4.307,1,0,22,22,21,1,17.59,0,9.2,0,,,,,,,,,,,,,,,,,,,,,,,,,,,,,,,,,,,,,,,,,,,,,,,,,,,,,,,,,,,,,,,,,,,,,,,,,,,,,,,,,,,,,,,,,,,,,,,,,,
,,5f691df8cc431c0fb5c12739,2022-09-08_10h58.38.053,CGTgamblingSpanTasks,2022.2.1,Win32,59.9880024,,,,,,,,3.2572,,,,,,,,,,,,,,1,n,0.7428,7.55,0,4.2572,1,0,23,23,45,1,0,0,7.55,1,,,,,,,,,,,,,,,,,,,,,,,,,,,,,,,,,,,,,,,,,,,,,,,,,,,,,,,,,,,,,,,,,,,,,,,,,,,,,,,,,,,,,,,,,,,,,,,,,,
,,5f691df8cc431c0fb5c12739,2022-09-08_10h58.38.053,CGTgamblingSpanTasks,2022.2.1,Win32,59.9880024,,,,,,,,2.3601,,,,,,,,,,,,,,2,n,1.6399,0,1,3.8601,1.5,0,24,24,41,1,14.26,0,0,1,,,,,,,,,,,,,,,,,,,,,,,,,,,,,,,,,,,,,,,,,,,,,,,,,,,,,,,,,,,,,,,,,,,,,,,,,,,,,,,,,,,,,,,,,,,,,,,,,,
,,5f691df8cc431c0fb5c12739,2022-09-08_10h58.38.053,CGTgamblingSpanTasks,2022.2.1,Win32,59.9880024,,,,,,,,2.9334,,,,,,,,,,,,,,1,n,1.0666,9.03,0,3.9334,1,0,25,25,19,1,17.94,0,9.03,0,,,,,,,,,,,,,,,,,,,,,,,,,,,,,,,,,,,,,,,,,,,,,,,,,,,,,,,,,,,,,,,,,,,,,,,,,,,,,,,,,,,,,,,,,,,,,,,,,,
,,5f691df8cc431c0fb5c12739,2022-09-08_10h58.38.053,CGTgamblingSpanTasks,2022.2.1,Win32,59.9880024,,,,,,,,2.9976,,,,,,,,,,,,,,1,n,1.0024,1.99,0,4.4976,1.5,0,26,26,0,1,20.03,0,1.99,0,,,,,,,,,,,,,,,,,,,,,,,,,,,,,,,,,,,,,,,,,,,,,,,,,,,,,,,,,,,,,,,,,,,,,,,,,,,,,,,,,,,,,,,,,,,,,,,,,,
,,5f691df8cc431c0fb5c12739,2022-09-08_10h58.38.053,CGTgamblingSpanTasks,2022.2.1,Win32,59.9880024,,,,,,,,3.0122,,,,,,,,,,,,,,2,n,0.9878,16.6,1,4.0122,1,0,27,27,27,1,16.6,0,9.7,0,,,,,,,,,,,,,,,,,,,,,,,,,,,,,,,,,,,,,,,,,,,,,,,,,,,,,,,,,,,,,,,,,,,,,,,,,,,,,,,,,,,,,,,,,,,,,,,,,,
,,5f691df8cc431c0fb5c12739,2022-09-08_10h58.38.053,CGTgamblingSpanTasks,2022.2.1,Win32,59.9880024,,,,,,,,3.208,,,,,,,,,,,,,,2,n,0.792,11.84,1,4.208,1,0,28,28,20,1,11.84,0,6.08,0,,,,,,,,,,,,,,,,,,,,,,,,,,,,,,,,,,,,,,,,,,,,,,,,,,,,,,,,,,,,,,,,,,,,,,,,,,,,,,,,,,,,,,,,,,,,,,,,,,
,,5f691df8cc431c0fb5c12739,2022-09-08_10h58.38.053,CGTgamblingSpanTasks,2022.2.1,Win32,59.9880024,,,,,,,,3.2275,,,,,,,,,,,,,,2,v,0.7725,6.63,0,4.7275,1.5,0,29,29,30,1,10.73,0,6.63,0,,,,,,,,,,,,,,,,,,,,,,,,,,,,,,,,,,,,,,,,,,,,,,,,,,,,,,,,,,,,,,,,,,,,,,,,,,,,,,,,,,,,,,,,,,,,,,,,,,
,,5f691df8cc431c0fb5c12739,2022-09-08_10h58.38.053,CGTgamblingSpanTasks,2022.2.1,Win32,59.9880024,,,,,,,,2.7015,,,,,,,,,,,,,,1,n,1.2985,10.68,0,3.7015,1,0,30,30,48,1,10.68,0,10.68,1,,,,,,,,,,,,,,,,,,,,,,,,,,,,,,,,,,,,,,,,,,,,,,,,,,,,,,,,,,,,,,,,,,,,,,,,,,,,,,,,,,,,,,,,,,,,,,,,,,
,,5f691df8cc431c0fb5c12739,2022-09-08_10h58.38.053,CGTgamblingSpanTasks,2022.2.1,Win32,59.9880024,,,,,,,,3.1275,,,,,,,,,,,,,,1,n,0.8725,10.27,0,4.6275,1.5,0,31,31,35,1,15.47,0,10.27,0,,,,,,,,,,,,,,,,,,,,,,,,,,,,,,,,,,,,,,,,,,,,,,,,,,,,,,,,,,,,,,,,,,,,,,,,,,,,,,,,,,,,,,,,,,,,,,,,,,
,,5f691df8cc431c0fb5c12739,2022-09-08_10h58.38.053,CGTgamblingSpanTasks,2022.2.1,Win32,59.9880024,,,,,,,,3.2409,,,,,,,,,,,,,,2,v,0.7591,10.25,0,4.2409,1,0,32,32,46,1,0,0,10.25,1,,,,,,,,,,,,,,,,,,,,,,,,,,,,,,,,,,,,,,,,,,,,,,,,,,,,,,,,,,,,,,,,,,,,,,,,,,,,,,,,,,,,,,,,,,,,,,,,,,
,,5f691df8cc431c0fb5c12739,2022-09-08_10h58.38.053,CGTgamblingSpanTasks,2022.2.1,Win32,59.9880024,,,,,,,,2.2553,,,,,,,,,,,,,,2,v,1.7447,5.96,0,3.7553,1.5,0,33,33,18,1,12.08,0,5.96,0,,,,,,,,,,,,,,,,,,,,,,,,,,,,,,,,,,,,,,,,,,,,,,,,,,,,,,,,,,,,,,,,,,,,,,,,,,,,,,,,,,,,,,,,,,,,,,,,,,
,,5f691df8cc431c0fb5c12739,2022-09-08_10h58.38.053,CGTgamblingSpanTasks,2022.2.1,Win32,59.9880024,,,,,,,,2.6086,,,,,,,,,,,,,,1,n,1.3914,0,0,4.1086,1.5,0,34,34,40,1,10.35,0,0,1,,,,,,,,,,,,,,,,,,,,,,,,,,,,,,,,,,,,,,,,,,,,,,,,,,,,,,,,,,,,,,,,,,,,,,,,,,,,,,,,,,,,,,,,,,,,,,,,,,
,,5f691df8cc431c0fb5c12739,2022-09-08_10h58.38.053,CGTgamblingSpanTasks,2022.2.1,Win32,59.9880024,,,,,,,,1.6531,,,,,,,,,,,,,,2,v,2.3469,10.02,0,3.1531,1.5,0,35,35,31,1,15.96,0,10.02,0,,,,,,,,,,,,,,,,,,,,,,,,,,,,,,,,,,,,,,,,,,,,,,,,,,,,,,,,,,,,,,,,,,,,,,,,,,,,,,,,,,,,,,,,,,,,,,,,,,
,,5f691df8cc431c0fb5c12739,2022-09-08_10h58.38.053,CGTgamblingSpanTasks,2022.2.1,Win32,59.9880024,,,,,,,,2.9422,,,,,,,,,,,,,,1,n,1.0578,7.34,0,4.4422,1.5,0,36,36,7,1,21.32,0,7.34,0,,,,,,,,,,,,,,,,,,,,,,,,,,,,,,,,,,,,,,,,,,,,,,,,,,,,,,,,,,,,,,,,,,,,,,,,,,,,,,,,,,,,,,,,,,,,,,,,,,
,,5f691df8cc431c0fb5c12739,2022-09-08_10h58.38.053,CGTgamblingSpanTasks,2022.2.1,Win32,59.9880024,,,,,,,,2.0875,,,,,,,,,,,,,,2,v,1.9125,5.48,0,3.0875,1,0,37,37,12,1,13.04,0,5.48,0,,,,,,,,,,,,,,,,,,,,,,,,,,,,,,,,,,,,,,,,,,,,,,,,,,,,,,,,,,,,,,,,,,,,,,,,,,,,,,,,,,,,,,,,,,,,,,,,,,
,,5f691df8cc431c0fb5c12739,2022-09-08_10h58.38.053,CGTgamblingSpanTasks,2022.2.1,Win32,59.9880024,,,,,,,,1.956,,,,,,,,,,,,,,2,v,2.044,6.4,0,3.456,1.5,0,38,38,26,1,11.2,0,6.4,0,,,,,,,,,,,,,,,,,,,,,,,,,,,,,,,,,,,,,,,,,,,,,,,,,,,,,,,,,,,,,,,,,,,,,,,,,,,,,,,,,,,,,,,,,,,,,,,,,,
,,5f691df8cc431c0fb5c12739,2022-09-08_10h58.38.053,CGTgamblingSpanTasks,2022.2.1,Win32,59.9880024,,,,,,,,3.0746,,,,,,,,,,,,,,2,v,0.9254,6.94,0,4.0746,1,0,39,39,38,1,10.12,0,6.94,0,,,,,,,,,,,,,,,,,,,,,,,,,,,,,,,,,,,,,,,,,,,,,,,,,,,,,,,,,,,,,,,,,,,,,,,,,,,,,,,,,,,,,,,,,,,,,,,,,,
,,5f691df8cc431c0fb5c12739,2022-09-08_10h58.38.053,CGTgamblingSpanTasks,2022.2.1,Win32,59.9880024,,,,,,,,3.1624,,,,,,,,,,,,,,1,v,0.8376,18.33,1,4.6624,1.5,0,40,40,17,1,18.33,0,8.84,0,,,,,,,,,,,,,,,,,,,,,,,,,,,,,,,,,,,,,,,,,,,,,,,,,,,,,,,,,,,,,,,,,,,,,,,,,,,,,,,,,,,,,,,,,,,,,,,,,,
,,5f691df8cc431c0fb5c12739,2022-09-08_10h58.38.053,CGTgamblingSpanTasks,2022.2.1,Win32,59.9880024,,,,,,,,1.6758,,,,,,,,,,,,,,2,v,2.3242,8.07,0,2.6758,1,0,41,41,11,1,19.86,0,8.07,0,,,,,,,,,,,,,,,,,,,,,,,,,,,,,,,,,,,,,,,,,,,,,,,,,,,,,,,,,,,,,,,,,,,,,,,,,,,,,,,,,,,,,,,,,,,,,,,,,,
,,5f691df8cc431c0fb5c12739,2022-09-08_10h58.38.053,CGTgamblingSpanTasks,2022.2.1,Win32,59.9880024,,,,,,,,3.2737,,,,,,,,,,,,,,2,v,0.7263,4,0,4.7737,1.5,0,42,42,4,1,16,0,4,0,,,,,,,,,,,,,,,,,,,,,,,,,,,,,,,,,,,,,,,,,,,,,,,,,,,,,,,,,,,,,,,,,,,,,,,,,,,,,,,,,,,,,,,,,,,,,,,,,,
,,5f691df8cc431c0fb5c12739,2022-09-08_10h58.38.053,CGTgamblingSpanTasks,2022.2.1,Win32,59.9880024,,,,,,,,3.0109,,,,,,,,,,,,,,1,v,0.9891,12.68,1,4.5109,1.5,0,43,43,14,1,12.68,0,5.66,0,,,,,,,,,,,,,,,,,,,,,,,,,,,,,,,,,,,,,,,,,,,,,,,,,,,,,,,,,,,,,,,,,,,,,,,,,,,,,,,,,,,,,,,,,,,,,,,,,,
,,5f691df8cc431c0fb5c12739,2022-09-08_10h58.38.053,CGTgamblingSpanTasks,2022.2.1,Win32,59.9880024,,,,,,,,3.2516,,,,,,,,,,,,,,2,v,0.7484,9.92,0,4.2516,1,0,44,44,49,1,6.79,0,9.92,1,,,,,,,,,,,,,,,,,,,,,,,,,,,,,,,,,,,,,,,,,,,,,,,,,,,,,,,,,,,,,,,,,,,,,,,,,,,,,,,,,,,,,,,,,,,,,,,,,,
,,5f691df8cc431c0fb5c12739,2022-09-08_10h58.38.053,CGTgamblingSpanTasks,2022.2.1,Win32,59.9880024,,,,,,,,3.2607,,,,,,,,,,,,,,1,n,0.7393,6.81,0,4.2607,1,0,45,45,34,1,10.39,0,6.81,0,,,,,,,,,,,,,,,,,,,,,,,,,,,,,,,,,,,,,,,,,,,,,,,,,,,,,,,,,,,,,,,,,,,,,,,,,,,,,,,,,,,,,,,,,,,,,,,,,,
,,5f691df8cc431c0fb5c12739,2022-09-08_10h58.38.053,CGTgamblingSpanTasks,2022.2.1,Win32,59.9880024,,,,,,,,3.2943,,,,,,,,,,,,,,1,n,0.7057,10.46,0,4.2943,1,0,46,46,39,1,15.09,0,10.46,0,,,,,,,,,,,,,,,,,,,,,,,,,,,,,,,,,,,,,,,,,,,,,,,,,,,,,,,,,,,,,,,,,,,,,,,,,,,,,,,,,,,,,,,,,,,,,,,,,,
,,5f691df8cc431c0fb5c12739,2022-09-08_10h58.38.053,CGTgamblingSpanTasks,2022.2.1,Win32,59.9880024,,,,,,,,2.5273,,,,,,,,,,,,,,2,v,1.4727,6.88,0,4.0273,1.5,0,47,47,36,1,10.24,0,6.88,0,,,,,,,,,,,,,,,,,,,,,,,,,,,,,,,,,,,,,,,,,,,,,,,,,,,,,,,,,,,,,,,,,,,,,,,,,,,,,,,,,,,,,,,,,,,,,,,,,,
,,5f691df8cc431c0fb5c12739,2022-09-08_10h58.38.053,CGTgamblingSpanTasks,2022.2.1,Win32,59.9880024,,,,,,,,3.2706,,,,,,,,,,,,,,1,n,0.7294,6.29,0,4.2706,1,0,48,48,24,1,11.43,0,6.29,0,,,,,,,,,,,,,,,,,,,,,,,,,,,,,,,,,,,,,,,,,,,,,,,,,,,,,,,,,,,,,,,,,,,,,,,,,,,,,,,,,,,,,,,,,,,,,,,,,,
,,5f691df8cc431c0fb5c12739,2022-09-08_10h58.38.053,CGTgamblingSpanTasks,2022.2.1,Win32,59.9880024,,,,,,,,3.2606,,,,,,,,,,,,,,2,v,0.7394,6.99,0,4.2606,1,0,49,49,43,1,16.11,6.99,6.99,1,,,,,,,,,,,,,,,,,,,,,,,,,,,,,,,,,,,,,,,,,,,,,,,,,,,,,,,,,,,,,,,,,,,,,,,,,,,,,,,,,,,,,,,,,,,,,,,,,,
,,5f691df8cc431c0fb5c12739,2022-09-08_10h58.38.053,CGTgamblingSpanTasks,2022.2.1,Win32,59.9880024,,,,,,,,,,,,,,,,,,,,,,,,,,,,,,,,,,,,,,bespoke_choiceset_rhoInd001_muInd001.csv,bespoke_choicesets/bespoke_choiceset_rhoInd001_muInd001.csv,1,1,0,0,0,0,1,,,,,,,,,,,,,,,,,,,,,,,,,,,,,,,,,,,,,,,,,,,,,,,,,,,,,,,,,,,,,,,,,,,,,,,,,,,,,,,,,,,,,,,,,
,,5f691df8cc431c0fb5c12739,2022-09-08_10h58.38.053,CGTgamblingSpanTasks,2022.2.1,Win32,59.9880024,,,,,,,,,,,,,,,,,,,,,,,,,,,,,,,,,,,,,,,,,,,,,,,,,,,,,,,,,,,,,,,,,,,,,,,,,,,,,,,,,,,,,,,,,,,,,,,,,,,,,,,,,,,,,,,,,,,,,,,,,,,,,,,,,,,,,,,
,,5f691df8cc431c0fb5c12739,2022-09-08_10h58.38.053,CGTgamblingSpanTasks,2022.2.1,Win32,59.9880024,,,,,,,,,,,,,,,,,,,,,,,,,,,,,,,,,,,,,,,,,,,,,,,v,2.4553,,,,,,,,,,,,,,,,,,,,,,,,,,,,,,,,,,,,,,,,,,,,,,,,,,,,,,,,,,,,,,,,,,,,,,,,,,,,,,,,,,,,,,,
,,5f691df8cc431c0fb5c12739,2022-09-08_10h58.38.053,CGTgamblingSpanTasks,2022.2.1,Win32,59.9880024,,,,,,,,2.8939,,,,,,,,,,,,,,1,v,1.1061,21.2188881,1,4.3939,1.5,,,,,,21.2188881,0,2.067660742,,,,,,,,,,,,,0,0,0,107,1,0.50470775,1,,,,,,,,,,,,,,,,,,,,,,,,,,,,,,,,,,,,,,,,,,,,,,,,,,,,,,,,,,,,,,,,,,,,,,,,,,,,,,,,
,,5f691df8cc431c0fb5c12739,2022-09-08_10h58.38.053,CGTgamblingSpanTasks,2022.2.1,Win32,59.9880024,,,,,,,,2.9786,,,,,,,,,,,,,,1,v,1.0214,0,1,3.9786,1,,,,,,17.30137174,0,1.716380842,,,,,,,,,,,,,0,1,1,20,1,0.500020285,1,,,,,,,,,,,,,,,,,,,,,,,,,,,,,,,,,,,,,,,,,,,,,,,,,,,,,,,,,,,,,,,,,,,,,,,,,,,,,,,,
,,5f691df8cc431c0fb5c12739,2022-09-08_10h58.38.053,CGTgamblingSpanTasks,2022.2.1,Win32,59.9880024,,,,,,,,3.143,,,,,,,,,,,,,,1,v,0.857,15.73000491,1,4.643,1.5,,,,,,15.73000491,0,8.830252162,,,,,,,,,,,,,0,2,2,95,1,0.084193143,0,,,,,,,,,,,,,,,,,,,,,,,,,,,,,,,,,,,,,,,,,,,,,,,,,,,,,,,,,,,,,,,,,,,,,,,,,,,,,,,,
,,5f691df8cc431c0fb5c12739,2022-09-08_10h58.38.053,CGTgamblingSpanTasks,2022.2.1,Win32,59.9880024,,,,,,,,3.1789,,,,,,,,,,,,,,2,v,0.8211,1.870404296,0,4.1789,1,,,,,,20.31034258,0,1.870404296,,,,,,,,,,,,,0,3,3,85,1,0.519325853,1,,,,,,,,,,,,,,,,,,,,,,,,,,,,,,,,,,,,,,,,,,,,,,,,,,,,,,,,,,,,,,,,,,,,,,,,,,,,,,,,
,,5f691df8cc431c0fb5c12739,2022-09-08_10h58.38.053,CGTgamblingSpanTasks,2022.2.1,Win32,59.9880024,,,,,,,,3.2275,,,,,,,,,,,,,,1,v,0.7725,15.43649625,1,4.7275,1.5,,,,,,15.43649625,0,1.65459324,,,,,,,,,,,,,0,4,4,33,1,0.479480163,1,,,,,,,,,,,,,,,,,,,,,,,,,,,,,,,,,,,,,,,,,,,,,,,,,,,,,,,,,,,,,,,,,,,,,,,,,,,,,,,,
,,5f691df8cc431c0fb5c12739,2022-09-08_10h58.38.053,CGTgamblingSpanTasks,2022.2.1,Win32,59.9880024,,,,,,,,2.491,,,,,,,,,,,,,,2,v,1.509,2.532806323,0,3.491,1,,,,,,28.13634754,0,2.532806323,,,,,,,,,,,,,0,5,5,28,1,0.525136524,1,,,,,,,,,,,,,,,,,,,,,,,,,,,,,,,,,,,,,,,,,,,,,,,,,,,,,,,,,,,,,,,,,,,,,,,,,,,,,,,,
,,5f691df8cc431c0fb5c12739,2022-09-08_10h58.38.053,CGTgamblingSpanTasks,2022.2.1,Win32,59.9880024,,,,,,,,3.1564,,,,,,,,,,,,,,1,v,0.8436,0,1,4.6564,1.5,,,,,,11.08143071,0,1.207538756,,,,,,,,,,,,,0,6,6,84,1,0.475047453,1,,,,,,,,,,,,,,,,,,,,,,,,,,,,,,,,,,,,,,,,,,,,,,,,,,,,,,,,,,,,,,,,,,,,,,,,,,,,,,,,
,,5f691df8cc431c0fb5c12739,2022-09-08_10h58.38.053,CGTgamblingSpanTasks,2022.2.1,Win32,59.9880024,,,,,,,,0.6329,,,,,,,,,,,,,,1,v,3.3671,0,1,1.6329,1,,,,,,18.16238569,0,1.540604093,,,,,,,,,,,,,0,7,7,34,1,0.540092491,1,,,,,,,,,,,,,,,,,,,,,,,,,,,,,,,,,,,,,,,,,,,,,,,,,,,,,,,,,,,,,,,,,,,,,,,,,,,,,,,,
,,5f691df8cc431c0fb5c12739,2022-09-08_10h58.38.053,CGTgamblingSpanTasks,2022.2.1,Win32,59.9880024,,,,,,,,2.4305,,,,,,,,,,,,,,2,v,1.5695,2.32030209,0,3.4305,1,,,,,,27.94544945,0,2.32030209,,,,,,,,,,,,,0,8,8,115,1,0.545390564,1,,,,,,,,,,,,,,,,,,,,,,,,,,,,,,,,,,,,,,,,,,,,,,,,,,,,,,,,,,,,,,,,,,,,,,,,,,,,,,,,
,,5f691df8cc431c0fb5c12739,2022-09-08_10h58.38.053,CGTgamblingSpanTasks,2022.2.1,Win32,59.9880024,,,,,,,,2.7904,,,,,,,,,,,,,,2,v,1.2096,11.93550497,0,4.2904,1.5,,,,,,14.20587264,0,11.93550497,,,,,,,,,,,,,0,9,9,21,1,0.041340301,0,,,,,,,,,,,,,,,,,,,,,,,,,,,,,,,,,,,,,,,,,,,,,,,,,,,,,,,,,,,,,,,,,,,,,,,,,,,,,,,,
,,5f691df8cc431c0fb5c12739,2022-09-08_10h58.38.053,CGTgamblingSpanTasks,2022.2.1,Win32,59.9880024,,,,,,,,2.5494,,,,,,,,,,,,,,1,v,1.4506,0,1,4.0494,1.5,,,,,,27.93093084,0,0.050207531,,,,,,,,,,,,,0,10,10,83,1,0.920505936,0,,,,,,,,,,,,,,,,,,,,,,,,,,,,,,,,,,,,,,,,,,,,,,,,,,,,,,,,,,,,,,,,,,,,,,,,,,,,,,,,
,,5f691df8cc431c0fb5c12739,2022-09-08_10h58.38.053,CGTgamblingSpanTasks,2022.2.1,Win32,59.9880024,,,,,,,,1.7835,,,,,,,,,,,,,,2,v,2.2165,11.41737518,0,3.2835,1.5,,,,,,18.11029021,0,11.41737518,,,,,,,,,,,,,0,11,11,48,1,0.069445859,0,,,,,,,,,,,,,,,,,,,,,,,,,,,,,,,,,,,,,,,,,,,,,,,,,,,,,,,,,,,,,,,,,,,,,,,,,,,,,,,,
,,5f691df8cc431c0fb5c12739,2022-09-08_10h58.38.053,CGTgamblingSpanTasks,2022.2.1,Win32,59.9880024,,,,,,,,2.9453,,,,,,,,,,,,,,2,v,1.0547,11.35147481,0,4.4453,1.5,,,,,,17.67865084,0,11.35147481,,,,,,,,,,,,,0,12,12,91,1,0.067304606,0,,,,,,,,,,,,,,,,,,,,,,,,,,,,,,,,,,,,,,,,,,,,,,,,,,,,,,,,,,,,,,,,,,,,,,,,,,,,,,,,
,,5f691df8cc431c0fb5c12739,2022-09-08_10h58.38.053,CGTgamblingSpanTasks,2022.2.1,Win32,59.9880024,,,,,,,,3.3834,,,,,,,,,,,,,,1,v,0.6166,24.66627941,1,4.3834,1,,,,,,24.66627941,0,2.765426402,,,,,,,,,,,,,0,13,13,24,1,0.467360588,1,,,,,,,,,,,,,,,,,,,,,,,,,,,,,,,,,,,,,,,,,,,,,,,,,,,,,,,,,,,,,,,,,,,,,,,,,,,,,,,,
,,5f691df8cc431c0fb5c12739,2022-09-08_10h58.38.053,CGTgamblingSpanTasks,2022.2.1,Win32,59.9880024,,,,,,,,3.1289,,,,,,,,,,,,,,1,v,0.8711,0,1,4.1289,1,,,,,,24.479109,0,0.089582697,,,,,,,,,,,,,0,14,14,89,1,0.900200232,0,,,,,,,,,,,,,,,,,,,,,,,,,,,,,,,,,,,,,,,,,,,,,,,,,,,,,,,,,,,,,,,,,,,,,,,,,,,,,,,,
,,5f691df8cc431c0fb5c12739,2022-09-08_10h58.38.053,CGTgamblingSpanTasks,2022.2.1,Win32,59.9880024,,,,,,,,3.353,,,,,,,,,,,,,,1,v,0.647,0,1,4.353,1,,,,,,21.39646914,0,0.072474078,,,,,,,,,,,,,0,15,15,3,1,0.902848133,0,,,,,,,,,,,,,,,,,,,,,,,,,,,,,,,,,,,,,,,,,,,,,,,,,,,,,,,,,,,,,,,,,,,,,,,,,,,,,,,,
,,5f691df8cc431c0fb5c12739,2022-09-08_10h58.38.053,CGTgamblingSpanTasks,2022.2.1,Win32,59.9880024,,,,,,,,2.9246,,,,,,,,,,,,,,2,v,1.0754,10.41201161,0,4.4246,1.5,,,,,,6.307062696,0,10.41201161,,,,,,,,,,,,,0,16,16,23,1,0.018187109,0,,,,,,,,,,,,,,,,,,,,,,,,,,,,,,,,,,,,,,,,,,,,,,,,,,,,,,,,,,,,,,,,,,,,,,,,,,,,,,,,
,,5f691df8cc431c0fb5c12739,2022-09-08_10h58.38.053,CGTgamblingSpanTasks,2022.2.1,Win32,59.9880024,,,,,,,,3.0664,,,,,,,,,,,,,,2,n,0.9336,0,1,4.5664,1.5,,,,,,29.30724159,0,3.247012935,,,,,,,,,,,,,0,17,17,71,1,0.470571125,1,,,,,,,,,,,,,,,,,,,,,,,,,,,,,,,,,,,,,,,,,,,,,,,,,,,,,,,,,,,,,,,,,,,,,,,,,,,,,,,,
,,5f691df8cc431c0fb5c12739,2022-09-08_10h58.38.053,CGTgamblingSpanTasks,2022.2.1,Win32,59.9880024,,,,,,,,3.1493,,,,,,,,,,,,,,1,v,0.8507,0,1,4.6493,1.5,,,,,,21.16780451,0,2.469465385,,,,,,,,,,,,,0,18,18,32,1,0.456531699,1,,,,,,,,,,,,,,,,,,,,,,,,,,,,,,,,,,,,,,,,,,,,,,,,,,,,,,,,,,,,,,,,,,,,,,,,,,,,,,,,
,,5f691df8cc431c0fb5c12739,2022-09-08_10h58.38.053,CGTgamblingSpanTasks,2022.2.1,Win32,59.9880024,,,,,,,,3.2949,,,,,,,,,,,,,,1,v,0.7051,0,1,4.7949,1.5,,,,,,29.76099779,0,0.095763086,,,,,,,,,,,,,0,19,19,35,1,0.904537896,0,,,,,,,,,,,,,,,,,,,,,,,,,,,,,,,,,,,,,,,,,,,,,,,,,,,,,,,,,,,,,,,,,,,,,,,,,,,,,,,,
,,5f691df8cc431c0fb5c12739,2022-09-08_10h58.38.053,CGTgamblingSpanTasks,2022.2.1,Win32,59.9880024,,,,,,,,3.2777,,,,,,,,,,,,,,1,v,0.7223,0,1,4.2777,1,,,,,,15.87668502,0,8.42547829,,,,,,,,,,,,,0,20,20,56,1,0.092099462,0,,,,,,,,,,,,,,,,,,,,,,,,,,,,,,,,,,,,,,,,,,,,,,,,,,,,,,,,,,,,,,,,,,,,,,,,,,,,,,,,
,,5f691df8cc431c0fb5c12739,2022-09-08_10h58.38.053,CGTgamblingSpanTasks,2022.2.1,Win32,59.9880024,,,,,,,,3.3295,,,,,,,,,,,,,,1,n,0.6705,1.535873964,0,4.3295,1,,,,,,13.84410806,0,1.535873964,,,,,,,,,,,,,0,21,21,88,1,0.470209002,1,,,,,,,,,,,,,,,,,,,,,,,,,,,,,,,,,,,,,,,,,,,,,,,,,,,,,,,,,,,,,,,,,,,,,,,,,,,,,,,,
,,5f691df8cc431c0fb5c12739,2022-09-08_10h58.38.053,CGTgamblingSpanTasks,2022.2.1,Win32,59.9880024,,,,,,,,2.9613,,,,,,,,,,,,,,2,n,1.0387,0,1,4.4613,1.5,,,,,,27.37527992,0,2.860319095,,,,,,,,,,,,,0,22,22,39,1,0.486304156,1,,,,,,,,,,,,,,,,,,,,,,,,,,,,,,,,,,,,,,,,,,,,,,,,,,,,,,,,,,,,,,,,,,,,,,,,,,,,,,,,
,,5f691df8cc431c0fb5c12739,2022-09-08_10h58.38.053,CGTgamblingSpanTasks,2022.2.1,Win32,59.9880024,,,,,,,,2.6709,,,,,,,,,,,,,,2,n,1.3291,7.066129113,1,3.6709,1,,,,,,7.066129113,0,0.585581699,,,,,,,,,,,,,0,23,23,19,1,0.545860632,1,,,,,,,,,,,,,,,,,,,,,,,,,,,,,,,,,,,,,,,,,,,,,,,,,,,,,,,,,,,,,,,,,,,,,,,,,,,,,,,,
,,5f691df8cc431c0fb5c12739,2022-09-08_10h58.38.053,CGTgamblingSpanTasks,2022.2.1,Win32,59.9880024,,,,,,,,3.0571,,,,,,,,,,,,,,1,n,0.9429,0.951019374,0,4.0571,1,,,,,,8.217594828,0,0.951019374,,,,,,,,,,,,,0,24,24,87,1,0.458722936,1,,,,,,,,,,,,,,,,,,,,,,,,,,,,,,,,,,,,,,,,,,,,,,,,,,,,,,,,,,,,,,,,,,,,,,,,,,,,,,,,
,,5f691df8cc431c0fb5c12739,2022-09-08_10h58.38.053,CGTgamblingSpanTasks,2022.2.1,Win32,59.9880024,,,,,,,,3.0055,,,,,,,,,,,,,,2,v,0.9945,2.030232342,0,4.0055,1,,,,,,19.3050342,0,2.030232342,,,,,,,,,,,,,0,25,25,73,1,0.484573227,1,,,,,,,,,,,,,,,,,,,,,,,,,,,,,,,,,,,,,,,,,,,,,,,,,,,,,,,,,,,,,,,,,,,,,,,,,,,,,,,,
,,5f691df8cc431c0fb5c12739,2022-09-08_10h58.38.053,CGTgamblingSpanTasks,2022.2.1,Win32,59.9880024,,,,,,,,2.859,,,,,,,,,,,,,,1,n,1.141,0.073558523,0,3.859,1,,,,,,20.5726842,0,0.073558523,,,,,,,,,,,,,0,26,26,26,1,0.901008565,0,,,,,,,,,,,,,,,,,,,,,,,,,,,,,,,,,,,,,,,,,,,,,,,,,,,,,,,,,,,,,,,,,,,,,,,,,,,,,,,,
,,5f691df8cc431c0fb5c12739,2022-09-08_10h58.38.053,CGTgamblingSpanTasks,2022.2.1,Win32,59.9880024,,,,,,,,2.3475,,,,,,,,,,,,,,1,n,1.6525,7.646213173,0,3.3475,1,,,,,,2.042350179,0,7.646213173,,,,,,,,,,,,,0,27,27,53,1,0.009522273,0,,,,,,,,,,,,,,,,,,,,,,,,,,,,,,,,,,,,,,,,,,,,,,,,,,,,,,,,,,,,,,,,,,,,,,,,,,,,,,,,
,,5f691df8cc431c0fb5c12739,2022-09-08_10h58.38.053,CGTgamblingSpanTasks,2022.2.1,Win32,59.9880024,,,,,,,,2.9587,,,,,,,,,,,,,,2,v,1.0413,0.05384276,0,4.4587,1.5,,,,,,28.18900855,0,0.05384276,,,,,,,,,,,,,0,28,28,55,1,0.919081308,0,,,,,,,,,,,,,,,,,,,,,,,,,,,,,,,,,,,,,,,,,,,,,,,,,,,,,,,,,,,,,,,,,,,,,,,,,,,,,,,,
,,5f691df8cc431c0fb5c12739,2022-09-08_10h58.38.053,CGTgamblingSpanTasks,2022.2.1,Win32,59.9880024,,,,,,,,3.0459,,,,,,,,,,,,,,2,v,0.9541,1.843597162,0,4.5459,1.5,,,,,,19.68065872,0,1.843597162,,,,,,,,,,,,,0,29,29,80,1,0.514941058,1,,,,,,,,,,,,,,,,,,,,,,,,,,,,,,,,,,,,,,,,,,,,,,,,,,,,,,,,,,,,,,,,,,,,,,,,,,,,,,,,
,,5f691df8cc431c0fb5c12739,2022-09-08_10h58.38.053,CGTgamblingSpanTasks,2022.2.1,Win32,59.9880024,,,,,,,,2.6864,,,,,,,,,,,,,,1,n,1.3136,0.061756244,0,4.1864,1.5,,,,,,24.57684014,0,0.061756244,,,,,,,,,,,,,0,30,30,68,1,0.911988903,0,,,,,,,,,,,,,,,,,,,,,,,,,,,,,,,,,,,,,,,,,,,,,,,,,,,,,,,,,,,,,,,,,,,,,,,,,,,,,,,,
,,5f691df8cc431c0fb5c12739,2022-09-08_10h58.38.053,CGTgamblingSpanTasks,2022.2.1,Win32,59.9880024,,,,,,,,1.6676,,,,,,,,,,,,,,1,v,2.3324,26.16821818,1,3.1676,1.5,,,,,,26.16821818,0,0.093528069,,,,,,,,,,,,,0,31,31,42,1,0.901022427,0,,,,,,,,,,,,,,,,,,,,,,,,,,,,,,,,,,,,,,,,,,,,,,,,,,,,,,,,,,,,,,,,,,,,,,,,,,,,,,,,
,,5f691df8cc431c0fb5c12739,2022-09-08_10h58.38.053,CGTgamblingSpanTasks,2022.2.1,Win32,59.9880024,,,,,,,,3.2583,,,,,,,,,,,,,,1,n,0.7417,2.543951743,0,4.7583,1.5,,,,,,25.56803059,0,2.543951743,,,,,,,,,,,,,0,32,32,41,1,0.499247217,1,,,,,,,,,,,,,,,,,,,,,,,,,,,,,,,,,,,,,,,,,,,,,,,,,,,,,,,,,,,,,,,,,,,,,,,,,,,,,,,,
,,5f691df8cc431c0fb5c12739,2022-09-08_10h58.38.053,CGTgamblingSpanTasks,2022.2.1,Win32,59.9880024,,,,,,,,1.7417,,,,,,,,,,,,,,1,n,2.2583,0.050674956,0,2.7417,1,,,,,,28.68598705,0,0.050674956,,,,,,,,,,,,,0,33,33,62,1,0.920905497,0,,,,,,,,,,,,,,,,,,,,,,,,,,,,,,,,,,,,,,,,,,,,,,,,,,,,,,,,,,,,,,,,,,,,,,,,,,,,,,,,
,,5f691df8cc431c0fb5c12739,2022-09-08_10h58.38.053,CGTgamblingSpanTasks,2022.2.1,Win32,59.9880024,,,,,,,,2.9794,,,,,,,,,,,,,,1,v,1.0206,21.7711579,1,4.4794,1.5,,,,,,21.7711579,0,2.502728921,,,,,,,,,,,,,0,34,34,101,1,0.460552621,1,,,,,,,,,,,,,,,,,,,,,,,,,,,,,,,,,,,,,,,,,,,,,,,,,,,,,,,,,,,,,,,,,,,,,,,,,,,,,,,,
,,5f691df8cc431c0fb5c12739,2022-09-08_10h58.38.053,CGTgamblingSpanTasks,2022.2.1,Win32,59.9880024,,,,,,,,3.0215,,,,,,,,,,,,,,2,v,0.9785,2.464662219,0,4.0215,1,,,,,,23.59556381,0,2.464662219,,,,,,,,,,,,,0,35,35,22,1,0.486383205,1,,,,,,,,,,,,,,,,,,,,,,,,,,,,,,,,,,,,,,,,,,,,,,,,,,,,,,,,,,,,,,,,,,,,,,,,,,,,,,,,
,,5f691df8cc431c0fb5c12739,2022-09-08_10h58.38.053,CGTgamblingSpanTasks,2022.2.1,Win32,59.9880024,,,,,,,,3.2296,,,,,,,,,,,,,,2,v,0.7704,11.19311486,0,4.7296,1.5,,,,,,8.17598802,0,11.19311486,,,,,,,,,,,,,0,36,36,110,1,0.021568003,0,,,,,,,,,,,,,,,,,,,,,,,,,,,,,,,,,,,,,,,,,,,,,,,,,,,,,,,,,,,,,,,,,,,,,,,,,,,,,,,,
,,5f691df8cc431c0fb5c12739,2022-09-08_10h58.38.053,CGTgamblingSpanTasks,2022.2.1,Win32,59.9880024,,,,,,,,3.2368,,,,,,,,,,,,,,2,v,0.7632,1.025847652,0,4.2368,1,,,,,,8.670591867,0,1.025847652,,,,,,,,,,,,,0,37,37,18,1,0.452680459,1,,,,,,,,,,,,,,,,,,,,,,,,,,,,,,,,,,,,,,,,,,,,,,,,,,,,,,,,,,,,,,,,,,,,,,,,,,,,,,,,
,,5f691df8cc431c0fb5c12739,2022-09-08_10h58.38.053,CGTgamblingSpanTasks,2022.2.1,Win32,59.9880024,,,,,,,,3.056,,,,,,,,,,,,,,2,v,0.944,1.932334278,0,4.556,1.5,,,,,,18.51345298,0,1.932334278,,,,,,,,,,,,,0,38,38,31,1,0.48658696,1,,,,,,,,,,,,,,,,,,,,,,,,,,,,,,,,,,,,,,,,,,,,,,,,,,,,,,,,,,,,,,,,,,,,,,,,,,,,,,,,
,,5f691df8cc431c0fb5c12739,2022-09-08_10h58.38.053,CGTgamblingSpanTasks,2022.2.1,Win32,59.9880024,,,,,,,,3.2131,,,,,,,,,,,,,,2,v,0.7869,2.229247341,0,4.2131,1,,,,,,21.48443242,0,2.229247341,,,,,,,,,,,,,0,39,39,63,1,0.488155912,1,,,,,,,,,,,,,,,,,,,,,,,,,,,,,,,,,,,,,,,,,,,,,,,,,,,,,,,,,,,,,,,,,,,,,,,,,,,,,,,,
,,5f691df8cc431c0fb5c12739,2022-09-08_10h58.38.053,CGTgamblingSpanTasks,2022.2.1,Win32,59.9880024,,,,,,,,2.8743,,,,,,,,,,,,,,1,v,1.1257,27.77179191,1,4.3743,1.5,,,,,,27.77179191,0,0.074524436,,,,,,,,,,,,,0,40,40,99,1,0.910114387,0,,,,,,,,,,,,,,,,,,,,,,,,,,,,,,,,,,,,,,,,,,,,,,,,,,,,,,,,,,,,,,,,,,,,,,,,,,,,,,,,
,,5f691df8cc431c0fb5c12739,2022-09-08_10h58.38.053,CGTgamblingSpanTasks,2022.2.1,Win32,59.9880024,,,,,,,,3.0964,,,,,,,,,,,,,,2,v,0.9036,2.663622024,0,4.0964,1,,,,,,28.9381277,0,2.663622024,,,,,,,,,,,,,0,41,41,103,1,0.519453367,1,,,,,,,,,,,,,,,,,,,,,,,,,,,,,,,,,,,,,,,,,,,,,,,,,,,,,,,,,,,,,,,,,,,,,,,,,,,,,,,,
,,5f691df8cc431c0fb5c12739,2022-09-08_10h58.38.053,CGTgamblingSpanTasks,2022.2.1,Win32,59.9880024,,,,,,,,3.1408,,,,,,,,,,,,,,1,n,0.8592,7.850775577,0,4.1408,1,,,,,,4.622707531,0,7.850775577,,,,,,,,,,,,,0,42,42,6,1,0.017737407,0,,,,,,,,,,,,,,,,,,,,,,,,,,,,,,,,,,,,,,,,,,,,,,,,,,,,,,,,,,,,,,,,,,,,,,,,,,,,,,,,
,,5f691df8cc431c0fb5c12739,2022-09-08_10h58.38.053,CGTgamblingSpanTasks,2022.2.1,Win32,59.9880024,,,,,,,,3.1442,,,,,,,,,,,,,,2,v,0.8558,6.833409611,0,4.6442,1.5,,,,,,6.325091157,0,6.833409611,,,,,,,,,,,,,0,43,43,58,1,0.027113638,0,,,,,,,,,,,,,,,,,,,,,,,,,,,,,,,,,,,,,,,,,,,,,,,,,,,,,,,,,,,,,,,,,,,,,,,,,,,,,,,,
,,5f691df8cc431c0fb5c12739,2022-09-08_10h58.38.053,CGTgamblingSpanTasks,2022.2.1,Win32,59.9880024,,,,,,,,1.7071,,,,,,,,,,,,,,1,v,2.2929,0,1,2.7071,1,,,,,,13.4287264,0,1.317368801,,,,,,,,,,,,,0,44,44,100,1,0.502953125,1,,,,,,,,,,,,,,,,,,,,,,,,,,,,,,,,,,,,,,,,,,,,,,,,,,,,,,,,,,,,,,,,,,,,,,,,,,,,,,,,
,,5f691df8cc431c0fb5c12739,2022-09-08_10h58.38.053,CGTgamblingSpanTasks,2022.2.1,Win32,59.9880024,,,,,,,,2.6443,,,,,,,,,,,,,,2,v,1.3557,1.825111303,0,3.6443,1,,,,,,17.5608285,0,1.825111303,,,,,,,,,,,,,0,45,45,104,1,0.487721116,1,,,,,,,,,,,,,,,,,,,,,,,,,,,,,,,,,,,,,,,,,,,,,,,,,,,,,,,,,,,,,,,,,,,,,,,,,,,,,,,,
,,5f691df8cc431c0fb5c12739,2022-09-08_10h58.38.053,CGTgamblingSpanTasks,2022.2.1,Win32,59.9880024,,,,,,,,0,,,,,,,,,,,,,,2,,,,,1,1,,,,,,4.022743614,0,11.61882862,,,,,,,,,,,,,0,46,46,38,1,0.011499376,0,,,,,,,,,,,,,,,,,,,,,,,,,,,,,,,,,,,,,,,,,,,,,,,,,,,,,,,,,,,,,,,,,,,,,,,,,,,,,,,,
,,5f691df8cc431c0fb5c12739,2022-09-08_10h58.38.053,CGTgamblingSpanTasks,2022.2.1,Win32,59.9880024,,,,,,,,0,,,,,,,,,,,,,,1,,,,,1.5,1.5,,,,,,21.03408097,0,2.208275162,,,,,,,,,,,,,0,47,47,0,1,0.485031246,1,,,,,,,,,,,,,,,,,,,,,,,,,,,,,,,,,,,,,,,,,,,,,,,,,,,,,,,,,,,,,,,,,,,,,,,,,,,,,,,,
,,5f691df8cc431c0fb5c12739,2022-09-08_10h58.38.053,CGTgamblingSpanTasks,2022.2.1,Win32,59.9880024,,,,,,,,0,,,,,,,,,,,,,,1,,,,,1.5,1.5,,,,,,29.75778644,0,2.810531415,,,,,,,,,,,,,0,48,48,113,1,0.512824233,1,,,,,,,,,,,,,,,,,,,,,,,,,,,,,,,,,,,,,,,,,,,,,,,,,,,,,,,,,,,,,,,,,,,,,,,,,,,,,,,,
,,5f691df8cc431c0fb5c12739,2022-09-08_10h58.38.053,CGTgamblingSpanTasks,2022.2.1,Win32,59.9880024,,,,,,,,0,,,,,,,,,,,,,,1,,,,,1.5,1.5,,,,,,27.38828234,0,0.0639233,,,,,,,,,,,,,0,49,49,43,1,0.914010176,0,,,,,,,,,,,,,,,,,,,,,,,,,,,,,,,,,,,,,,,,,,,,,,,,,,,,,,,,,,,,,,,,,,,,,,,,,,,,,,,,
,,5f691df8cc431c0fb5c12739,2022-09-08_10h58.38.053,CGTgamblingSpanTasks,2022.2.1,Win32,59.9880024,,,,,,,,0,,,,,,,,,,,,,,1,,,,,1.5,1.5,,,,,,28.14876717,0,3.117906378,,,,,,,,,,,,,0,50,50,76,1,0.470636736,1,,,,,,,,,,,,,,,,,,,,,,,,,,,,,,,,,,,,,,,,,,,,,,,,,,,,,,,,,,,,,,,,,,,,,,,,,,,,,,,,
,,5f691df8cc431c0fb5c12739,2022-09-08_10h58.38.053,CGTgamblingSpanTasks,2022.2.1,Win32,59.9880024,,,,,,,,0,,,,,,,,,,,,,,2,,,,,1,1,,,,,,22.62475578,0,2.397643354,,,,,,,,,,,,,0,51,51,93,1,0.482527609,1,,,,,,,,,,,,,,,,,,,,,,,,,,,,,,,,,,,,,,,,,,,,,,,,,,,,,,,,,,,,,,,,,,,,,,,,,,,,,,,,
,,5f691df8cc431c0fb5c12739,2022-09-08_10h58.38.053,CGTgamblingSpanTasks,2022.2.1,Win32,59.9880024,,,,,,,,0,,,,,,,,,,,,,,1,,,,,1.5,1.5,,,,,,14.3363647,0,1.396635362,,,,,,,,,,,,,0,52,52,78,1,0.504775474,1,,,,,,,,,,,,,,,,,,,,,,,,,,,,,,,,,,,,,,,,,,,,,,,,,,,,,,,,,,,,,,,,,,,,,,,,,,,,,,,,
,,5f691df8cc431c0fb5c12739,2022-09-08_10h58.38.053,CGTgamblingSpanTasks,2022.2.1,Win32,59.9880024,,,,,,,,0,,,,,,,,,,,,,,2,,,,,1.5,1.5,,,,,,27.2532142,0,0.08089327,,,,,,,,,,,,,0,53,53,119,1,0.907091845,0,,,,,,,,,,,,,,,,,,,,,,,,,,,,,,,,,,,,,,,,,,,,,,,,,,,,,,,,,,,,,,,,,,,,,,,,,,,,,,,,
,,5f691df8cc431c0fb5c12739,2022-09-08_10h58.38.053,CGTgamblingSpanTasks,2022.2.1,Win32,59.9880024,,,,,,,,2.0801,,,,,,,,,,,,,,2,v,1.9199,2.99133314,0,3.0801,1,,,,,,27.57491653,0,2.99133314,,,,,,,,,,,,,0,54,54,10,1,0.47625893,1,,,,,,,,,,,,,,,,,,,,,,,,,,,,,,,,,,,,,,,,,,,,,,,,,,,,,,,,,,,,,,,,,,,,,,,,,,,,,,,,
,,5f691df8cc431c0fb5c12739,2022-09-08_10h58.38.053,CGTgamblingSpanTasks,2022.2.1,Win32,59.9880024,,,,,,,,1.9908,,,,,,,,,,,,,,1,v,2.0092,25.76582409,1,3.4908,1.5,,,,,,25.76582409,0,2.393193076,,,,,,,,,,,,,0,55,55,46,1,0.517129855,1,,,,,,,,,,,,,,,,,,,,,,,,,,,,,,,,,,,,,,,,,,,,,,,,,,,,,,,,,,,,,,,,,,,,,,,,,,,,,,,,
,,5f691df8cc431c0fb5c12739,2022-09-08_10h58.38.053,CGTgamblingSpanTasks,2022.2.1,Win32,59.9880024,,,,,,,,0,,,,,,,,,,,,,,2,,,,,1.5,1.5,,,,,,21.00799273,0,0.067969053,,,,,,,,,,,,,0,56,56,92,1,0.904360262,0,,,,,,,,,,,,,,,,,,,,,,,,,,,,,,,,,,,,,,,,,,,,,,,,,,,,,,,,,,,,,,,,,,,,,,,,,,,,,,,,
,,5f691df8cc431c0fb5c12739,2022-09-08_10h58.38.053,CGTgamblingSpanTasks,2022.2.1,Win32,59.9880024,,,,,,,,0,,,,,,,,,,,,,,1,,,,,1,1,,,,,,3.471484939,0,3.877530383,,,,,,,,,,,,,0,57,57,40,1,0.02623078,0,,,,,,,,,,,,,,,,,,,,,,,,,,,,,,,,,,,,,,,,,,,,,,,,,,,,,,,,,,,,,,,,,,,,,,,,,,,,,,,,
,,5f691df8cc431c0fb5c12739,2022-09-08_10h58.38.053,CGTgamblingSpanTasks,2022.2.1,Win32,59.9880024,,,,,,,,3.7489,,,,,,,,,,,,,,1,v,0.2511,27.12325385,1,5.2489,1.5,,,,,,27.12325385,0,0.080932047,,,,,,,,,,,,,0,58,58,14,1,0.906929184,0,,,,,,,,,,,,,,,,,,,,,,,,,,,,,,,,,,,,,,,,,,,,,,,,,,,,,,,,,,,,,,,,,,,,,,,,,,,,,,,,
,,5f691df8cc431c0fb5c12739,2022-09-08_10h58.38.053,CGTgamblingSpanTasks,2022.2.1,Win32,59.9880024,,,,,,,,0.6509,,,,,,,,,,,,,,2,v,3.3491,2.055848574,0,1.6509,1,,,,,,17.23907308,0,2.055848574,,,,,,,,,,,,,0,59,59,66,1,0.450504458,1,,,,,,,,,,,,,,,,,,,,,,,,,,,,,,,,,,,,,,,,,,,,,,,,,,,,,,,,,,,,,,,,,,,,,,,,,,,,,,,,
,,5f691df8cc431c0fb5c12739,2022-09-08_10h58.38.053,CGTgamblingSpanTasks,2022.2.1,Win32,59.9880024,,,,,,,,0,,,,,,,,,,,,,,1,,,,,1.5,1.5,,,,,,9.012590634,0,1.002188111,,,,,,,,,,,,,0,60,60,12,1,0.46958041,1,,,,,,,,,,,,,,,,,,,,,,,,,,,,,,,,,,,,,,,,,,,,,,,,,,,,,,,,,,,,,,,,,,,,,,,,,,,,,,,,
,,5f691df8cc431c0fb5c12739,2022-09-08_10h58.38.053,CGTgamblingSpanTasks,2022.2.1,Win32,59.9880024,,,,,,,,2.3161,,,,,,,,,,,,,,2,v,1.6839,10.68505773,0,3.3161,1,,,,,,17.64114152,0,10.68505773,,,,,,,,,,,,,0,61,61,98,1,0.074299362,0,,,,,,,,,,,,,,,,,,,,,,,,,,,,,,,,,,,,,,,,,,,,,,,,,,,,,,,,,,,,,,,,,,,,,,,,,,,,,,,,
,,5f691df8cc431c0fb5c12739,2022-09-08_10h58.38.053,CGTgamblingSpanTasks,2022.2.1,Win32,59.9880024,,,,,,,,3.1994,,,,,,,,,,,,,,1,v,0.8006,29.77342428,1,4.6994,1.5,,,,,,29.77342428,0,2.838865588,,,,,,,,,,,,,0,62,62,57,1,0.510363415,1,,,,,,,,,,,,,,,,,,,,,,,,,,,,,,,,,,,,,,,,,,,,,,,,,,,,,,,,,,,,,,,,,,,,,,,,,,,,,,,,
,,5f691df8cc431c0fb5c12739,2022-09-08_10h58.38.053,CGTgamblingSpanTasks,2022.2.1,Win32,59.9880024,,,,,,,,3.4347,,,,,,,,,,,,,,1,n,0.5653,0.085746782,0,4.4347,1,,,,,,25.21882231,0,0.085746782,,,,,,,,,,,,,0,63,63,64,1,0.90272076,0,,,,,,,,,,,,,,,,,,,,,,,,,,,,,,,,,,,,,,,,,,,,,,,,,,,,,,,,,,,,,,,,,,,,,,,,,,,,,,,,
,,5f691df8cc431c0fb5c12739,2022-09-08_10h58.38.053,CGTgamblingSpanTasks,2022.2.1,Win32,59.9880024,,,,,,,,1.971,,,,,,,,,,,,,,1,v,2.029,0,1,3.471,1.5,,,,,,26.11188619,0,0.081942421,,,,,,,,,,,,,0,64,64,105,1,0.905343856,0,,,,,,,,,,,,,,,,,,,,,,,,,,,,,,,,,,,,,,,,,,,,,,,,,,,,,,,,,,,,,,,,,,,,,,,,,,,,,,,,
,,5f691df8cc431c0fb5c12739,2022-09-08_10h58.38.053,CGTgamblingSpanTasks,2022.2.1,Win32,59.9880024,,,,,,,,2.9455,,,,,,,,,,,,,,2,n,1.0545,28.33977875,1,3.9455,1,,,,,,28.33977875,0,2.768313633,,,,,,,,,,,,,0,65,65,116,1,0.50406901,1,,,,,,,,,,,,,,,,,,,,,,,,,,,,,,,,,,,,,,,,,,,,,,,,,,,,,,,,,,,,,,,,,,,,,,,,,,,,,,,,
,,5f691df8cc431c0fb5c12739,2022-09-08_10h58.38.053,CGTgamblingSpanTasks,2022.2.1,Win32,59.9880024,,,,,,,,2.8868,,,,,,,,,,,,,,2,n,1.1132,19.5450126,1,3.8868,1,,,,,,19.5450126,0,2.123581464,,,,,,,,,,,,,0,66,66,65,1,0.475836144,1,,,,,,,,,,,,,,,,,,,,,,,,,,,,,,,,,,,,,,,,,,,,,,,,,,,,,,,,,,,,,,,,,,,,,,,,,,,,,,,,
,,5f691df8cc431c0fb5c12739,2022-09-08_10h58.38.053,CGTgamblingSpanTasks,2022.2.1,Win32,59.9880024,,,,,,,,3.6066,,,,,,,,,,,,,,1,v,0.3934,21.17800335,1,4.6066,1,,,,,,21.17800335,0,0.059830985,,,,,,,,,,,,,0,67,67,67,1,0.908594974,0,,,,,,,,,,,,,,,,,,,,,,,,,,,,,,,,,,,,,,,,,,,,,,,,,,,,,,,,,,,,,,,,,,,,,,,,,,,,,,,,
,,5f691df8cc431c0fb5c12739,2022-09-08_10h58.38.053,CGTgamblingSpanTasks,2022.2.1,Win32,59.9880024,,,,,,,,3.3113,,,,,,,,,,,,,,2,n,0.6887,0,1,4.8113,1.5,,,,,,28.94627214,0,2.701896413,,,,,,,,,,,,,0,68,68,111,1,0.515860759,1,,,,,,,,,,,,,,,,,,,,,,,,,,,,,,,,,,,,,,,,,,,,,,,,,,,,,,,,,,,,,,,,,,,,,,,,,,,,,,,,
,,5f691df8cc431c0fb5c12739,2022-09-08_10h58.38.053,CGTgamblingSpanTasks,2022.2.1,Win32,59.9880024,,,,,,,,3.675,,,,,,,,,,,,,,2,v,0.325,0.088432325,0,4.675,1,,,,,,27.60724521,0,0.088432325,,,,,,,,,,,,,0,69,69,17,1,0.904684186,0,,,,,,,,,,,,,,,,,,,,,,,,,,,,,,,,,,,,,,,,,,,,,,,,,,,,,,,,,,,,,,,,,,,,,,,,,,,,,,,,
,,5f691df8cc431c0fb5c12739,2022-09-08_10h58.38.053,CGTgamblingSpanTasks,2022.2.1,Win32,59.9880024,,,,,,,,3.6229,,,,,,,,,,,,,,1,n,0.3771,0.071848086,0,5.1229,1.5,,,,,,24.8002852,0,0.071848086,,,,,,,,,,,,,0,70,70,16,1,0.90783559,0,,,,,,,,,,,,,,,,,,,,,,,,,,,,,,,,,,,,,,,,,,,,,,,,,,,,,,,,,,,,,,,,,,,,,,,,,,,,,,,,
,,5f691df8cc431c0fb5c12739,2022-09-08_10h58.38.053,CGTgamblingSpanTasks,2022.2.1,Win32,59.9880024,,,,,,,,3.3814,,,,,,,,,,,,,,2,v,0.6186,1.591282699,0,4.3814,1,,,,,,13.96521039,0,1.591282699,,,,,,,,,,,,,0,71,71,49,1,0.462956344,1,,,,,,,,,,,,,,,,,,,,,,,,,,,,,,,,,,,,,,,,,,,,,,,,,,,,,,,,,,,,,,,,,,,,,,,,,,,,,,,,
,,5f691df8cc431c0fb5c12739,2022-09-08_10h58.38.053,CGTgamblingSpanTasks,2022.2.1,Win32,59.9880024,,,,,,,,3.4872,,,,,,,,,,,,,,1,n,0.5128,10.3417501,0,4.9872,1.5,,,,,,15.21435748,0,10.3417501,,,,,,,,,,,,,0,72,72,72,1,0.060969226,0,,,,,,,,,,,,,,,,,,,,,,,,,,,,,,,,,,,,,,,,,,,,,,,,,,,,,,,,,,,,,,,,,,,,,,,,,,,,,,,,
,,5f691df8cc431c0fb5c12739,2022-09-08_10h58.38.053,CGTgamblingSpanTasks,2022.2.1,Win32,59.9880024,,,,,,,,3.3897,,,,,,,,,,,,,,1,v,0.6103,10.05300841,1,4.8897,1.5,,,,,,10.05300841,0,8.512335864,,,,,,,,,,,,,0,73,73,74,1,0.040729225,0,,,,,,,,,,,,,,,,,,,,,,,,,,,,,,,,,,,,,,,,,,,,,,,,,,,,,,,,,,,,,,,,,,,,,,,,,,,,,,,,
,,5f691df8cc431c0fb5c12739,2022-09-08_10h58.38.053,CGTgamblingSpanTasks,2022.2.1,Win32,59.9880024,,,,,,,,3.5032,,,,,,,,,,,,,,1,n,0.4968,1.635040165,0,4.5032,1,,,,,,18.20422443,0,1.635040165,,,,,,,,,,,,,0,74,74,82,1,0.525708991,1,,,,,,,,,,,,,,,,,,,,,,,,,,,,,,,,,,,,,,,,,,,,,,,,,,,,,,,,,,,,,,,,,,,,,,,,,,,,,,,,
,,5f691df8cc431c0fb5c12739,2022-09-08_10h58.38.053,CGTgamblingSpanTasks,2022.2.1,Win32,59.9880024,,,,,,,,3.394,,,,,,,,,,,,,,2,v,0.606,0.747140182,0,4.394,1,,,,,,7.534278541,0,0.747140182,,,,,,,,,,,,,0,75,75,37,1,0.50012466,1,,,,,,,,,,,,,,,,,,,,,,,,,,,,,,,,,,,,,,,,,,,,,,,,,,,,,,,,,,,,,,,,,,,,,,,,,,,,,,,,
,,5f691df8cc431c0fb5c12739,2022-09-08_10h58.38.053,CGTgamblingSpanTasks,2022.2.1,Win32,59.9880024,,,,,,,,2.4524,,,,,,,,,,,,,,1,n,1.5476,2.738695417,0,3.4524,1,,,,,,24.35708027,0,2.738695417,,,,,,,,,,,,,0,76,76,114,1,0.466573634,1,,,,,,,,,,,,,,,,,,,,,,,,,,,,,,,,,,,,,,,,,,,,,,,,,,,,,,,,,,,,,,,,,,,,,,,,,,,,,,,,
,,5f691df8cc431c0fb5c12739,2022-09-08_10h58.38.053,CGTgamblingSpanTasks,2022.2.1,Win32,59.9880024,,,,,,,,3.1745,,,,,,,,,,,,,,1,n,0.8255,8.579385201,0,4.1745,1,,,,,,14.11762686,0,8.579385201,,,,,,,,,,,,,0,77,77,60,1,0.073886959,0,,,,,,,,,,,,,,,,,,,,,,,,,,,,,,,,,,,,,,,,,,,,,,,,,,,,,,,,,,,,,,,,,,,,,,,,,,,,,,,,
,,5f691df8cc431c0fb5c12739,2022-09-08_10h58.38.053,CGTgamblingSpanTasks,2022.2.1,Win32,59.9880024,,,,,,,,2.0515,,,,,,,,,,,,,,1,v,1.9485,0,1,3.5515,1.5,,,,,,2.231316635,0,7.50753835,,,,,,,,,,,,,0,78,78,29,1,0.010273427,0,,,,,,,,,,,,,,,,,,,,,,,,,,,,,,,,,,,,,,,,,,,,,,,,,,,,,,,,,,,,,,,,,,,,,,,,,,,,,,,,
,,5f691df8cc431c0fb5c12739,2022-09-08_10h58.38.053,CGTgamblingSpanTasks,2022.2.1,Win32,59.9880024,,,,,,,,1.203,,,,,,,,,,,,,,2,v,2.797,2.201057101,0,2.703,1.5,,,,,,26.36733703,0,2.201057101,,,,,,,,,,,,,0,79,79,90,1,0.544064207,1,,,,,,,,,,,,,,,,,,,,,,,,,,,,,,,,,,,,,,,,,,,,,,,,,,,,,,,,,,,,,,,,,,,,,,,,,,,,,,,,
,,5f691df8cc431c0fb5c12739,2022-09-08_10h58.38.053,CGTgamblingSpanTasks,2022.2.1,Win32,59.9880024,,,,,,,,2.1125,,,,,,,,,,,,,,1,v,1.8875,0,1,3.1125,1,,,,,,27.4965044,0,2.461467004,,,,,,,,,,,,,0,80,80,36,1,0.526550878,1,,,,,,,,,,,,,,,,,,,,,,,,,,,,,,,,,,,,,,,,,,,,,,,,,,,,,,,,,,,,,,,,,,,,,,,,,,,,,,,,
,,5f691df8cc431c0fb5c12739,2022-09-08_10h58.38.053,CGTgamblingSpanTasks,2022.2.1,Win32,59.9880024,,,,,,,,3.4636,,,,,,,,,,,,,,1,n,0.5364,9.936178001,0,4.9636,1.5,,,,,,19.58698544,0,9.936178001,,,,,,,,,,,,,0,81,81,77,1,0.098812204,0,,,,,,,,,,,,,,,,,,,,,,,,,,,,,,,,,,,,,,,,,,,,,,,,,,,,,,,,,,,,,,,,,,,,,,,,,,,,,,,,
,,5f691df8cc431c0fb5c12739,2022-09-08_10h58.38.053,CGTgamblingSpanTasks,2022.2.1,Win32,59.9880024,,,,,,,,3.5703,,,,,,,,,,,,,,1,n,0.4297,5.683635938,0,4.5703,1,,,,,,4.941039335,0,5.683635938,,,,,,,,,,,,,0,82,82,9,1,0.025481984,0,,,,,,,,,,,,,,,,,,,,,,,,,,,,,,,,,,,,,,,,,,,,,,,,,,,,,,,,,,,,,,,,,,,,,,,,,,,,,,,,
,,5f691df8cc431c0fb5c12739,2022-09-08_10h58.38.053,CGTgamblingSpanTasks,2022.2.1,Win32,59.9880024,,,,,,,,1.4183,,,,,,,,,,,,,,1,v,2.5817,22.87092517,1,2.9183,1.5,,,,,,22.87092517,0,0.059276504,,,,,,,,,,,,,0,83,83,27,1,0.911114935,0,,,,,,,,,,,,,,,,,,,,,,,,,,,,,,,,,,,,,,,,,,,,,,,,,,,,,,,,,,,,,,,,,,,,,,,,,,,,,,,,
,,5f691df8cc431c0fb5c12739,2022-09-08_10h58.38.053,CGTgamblingSpanTasks,2022.2.1,Win32,59.9880024,,,,,,,,2.3135,,,,,,,,,,,,,,2,v,1.6865,2.387726776,0,3.3135,1,,,,,,23.0613391,0,2.387726776,,,,,,,,,,,,,0,84,84,69,1,0.488727763,1,,,,,,,,,,,,,,,,,,,,,,,,,,,,,,,,,,,,,,,,,,,,,,,,,,,,,,,,,,,,,,,,,,,,,,,,,,,,,,,,
,,5f691df8cc431c0fb5c12739,2022-09-08_10h58.38.053,CGTgamblingSpanTasks,2022.2.1,Win32,59.9880024,,,,,,,,3.4546,,,,,,,,,,,,,,1,n,0.5454,11.42134125,0,4.9546,1.5,,,,,,12.9904115,0,11.42134125,,,,,,,,,,,,,0,85,85,118,1,0.037876033,0,,,,,,,,,,,,,,,,,,,,,,,,,,,,,,,,,,,,,,,,,,,,,,,,,,,,,,,,,,,,,,,,,,,,,,,,,,,,,,,,
,,5f691df8cc431c0fb5c12739,2022-09-08_10h58.38.053,CGTgamblingSpanTasks,2022.2.1,Win32,59.9880024,,,,,,,,2.8785,,,,,,,,,,,,,,2,n,1.1215,0,1,3.8785,1,,,,,,27.76752685,0,0.083968035,,,,,,,,,,,,,0,86,86,13,1,0.906513967,0,,,,,,,,,,,,,,,,,,,,,,,,,,,,,,,,,,,,,,,,,,,,,,,,,,,,,,,,,,,,,,,,,,,,,,,,,,,,,,,,
,,5f691df8cc431c0fb5c12739,2022-09-08_10h58.38.053,CGTgamblingSpanTasks,2022.2.1,Win32,59.9880024,,,,,,,,3.5493,,,,,,,,,,,,,,1,v,0.4507,25.26994993,1,5.0493,1.5,,,,,,25.26994993,0,2.78925142,,,,,,,,,,,,,0,87,87,108,1,0.471582922,1,,,,,,,,,,,,,,,,,,,,,,,,,,,,,,,,,,,,,,,,,,,,,,,,,,,,,,,,,,,,,,,,,,,,,,,,,,,,,,,,
,,5f691df8cc431c0fb5c12739,2022-09-08_10h58.38.053,CGTgamblingSpanTasks,2022.2.1,Win32,59.9880024,,,,,,,,3.2396,,,,,,,,,,,,,,1,v,0.7604,10.43004651,1,4.2396,1,,,,,,10.43004651,0,11.6744431,,,,,,,,,,,,,0,88,88,15,1,0.026176489,0,,,,,,,,,,,,,,,,,,,,,,,,,,,,,,,,,,,,,,,,,,,,,,,,,,,,,,,,,,,,,,,,,,,,,,,,,,,,,,,,
,,5f691df8cc431c0fb5c12739,2022-09-08_10h58.38.053,CGTgamblingSpanTasks,2022.2.1,Win32,59.9880024,,,,,,,,2.0261,,,,,,,,,,,,,,1,n,1.9739,2.003482335,0,3.0261,1,,,,,,23.24777057,0,2.003482335,,,,,,,,,,,,,0,89,89,59,1,0.536135174,1,,,,,,,,,,,,,,,,,,,,,,,,,,,,,,,,,,,,,,,,,,,,,,,,,,,,,,,,,,,,,,,,,,,,,,,,,,,,,,,,
,,5f691df8cc431c0fb5c12739,2022-09-08_10h58.38.053,CGTgamblingSpanTasks,2022.2.1,Win32,59.9880024,,,,,,,,3.0257,,,,,,,,,,,,,,1,n,0.9743,6.091504705,0,4.0257,1,,,,,,6.662965216,0,6.091504705,,,,,,,,,,,,,0,90,90,102,1,0.035087099,0,,,,,,,,,,,,,,,,,,,,,,,,,,,,,,,,,,,,,,,,,,,,,,,,,,,,,,,,,,,,,,,,,,,,,,,,,,,,,,,,
,,5f691df8cc431c0fb5c12739,2022-09-08_10h58.38.053,CGTgamblingSpanTasks,2022.2.1,Win32,59.9880024,,,,,,,,2.4903,,,,,,,,,,,,,,1,n,1.5097,1.966229494,0,3.9903,1.5,,,,,,19.36415485,0,1.966229494,,,,,,,,,,,,,0,91,91,96,1,0.493893111,1,,,,,,,,,,,,,,,,,,,,,,,,,,,,,,,,,,,,,,,,,,,,,,,,,,,,,,,,,,,,,,,,,,,,,,,,,,,,,,,,
,,5f691df8cc431c0fb5c12739,2022-09-08_10h58.38.053,CGTgamblingSpanTasks,2022.2.1,Win32,59.9880024,,,,,,,,3.3931,,,,,,,,,,,,,,1,v,0.6069,0,1,4.8931,1.5,,,,,,22.25959835,0,0.065383587,,,,,,,,,,,,,0,92,92,97,1,0.907413875,0,,,,,,,,,,,,,,,,,,,,,,,,,,,,,,,,,,,,,,,,,,,,,,,,,,,,,,,,,,,,,,,,,,,,,,,,,,,,,,,,
,,5f691df8cc431c0fb5c12739,2022-09-08_10h58.38.053,CGTgamblingSpanTasks,2022.2.1,Win32,59.9880024,,,,,,,,3.2313,,,,,,,,,,,,,,2,n,0.7687,22.86604061,1,4.7313,1.5,,,,,,22.86604061,0,2.293289792,,,,,,,,,,,,,0,93,93,51,1,0.49715382,1,,,,,,,,,,,,,,,,,,,,,,,,,,,,,,,,,,,,,,,,,,,,,,,,,,,,,,,,,,,,,,,,,,,,,,,,,,,,,,,,
,,5f691df8cc431c0fb5c12739,2022-09-08_10h58.38.053,CGTgamblingSpanTasks,2022.2.1,Win32,59.9880024,,,,,,,,2.3519,,,,,,,,,,,,,,1,v,1.6481,4.698775357,1,3.3519,1,,,,,,4.698775357,0,4.904872644,,,,,,,,,,,,,0,94,94,75,1,0.028064484,0,,,,,,,,,,,,,,,,,,,,,,,,,,,,,,,,,,,,,,,,,,,,,,,,,,,,,,,,,,,,,,,,,,,,,,,,,,,,,,,,
,,5f691df8cc431c0fb5c12739,2022-09-08_10h58.38.053,CGTgamblingSpanTasks,2022.2.1,Win32,59.9880024,,,,,,,,3.0615,,,,,,,,,,,,,,1,n,0.9385,4.462262453,0,4.5615,1.5,,,,,,0.192759042,0,4.462262453,,,,,,,,,,,,,0,95,95,52,1,0.003553223,0,,,,,,,,,,,,,,,,,,,,,,,,,,,,,,,,,,,,,,,,,,,,,,,,,,,,,,,,,,,,,,,,,,,,,,,,,,,,,,,,
,,5f691df8cc431c0fb5c12739,2022-09-08_10h58.38.053,CGTgamblingSpanTasks,2022.2.1,Win32,59.9880024,,,,,,,,2.7895,,,,,,,,,,,,,,2,n,1.2105,9.725876653,1,3.7895,1,,,,,,9.725876653,0,5.526483034,,,,,,,,,,,,,0,96,96,44,1,0.082550696,0,,,,,,,,,,,,,,,,,,,,,,,,,,,,,,,,,,,,,,,,,,,,,,,,,,,,,,,,,,,,,,,,,,,,,,,,,,,,,,,,
,,5f691df8cc431c0fb5c12739,2022-09-08_10h58.38.053,CGTgamblingSpanTasks,2022.2.1,Win32,59.9880024,,,,,,,,3.369,,,,,,,,,,,,,,2,v,0.631,2.771762788,0,4.369,1,,,,,,27.88092897,0,2.771762788,,,,,,,,,,,,,0,97,97,117,1,0.499466648,1,,,,,,,,,,,,,,,,,,,,,,,,,,,,,,,,,,,,,,,,,,,,,,,,,,,,,,,,,,,,,,,,,,,,,,,,,,,,,,,,
,,5f691df8cc431c0fb5c12739,2022-09-08_10h58.38.053,CGTgamblingSpanTasks,2022.2.1,Win32,59.9880024,,,,,,,,2.9124,,,,,,,,,,,,,,1,v,1.0876,0,1,3.9124,1,,,,,,21.46599803,0,0.059789256,,,,,,,,,,,,,0,98,98,8,1,0.909019081,0,,,,,,,,,,,,,,,,,,,,,,,,,,,,,,,,,,,,,,,,,,,,,,,,,,,,,,,,,,,,,,,,,,,,,,,,,,,,,,,,
,,5f691df8cc431c0fb5c12739,2022-09-08_10h58.38.053,CGTgamblingSpanTasks,2022.2.1,Win32,59.9880024,,,,,,,,2.3105,,,,,,,,,,,,,,1,v,1.6895,0,1,3.8105,1.5,,,,,,17.92584289,0,1.878232496,,,,,,,,,,,,,0,99,99,5,1,0.485559263,1,,,,,,,,,,,,,,,,,,,,,,,,,,,,,,,,,,,,,,,,,,,,,,,,,,,,,,,,,,,,,,,,,,,,,,,,,,,,,,,,
,,5f691df8cc431c0fb5c12739,2022-09-08_10h58.38.053,CGTgamblingSpanTasks,2022.2.1,Win32,59.9880024,,,,,,,,2.3718,,,,,,,,,,,,,,2,v,1.6282,2.485985001,0,3.3718,1,,,,,,23.4214135,0,2.485985001,,,,,,,,,,,,,0,100,100,81,1,0.482105905,1,,,,,,,,,,,,,,,,,,,,,,,,,,,,,,,,,,,,,,,,,,,,,,,,,,,,,,,,,,,,,,,,,,,,,,,,,,,,,,,,
,,5f691df8cc431c0fb5c12739,2022-09-08_10h58.38.053,CGTgamblingSpanTasks,2022.2.1,Win32,59.9880024,,,,,,,,0,,,,,,,,,,,,,,2,,,,,1,1,,,,,,25.54604005,0,0.088845411,,,,,,,,,,,,,0,101,101,79,1,0.901957831,0,,,,,,,,,,,,,,,,,,,,,,,,,,,,,,,,,,,,,,,,,,,,,,,,,,,,,,,,,,,,,,,,,,,,,,,,,,,,,,,,
,,5f691df8cc431c0fb5c12739,2022-09-08_10h58.38.053,CGTgamblingSpanTasks,2022.2.1,Win32,59.9880024,,,,,,,,2.1635,,,,,,,,,,,,,,1,n,1.8365,2.257683666,0,3.1635,1,,,,,,22.0050376,0,2.257683666,,,,,,,,,,,,,0,102,102,4,1,0.491147312,1,,,,,,,,,,,,,,,,,,,,,,,,,,,,,,,,,,,,,,,,,,,,,,,,,,,,,,,,,,,,,,,,,,,,,,,,,,,,,,,,
,,5f691df8cc431c0fb5c12739,2022-09-08_10h58.38.053,CGTgamblingSpanTasks,2022.2.1,Win32,59.9880024,,,,,,,,2.9829,,,,,,,,,,,,,,1,v,1.0171,25.65316415,1,3.9829,1,,,,,,25.65316415,0,0.079652925,,,,,,,,,,,,,0,103,103,109,1,0.90568168,0,,,,,,,,,,,,,,,,,,,,,,,,,,,,,,,,,,,,,,,,,,,,,,,,,,,,,,,,,,,,,,,,,,,,,,,,,,,,,,,,
,,5f691df8cc431c0fb5c12739,2022-09-08_10h58.38.053,CGTgamblingSpanTasks,2022.2.1,Win32,59.9880024,,,,,,,,3.1389,,,,,,,,,,,,,,1,n,0.8611,0.067170781,0,4.1389,1,,,,,,22.72923833,0,0.067170781,,,,,,,,,,,,,0,104,104,86,1,0.907226703,0,,,,,,,,,,,,,,,,,,,,,,,,,,,,,,,,,,,,,,,,,,,,,,,,,,,,,,,,,,,,,,,,,,,,,,,,,,,,,,,,
,,5f691df8cc431c0fb5c12739,2022-09-08_10h58.38.053,CGTgamblingSpanTasks,2022.2.1,Win32,59.9880024,,,,,,,,1.8704,,,,,,,,,,,,,,2,n,2.1296,0,1,3.3704,1.5,,,,,,15.13999312,0,8.653432553,,,,,,,,,,,,,0,105,105,54,1,0.081767484,0,,,,,,,,,,,,,,,,,,,,,,,,,,,,,,,,,,,,,,,,,,,,,,,,,,,,,,,,,,,,,,,,,,,,,,,,,,,,,,,,
,,5f691df8cc431c0fb5c12739,2022-09-08_10h58.38.053,CGTgamblingSpanTasks,2022.2.1,Win32,59.9880024,,,,,,,,2.8019,,,,,,,,,,,,,,2,v,1.1981,0.097022401,0,4.3019,1.5,,,,,,27.53810185,0,0.097022401,,,,,,,,,,,,,0,106,106,50,1,0.901515865,0,,,,,,,,,,,,,,,,,,,,,,,,,,,,,,,,,,,,,,,,,,,,,,,,,,,,,,,,,,,,,,,,,,,,,,,,,,,,,,,,
,,5f691df8cc431c0fb5c12739,2022-09-08_10h58.38.053,CGTgamblingSpanTasks,2022.2.1,Win32,59.9880024,,,,,,,,2.843,,,,,,,,,,,,,,1,n,1.157,6.781500919,0,4.343,1.5,,,,,,8.363821911,0,6.781500919,,,,,,,,,,,,,0,107,107,61,1,0.044227959,0,,,,,,,,,,,,,,,,,,,,,,,,,,,,,,,,,,,,,,,,,,,,,,,,,,,,,,,,,,,,,,,,,,,,,,,,,,,,,,,,
,,5f691df8cc431c0fb5c12739,2022-09-08_10h58.38.053,CGTgamblingSpanTasks,2022.2.1,Win32,59.9880024,,,,,,,,3.4401,,,,,,,,,,,,,,1,v,0.5599,0,1,4.9401,1.5,,,,,,25.0707644,0,0.067651625,,,,,,,,,,,,,0,108,108,70,1,0.909952349,0,,,,,,,,,,,,,,,,,,,,,,,,,,,,,,,,,,,,,,,,,,,,,,,,,,,,,,,,,,,,,,,,,,,,,,,,,,,,,,,,
,,5f691df8cc431c0fb5c12739,2022-09-08_10h58.38.053,CGTgamblingSpanTasks,2022.2.1,Win32,59.9880024,,,,,,,,3.324,,,,,,,,,,,,,,1,v,0.676,18.50662664,1,4.324,1,,,,,,18.50662664,0,0.052546026,,,,,,,,,,,,,0,109,109,112,1,0.908444837,0,,,,,,,,,,,,,,,,,,,,,,,,,,,,,,,,,,,,,,,,,,,,,,,,,,,,,,,,,,,,,,,,,,,,,,,,,,,,,,,,
,,5f691df8cc431c0fb5c12739,2022-09-08_10h58.38.053,CGTgamblingSpanTasks,2022.2.1,Win32,59.9880024,,,,,,,,3.3597,,,,,,,,,,,,,,2,n,0.6403,0,1,4.3597,1,,,,,,17.85020524,0,2.058701084,,,,,,,,,,,,,0,110,110,25,1,0.459662216,1,,,,,,,,,,,,,,,,,,,,,,,,,,,,,,,,,,,,,,,,,,,,,,,,,,,,,,,,,,,,,,,,,,,,,,,,,,,,,,,,
,,5f691df8cc431c0fb5c12739,2022-09-08_10h58.38.053,CGTgamblingSpanTasks,2022.2.1,Win32,59.9880024,,,,,,,,2.9882,,,,,,,,,,,,,,2,v,1.0118,10.31611309,0,3.9882,1,,,,,,19.30622782,0,10.31611309,,,,,,,,,,,,,0,111,111,1,1,0.091105656,0,,,,,,,,,,,,,,,,,,,,,,,,,,,,,,,,,,,,,,,,,,,,,,,,,,,,,,,,,,,,,,,,,,,,,,,,,,,,,,,,
,,5f691df8cc431c0fb5c12739,2022-09-08_10h58.38.053,CGTgamblingSpanTasks,2022.2.1,Win32,59.9880024,,,,,,,,2.8326,,,,,,,,,,,,,,2,n,1.1674,26.4985979,1,3.8326,1,,,,,,26.4985979,0,0.051324376,,,,,,,,,,,,,0,112,112,106,1,0.918747215,0,,,,,,,,,,,,,,,,,,,,,,,,,,,,,,,,,,,,,,,,,,,,,,,,,,,,,,,,,,,,,,,,,,,,,,,,,,,,,,,,
,,5f691df8cc431c0fb5c12739,2022-09-08_10h58.38.053,CGTgamblingSpanTasks,2022.2.1,Win32,59.9880024,,,,,,,,3.1187,,,,,,,,,,,,,,1,v,0.8813,28.9323758,1,4.6187,1.5,,,,,,28.9323758,0,2.893007023,,,,,,,,,,,,,0,113,113,11,1,0.497943321,1,,,,,,,,,,,,,,,,,,,,,,,,,,,,,,,,,,,,,,,,,,,,,,,,,,,,,,,,,,,,,,,,,,,,,,,,,,,,,,,,
,,5f691df8cc431c0fb5c12739,2022-09-08_10h58.38.053,CGTgamblingSpanTasks,2022.2.1,Win32,59.9880024,,,,,,,,3.193,,,,,,,,,,,,,,1,n,0.807,4.251676631,0,4.693,1.5,,,,,,3.395192929,0,4.251676631,,,,,,,,,,,,,0,114,114,7,1,0.023467153,0,,,,,,,,,,,,,,,,,,,,,,,,,,,,,,,,,,,,,,,,,,,,,,,,,,,,,,,,,,,,,,,,,,,,,,,,,,,,,,,,
,,5f691df8cc431c0fb5c12739,2022-09-08_10h58.38.053,CGTgamblingSpanTasks,2022.2.1,Win32,59.9880024,,,,,,,,2.4197,,,,,,,,,,,,,,1,n,1.5803,11.39288827,0,3.4197,1,,,,,,20.97851654,0,11.39288827,,,,,,,,,,,,,0,115,115,2,1,0.088791079,0,,,,,,,,,,,,,,,,,,,,,,,,,,,,,,,,,,,,,,,,,,,,,,,,,,,,,,,,,,,,,,,,,,,,,,,,,,,,,,,,
,,5f691df8cc431c0fb5c12739,2022-09-08_10h58.38.053,CGTgamblingSpanTasks,2022.2.1,Win32,59.9880024,,,,,,,,2.2223,,,,,,,,,,,,,,1,n,1.7777,2.320849632,0,3.7223,1.5,,,,,,27.7711693,0,2.320849632,,,,,,,,,,,,,0,116,116,94,1,0.543786368,1,,,,,,,,,,,,,,,,,,,,,,,,,,,,,,,,,,,,,,,,,,,,,,,,,,,,,,,,,,,,,,,,,,,,,,,,,,,,,,,,
,,5f691df8cc431c0fb5c12739,2022-09-08_10h58.38.053,CGTgamblingSpanTasks,2022.2.1,Win32,59.9880024,,,,,,,,1.843,,,,,,,,,,,,,,2,v,2.157,1.448620949,0,3.343,1.5,,,,,,17.4320197,0,1.448620949,,,,,,,,,,,,,0,117,117,30,1,0.545178213,1,,,,,,,,,,,,,,,,,,,,,,,,,,,,,,,,,,,,,,,,,,,,,,,,,,,,,,,,,,,,,,,,,,,,,,,,,,,,,,,,
,,5f691df8cc431c0fb5c12739,2022-09-08_10h58.38.053,CGTgamblingSpanTasks,2022.2.1,Win32,59.9880024,,,,,,,,3.0556,,,,,,,,,,,,,,2,v,0.9444,0.941456753,0,4.5556,1.5,,,,,,11.16819157,0,0.941456753,,,,,,,,,,,,,0,118,118,45,1,0.54163803,1,,,,,,,,,,,,,,,,,,,,,,,,,,,,,,,,,,,,,,,,,,,,,,,,,,,,,,,,,,,,,,,,,,,,,,,,,,,,,,,,
,,5f691df8cc431c0fb5c12739,2022-09-08_10h58.38.053,CGTgamblingSpanTasks,2022.2.1,Win32,59.9880024,,,,,,,,3.2777,,,,,,,,,,,,,,2,v,0.7223,2.743407746,0,4.7777,1.5,,,,,,27.39221343,0,2.743407746,,,,,,,,,,,,,0,119,119,47,1,0.49752044,1,,,,,,,,,,,,,,,,,,,,,,,,,,,,,,,,,,,,,,,,,,,,,,,,,,,,,,,,,,,,,,,,,,,,,,,,,,,,,,,,
,,5f691df8cc431c0fb5c12739,2022-09-08_10h58.38.053,CGTgamblingSpanTasks,2022.2.1,Win32,59.9880024,,,,,,,,,,,,,,,,,,,,,,,,,,,,,,,,,,,,,,,,,,,,,,,,,,,,,,,,return,30.4999,,,,,,,,,,,,,,,,,,,,,,,,,,,,,,,,,,,,,,,,,,,,,,,,,,,,,,,,,,,,,,,,,,,,,,,,,,,,,,
,,5f691df8cc431c0fb5c12739,2022-09-08_10h58.38.053,CGTgamblingSpanTasks,2022.2.1,Win32,59.9880024,,,,,,,,,,,,,,,,,,,,,,,,,,,,,,,,,,,,,,,,,,,,,,,,,,,,,,,,,,return,17.3841,,,,,,,,,,,,,,,,,,,,,,,,,,,,,,,,,,,,,,,,,,,,,,,,,,,,,,,,,,,,,,,,,,,,,,,,,,,,
,,5f691df8cc431c0fb5c12739,2022-09-08_10h58.38.053,CGTgamblingSpanTasks,2022.2.1,Win32,59.9880024,,,,,,,,,,,,,,,,,,,,,,,,,,,,,,,,,,,,,,,,,,,,,,,,,,,,,,,,,,,,return,71.5876,,,,,,,,,,,,,,,,,,,,,,,,,,,,,,,,,,,,,,,,,,,,,,,,,,,,,,,,,,,,,,,,,,,,,,,,,,
,,5f691df8cc431c0fb5c12739,2022-09-08_10h58.38.053,CGTgamblingSpanTasks,2022.2.1,Win32,59.9880024,,,,,,,,,,,,,,,,,,,,,,,,,,,,,,,,,,,,,,,,,,,,,,,,,,,,,,,,,,,,,,342,1,0.019444444,-0.40462963,1,0,0,cont_buttonPractice,0,0,0,0,1,3,342,24,2,42,,,,,,,,,,,,,,,,,,,,,,,,,,,,,,,,,,,,,,,,,,,,,,,,,,,,,,,,
,,5f691df8cc431c0fb5c12739,2022-09-08_10h58.38.053,CGTgamblingSpanTasks,2022.2.1,Win32,59.9880024,,,,,,,,,,,,,,,,,,,,,,,,,,,,,,,,,,,,,,,,,,,,,,,,,,,,,,,,,,,,,,937,1,-0.085185185,-0.412037037,1,0,0,cont_buttonPractice,0,1,1,1,1,3,937,73,2,37,,,,,,,,,,,,,,,,,,,,,,,,,,,,,,,,,,,,,,,,,,,,,,,,,,,,,,,,
,,5f691df8cc431c0fb5c12739,2022-09-08_10h58.38.053,CGTgamblingSpanTasks,2022.2.1,Win32,59.9880024,,,,,,,,,,,,,,,,,,,,,,,,,,,,,,,,,,,,,,,,,,,,,,,,,,,,,,,,,,,,,,,,,,,,,,,,,,,,,,,,return,12.3509,,,,,,,,,,,,,,,,,,,,,,,,,,,,,,,,,,,,,,,,,,,,,,,,,,,,,,
,,5f691df8cc431c0fb5c12739,2022-09-08_10h58.38.053,CGTgamblingSpanTasks,2022.2.1,Win32,59.9880024,,,,,,,,,,,,,,,,,,,,,,,,,,,,,,,,,,,,,,,,,,,,,,,,,,,,,,,,,,,,,,,,,,,,,,,,,,,,,,,,,,"[1,4,6]",0,0,0,0,1,,,,,,,,,,,,,,,,,,,,,,,,,,,,,,,,,,,,,,,,,,,,,,,,
,,5f691df8cc431c0fb5c12739,2022-09-08_10h58.38.053,CGTgamblingSpanTasks,2022.2.1,Win32,59.9880024,,,,,,,,,,,,,,,,,,,,,,,,,,,,,,,,,,,,,,,,,,,,,,,,,,,,,,,,,,,,,,,,,,,,,,,,,,,,,,,,,,"[1,4,6]",1,0,1,0,1,,,,,,,,,,,,,,,,,,,,,,,,,,,,,,,,,,,,,,,,,,,,,,,,
,,5f691df8cc431c0fb5c12739,2022-09-08_10h58.38.053,CGTgamblingSpanTasks,2022.2.1,Win32,59.9880024,,,,,,,,,,,,,,,,,,,,,,,,,,,,,,,,,,,,,,,,,,,,,,,,,,,,,,,,,,,,,,,,,,,,,,,,,,,,,,,,,,"[1,4,6]",2,0,2,0,1,,,,,,,,,,,,,,,,,,,,,,,,,,,,,,,,,,,,,,,,,,,,,,,,
,,5f691df8cc431c0fb5c12739,2022-09-08_10h58.38.053,CGTgamblingSpanTasks,2022.2.1,Win32,59.9880024,,,,,,,,,,,,,,,,,,,,,,,,,,,,,,,,,,,,,,,,,,,,,,,,,,,,,,,,,,,,,,,1,,,,,,,,,,,,,,,,,,,,,,,,,146,-0.040740741,-0.387962963,1,0,0,cont_button,0,0,0,0,1,1,,,,,,,,,,,,,,,,,,,,,,,,,,,,,,,,,,,
,,5f691df8cc431c0fb5c12739,2022-09-08_10h58.38.053,CGTgamblingSpanTasks,2022.2.1,Win32,59.9880024,,,,,,,,,,,,,,,,,,,,,,,,,,,,,,,,,,,,,,,,,,,,,,,,,,,,,,,,,,,,,,,,,,,,,,,,,,,,,,,,,,"[7,2,1,4]",0,0,0,0,1,,,,,,,,,,,,,,,,,,,,,,,,,,,,,,,,,,,,,,,,,,,,,,,,
,,5f691df8cc431c0fb5c12739,2022-09-08_10h58.38.053,CGTgamblingSpanTasks,2022.2.1,Win32,59.9880024,,,,,,,,,,,,,,,,,,,,,,,,,,,,,,,,,,,,,,,,,,,,,,,,,,,,,,,,,,,,,,,,,,,,,,,,,,,,,,,,,,"[7,2,1,4]",1,0,1,0,1,,,,,,,,,,,,,,,,,,,,,,,,,,,,,,,,,,,,,,,,,,,,,,,,
,,5f691df8cc431c0fb5c12739,2022-09-08_10h58.38.053,CGTgamblingSpanTasks,2022.2.1,Win32,59.9880024,,,,,,,,,,,,,,,,,,,,,,,,,,,,,,,,,,,,,,,,,,,,,,,,,,,,,,,,,,,,,,,,,,,,,,,,,,,,,,,,,,"[7,2,1,4]",2,0,2,0,1,,,,,,,,,,,,,,,,,,,,,,,,,,,,,,,,,,,,,,,,,,,,,,,,
,,5f691df8cc431c0fb5c12739,2022-09-08_10h58.38.053,CGTgamblingSpanTasks,2022.2.1,Win32,59.9880024,,,,,,,,,,,,,,,,,,,,,,,,,,,,,,,,,,,,,,,,,,,,,,,,,,,,,,,,,,,,,,,,,,,,,,,,,,,,,,,,,,"[7,2,1,4]",3,0,3,0,1,,,,,,,,,,,,,,,,,,,,,,,,,,,,,,,,,,,,,,,,,,,,,,,,
,,5f691df8cc431c0fb5c12739,2022-09-08_10h58.38.053,CGTgamblingSpanTasks,2022.2.1,Win32,59.9880024,,,,,,,,,,,,,,,,,,,,,,,,,,,,,,,,,,,,,,,,,,,,,,,,,,,,,,,,,,,,,,,1,,,,,,,,,,,,,,,,,,,,,,,,,7214,0.032407407,-0.381481481,1,0,0,cont_button,0,1,1,1,1,2,,,,,,,,,,,,,,,,,,,,,,,,,,,,,,,,,,,
,,5f691df8cc431c0fb5c12739,2022-09-08_10h58.38.053,CGTgamblingSpanTasks,2022.2.1,Win32,59.9880024,,,,,,,,,,,,,,,,,,,,,,,,,,,,,,,,,,,,,,,,,,,,,,,,,,,,,,,,,,,,,,,,,,,,,,,,,,,,,,,,,,"[6,4,1,9,2]",0,0,0,0,1,,,,,,,,,,,,,,,,,,,,,,,,,,,,,,,,,,,,,,,,,,,,,,,,
,,5f691df8cc431c0fb5c12739,2022-09-08_10h58.38.053,CGTgamblingSpanTasks,2022.2.1,Win32,59.9880024,,,,,,,,,,,,,,,,,,,,,,,,,,,,,,,,,,,,,,,,,,,,,,,,,,,,,,,,,,,,,,,,,,,,,,,,,,,,,,,,,,"[6,4,1,9,2]",1,0,1,0,1,,,,,,,,,,,,,,,,,,,,,,,,,,,,,,,,,,,,,,,,,,,,,,,,
,,5f691df8cc431c0fb5c12739,2022-09-08_10h58.38.053,CGTgamblingSpanTasks,2022.2.1,Win32,59.9880024,,,,,,,,,,,,,,,,,,,,,,,,,,,,,,,,,,,,,,,,,,,,,,,,,,,,,,,,,,,,,,,,,,,,,,,,,,,,,,,,,,"[6,4,1,9,2]",2,0,2,0,1,,,,,,,,,,,,,,,,,,,,,,,,,,,,,,,,,,,,,,,,,,,,,,,,
,,5f691df8cc431c0fb5c12739,2022-09-08_10h58.38.053,CGTgamblingSpanTasks,2022.2.1,Win32,59.9880024,,,,,,,,,,,,,,,,,,,,,,,,,,,,,,,,,,,,,,,,,,,,,,,,,,,,,,,,,,,,,,,,,,,,,,,,,,,,,,,,,,"[6,4,1,9,2]",3,0,3,0,1,,,,,,,,,,,,,,,,,,,,,,,,,,,,,,,,,,,,,,,,,,,,,,,,
,,5f691df8cc431c0fb5c12739,2022-09-08_10h58.38.053,CGTgamblingSpanTasks,2022.2.1,Win32,59.9880024,,,,,,,,,,,,,,,,,,,,,,,,,,,,,,,,,,,,,,,,,,,,,,,,,,,,,,,,,,,,,,,,,,,,,,,,,,,,,,,,,,"[6,4,1,9,2]",4,0,4,0,1,,,,,,,,,,,,,,,,,,,,,,,,,,,,,,,,,,,,,,,,,,,,,,,,
,,5f691df8cc431c0fb5c12739,2022-09-08_10h58.38.053,CGTgamblingSpanTasks,2022.2.1,Win32,59.9880024,,,,,,,,,,,,,,,,,,,,,,,,,,,,,,,,,,,,,,,,,,,,,,,,,,,,,,,,,,,,,,,1,,,,,,,,,,,,,,,,,,,,,,,,,64192,0.006481481,-0.392592593,1,0,0,cont_button,0,2,2,2,1,3,,,,,,,,,,,,,,,,,,,,,,,,,,,,,,,,,,,
,,5f691df8cc431c0fb5c12739,2022-09-08_10h58.38.053,CGTgamblingSpanTasks,2022.2.1,Win32,59.9880024,,,,,,,,,,,,,,,,,,,,,,,,,,,,,,,,,,,,,,,,,,,,,,,,,,,,,,,,,,,,,,,,,,,,,,,,,,,,,,,,,,"[5,4,1,8,7,9]",0,0,0,0,1,,,,,,,,,,,,,,,,,,,,,,,,,,,,,,,,,,,,,,,,,,,,,,,,
,,5f691df8cc431c0fb5c12739,2022-09-08_10h58.38.053,CGTgamblingSpanTasks,2022.2.1,Win32,59.9880024,,,,,,,,,,,,,,,,,,,,,,,,,,,,,,,,,,,,,,,,,,,,,,,,,,,,,,,,,,,,,,,,,,,,,,,,,,,,,,,,,,"[5,4,1,8,7,9]",1,0,1,0,1,,,,,,,,,,,,,,,,,,,,,,,,,,,,,,,,,,,,,,,,,,,,,,,,
,,5f691df8cc431c0fb5c12739,2022-09-08_10h58.38.053,CGTgamblingSpanTasks,2022.2.1,Win32,59.9880024,,,,,,,,,,,,,,,,,,,,,,,,,,,,,,,,,,,,,,,,,,,,,,,,,,,,,,,,,,,,,,,,,,,,,,,,,,,,,,,,,,"[5,4,1,8,7,9]",2,0,2,0,1,,,,,,,,,,,,,,,,,,,,,,,,,,,,,,,,,,,,,,,,,,,,,,,,
,,5f691df8cc431c0fb5c12739,2022-09-08_10h58.38.053,CGTgamblingSpanTasks,2022.2.1,Win32,59.9880024,,,,,,,,,,,,,,,,,,,,,,,,,,,,,,,,,,,,,,,,,,,,,,,,,,,,,,,,,,,,,,,,,,,,,,,,,,,,,,,,,,"[5,4,1,8,7,9]",3,0,3,0,1,,,,,,,,,,,,,,,,,,,,,,,,,,,,,,,,,,,,,,,,,,,,,,,,
,,5f691df8cc431c0fb5c12739,2022-09-08_10h58.38.053,CGTgamblingSpanTasks,2022.2.1,Win32,59.9880024,,,,,,,,,,,,,,,,,,,,,,,,,,,,,,,,,,,,,,,,,,,,,,,,,,,,,,,,,,,,,,,,,,,,,,,,,,,,,,,,,,"[5,4,1,8,7,9]",4,0,4,0,1,,,,,,,,,,,,,,,,,,,,,,,,,,,,,,,,,,,,,,,,,,,,,,,,
,,5f691df8cc431c0fb5c12739,2022-09-08_10h58.38.053,CGTgamblingSpanTasks,2022.2.1,Win32,59.9880024,,,,,,,,,,,,,,,,,,,,,,,,,,,,,,,,,,,,,,,,,,,,,,,,,,,,,,,,,,,,,,,,,,,,,,,,,,,,,,,,,,"[5,4,1,8,7,9]",5,0,5,0,1,,,,,,,,,,,,,,,,,,,,,,,,,,,,,,,,,,,,,,,,,,,,,,,,
,,5f691df8cc431c0fb5c12739,2022-09-08_10h58.38.053,CGTgamblingSpanTasks,2022.2.1,Win32,59.9880024,,,,,,,,,,,,,,,,,,,,,,,,,,,,,,,,,,,,,,,,,,,,,,,,,,,,,,,,,,,,,,,0,,,,,,,,,,,,,,,,,,,,,,,,,41879,0.016666667,-0.382407407,1,0,0,cont_button,0,3,3,3,1,4,,,,,,,,,,,,,,,,,,,,,,,,,,,,,,,,,,,
,,5f691df8cc431c0fb5c12739,2022-09-08_10h58.38.053,CGTgamblingSpanTasks,2022.2.1,Win32,59.9880024,,,,,,,,,,,,,,,,,,,,,,,,,,,,,,,,,,,,,,,,,,,,,,,,,,,,,,,,,,,,,,,,,,,,,,,,,,,,,,,,,,"[9,7,4,5,3,2]",0,0,0,0,1,,,,,,,,,,,,,,,,,,,,,,,,,,,,,,,,,,,,,,,,,,,,,,,,
,,5f691df8cc431c0fb5c12739,2022-09-08_10h58.38.053,CGTgamblingSpanTasks,2022.2.1,Win32,59.9880024,,,,,,,,,,,,,,,,,,,,,,,,,,,,,,,,,,,,,,,,,,,,,,,,,,,,,,,,,,,,,,,,,,,,,,,,,,,,,,,,,,"[9,7,4,5,3,2]",1,0,1,0,1,,,,,,,,,,,,,,,,,,,,,,,,,,,,,,,,,,,,,,,,,,,,,,,,
,,5f691df8cc431c0fb5c12739,2022-09-08_10h58.38.053,CGTgamblingSpanTasks,2022.2.1,Win32,59.9880024,,,,,,,,,,,,,,,,,,,,,,,,,,,,,,,,,,,,,,,,,,,,,,,,,,,,,,,,,,,,,,,,,,,,,,,,,,,,,,,,,,"[9,7,4,5,3,2]",2,0,2,0,1,,,,,,,,,,,,,,,,,,,,,,,,,,,,,,,,,,,,,,,,,,,,,,,,
,,5f691df8cc431c0fb5c12739,2022-09-08_10h58.38.053,CGTgamblingSpanTasks,2022.2.1,Win32,59.9880024,,,,,,,,,,,,,,,,,,,,,,,,,,,,,,,,,,,,,,,,,,,,,,,,,,,,,,,,,,,,,,,,,,,,,,,,,,,,,,,,,,"[9,7,4,5,3,2]",3,0,3,0,1,,,,,,,,,,,,,,,,,,,,,,,,,,,,,,,,,,,,,,,,,,,,,,,,
,,5f691df8cc431c0fb5c12739,2022-09-08_10h58.38.053,CGTgamblingSpanTasks,2022.2.1,Win32,59.9880024,,,,,,,,,,,,,,,,,,,,,,,,,,,,,,,,,,,,,,,,,,,,,,,,,,,,,,,,,,,,,,,,,,,,,,,,,,,,,,,,,,"[9,7,4,5,3,2]",4,0,4,0,1,,,,,,,,,,,,,,,,,,,,,,,,,,,,,,,,,,,,,,,,,,,,,,,,
,,5f691df8cc431c0fb5c12739,2022-09-08_10h58.38.053,CGTgamblingSpanTasks,2022.2.1,Win32,59.9880024,,,,,,,,,,,,,,,,,,,,,,,,,,,,,,,,,,,,,,,,,,,,,,,,,,,,,,,,,,,,,,,,,,,,,,,,,,,,,,,,,,"[9,7,4,5,3,2]",5,0,5,0,1,,,,,,,,,,,,,,,,,,,,,,,,,,,,,,,,,,,,,,,,,,,,,,,,
,,5f691df8cc431c0fb5c12739,2022-09-08_10h58.38.053,CGTgamblingSpanTasks,2022.2.1,Win32,59.9880024,,,,,,,,,,,,,,,,,,,,,,,,,,,,,,,,,,,,,,,,,,,,,,,,,,,,,,,,,,,,,,,1,,,,,,,,,,,,,,,,,,,,,,,,,974532,-0.027777778,-0.398148148,1,0,0,cont_button,0,4,4,4,1,5,,,,,,,,,,,,,,,,,,,,,,,,,,,,,,,,,,,
,,5f691df8cc431c0fb5c12739,2022-09-08_10h58.38.053,CGTgamblingSpanTasks,2022.2.1,Win32,59.9880024,,,,,,,,,,,,,,,,,,,,,,,,,,,,,,,,,,,,,,,,,,,,,,,,,,,,,,,,,,,,,,,,,,,,,,,,,,,,,,,,,,"[9,2,1,7,6,3,4]",0,0,0,0,1,,,,,,,,,,,,,,,,,,,,,,,,,,,,,,,,,,,,,,,,,,,,,,,,
,,5f691df8cc431c0fb5c12739,2022-09-08_10h58.38.053,CGTgamblingSpanTasks,2022.2.1,Win32,59.9880024,,,,,,,,,,,,,,,,,,,,,,,,,,,,,,,,,,,,,,,,,,,,,,,,,,,,,,,,,,,,,,,,,,,,,,,,,,,,,,,,,,"[9,2,1,7,6,3,4]",1,0,1,0,1,,,,,,,,,,,,,,,,,,,,,,,,,,,,,,,,,,,,,,,,,,,,,,,,
,,5f691df8cc431c0fb5c12739,2022-09-08_10h58.38.053,CGTgamblingSpanTasks,2022.2.1,Win32,59.9880024,,,,,,,,,,,,,,,,,,,,,,,,,,,,,,,,,,,,,,,,,,,,,,,,,,,,,,,,,,,,,,,,,,,,,,,,,,,,,,,,,,"[9,2,1,7,6,3,4]",2,0,2,0,1,,,,,,,,,,,,,,,,,,,,,,,,,,,,,,,,,,,,,,,,,,,,,,,,
,,5f691df8cc431c0fb5c12739,2022-09-08_10h58.38.053,CGTgamblingSpanTasks,2022.2.1,Win32,59.9880024,,,,,,,,,,,,,,,,,,,,,,,,,,,,,,,,,,,,,,,,,,,,,,,,,,,,,,,,,,,,,,,,,,,,,,,,,,,,,,,,,,"[9,2,1,7,6,3,4]",3,0,3,0,1,,,,,,,,,,,,,,,,,,,,,,,,,,,,,,,,,,,,,,,,,,,,,,,,
,,5f691df8cc431c0fb5c12739,2022-09-08_10h58.38.053,CGTgamblingSpanTasks,2022.2.1,Win32,59.9880024,,,,,,,,,,,,,,,,,,,,,,,,,,,,,,,,,,,,,,,,,,,,,,,,,,,,,,,,,,,,,,,,,,,,,,,,,,,,,,,,,,"[9,2,1,7,6,3,4]",4,0,4,0,1,,,,,,,,,,,,,,,,,,,,,,,,,,,,,,,,,,,,,,,,,,,,,,,,
,,5f691df8cc431c0fb5c12739,2022-09-08_10h58.38.053,CGTgamblingSpanTasks,2022.2.1,Win32,59.9880024,,,,,,,,,,,,,,,,,,,,,,,,,,,,,,,,,,,,,,,,,,,,,,,,,,,,,,,,,,,,,,,,,,,,,,,,,,,,,,,,,,"[9,2,1,7,6,3,4]",5,0,5,0,1,,,,,,,,,,,,,,,,,,,,,,,,,,,,,,,,,,,,,,,,,,,,,,,,
,,5f691df8cc431c0fb5c12739,2022-09-08_10h58.38.053,CGTgamblingSpanTasks,2022.2.1,Win32,59.9880024,,,,,,,,,,,,,,,,,,,,,,,,,,,,,,,,,,,,,,,,,,,,,,,,,,,,,,,,,,,,,,,,,,,,,,,,,,,,,,,,,,"[9,2,1,7,6,3,4]",6,0,6,0,1,,,,,,,,,,,,,,,,,,,,,,,,,,,,,,,,,,,,,,,,,,,,,,,,
,,5f691df8cc431c0fb5c12739,2022-09-08_10h58.38.053,CGTgamblingSpanTasks,2022.2.1,Win32,59.9880024,,,,,,,,,,,,,,,,,,,,,,,,,,,,,,,,,,,,,,,,,,,,,,,,,,,,,,,,,,,,,,,1,,,,,,,,,,,,,,,,,,,,,,,,,9217634,-0.072222222,-0.410185185,1,0,0,cont_button,0,5,5,5,1,6,,,,,,,,,,,,,,,,,,,,,,,,,,,,,,,,,,,
,,5f691df8cc431c0fb5c12739,2022-09-08_10h58.38.053,CGTgamblingSpanTasks,2022.2.1,Win32,59.9880024,,,,,,,,,,,,,,,,,,,,,,,,,,,,,,,,,,,,,,,,,,,,,,,,,,,,,,,,,,,,,,,,,,,,,,,,,,,,,,,,,,"[7,2,9,4,3,1,6,5]",0,0,0,0,1,,,,,,,,,,,,,,,,,,,,,,,,,,,,,,,,,,,,,,,,,,,,,,,,
,,5f691df8cc431c0fb5c12739,2022-09-08_10h58.38.053,CGTgamblingSpanTasks,2022.2.1,Win32,59.9880024,,,,,,,,,,,,,,,,,,,,,,,,,,,,,,,,,,,,,,,,,,,,,,,,,,,,,,,,,,,,,,,,,,,,,,,,,,,,,,,,,,"[7,2,9,4,3,1,6,5]",1,0,1,0,1,,,,,,,,,,,,,,,,,,,,,,,,,,,,,,,,,,,,,,,,,,,,,,,,
,,5f691df8cc431c0fb5c12739,2022-09-08_10h58.38.053,CGTgamblingSpanTasks,2022.2.1,Win32,59.9880024,,,,,,,,,,,,,,,,,,,,,,,,,,,,,,,,,,,,,,,,,,,,,,,,,,,,,,,,,,,,,,,,,,,,,,,,,,,,,,,,,,"[7,2,9,4,3,1,6,5]",2,0,2,0,1,,,,,,,,,,,,,,,,,,,,,,,,,,,,,,,,,,,,,,,,,,,,,,,,
,,5f691df8cc431c0fb5c12739,2022-09-08_10h58.38.053,CGTgamblingSpanTasks,2022.2.1,Win32,59.9880024,,,,,,,,,,,,,,,,,,,,,,,,,,,,,,,,,,,,,,,,,,,,,,,,,,,,,,,,,,,,,,,,,,,,,,,,,,,,,,,,,,"[7,2,9,4,3,1,6,5]",3,0,3,0,1,,,,,,,,,,,,,,,,,,,,,,,,,,,,,,,,,,,,,,,,,,,,,,,,
,,5f691df8cc431c0fb5c12739,2022-09-08_10h58.38.053,CGTgamblingSpanTasks,2022.2.1,Win32,59.9880024,,,,,,,,,,,,,,,,,,,,,,,,,,,,,,,,,,,,,,,,,,,,,,,,,,,,,,,,,,,,,,,,,,,,,,,,,,,,,,,,,,"[7,2,9,4,3,1,6,5]",4,0,4,0,1,,,,,,,,,,,,,,,,,,,,,,,,,,,,,,,,,,,,,,,,,,,,,,,,
,,5f691df8cc431c0fb5c12739,2022-09-08_10h58.38.053,CGTgamblingSpanTasks,2022.2.1,Win32,59.9880024,,,,,,,,,,,,,,,,,,,,,,,,,,,,,,,,,,,,,,,,,,,,,,,,,,,,,,,,,,,,,,,,,,,,,,,,,,,,,,,,,,"[7,2,9,4,3,1,6,5]",5,0,5,0,1,,,,,,,,,,,,,,,,,,,,,,,,,,,,,,,,,,,,,,,,,,,,,,,,
,,5f691df8cc431c0fb5c12739,2022-09-08_10h58.38.053,CGTgamblingSpanTasks,2022.2.1,Win32,59.9880024,,,,,,,,,,,,,,,,,,,,,,,,,,,,,,,,,,,,,,,,,,,,,,,,,,,,,,,,,,,,,,,,,,,,,,,,,,,,,,,,,,"[7,2,9,4,3,1,6,5]",6,0,6,0,1,,,,,,,,,,,,,,,,,,,,,,,,,,,,,,,,,,,,,,,,,,,,,,,,
,,5f691df8cc431c0fb5c12739,2022-09-08_10h58.38.053,CGTgamblingSpanTasks,2022.2.1,Win32,59.9880024,,,,,,,,,,,,,,,,,,,,,,,,,,,,,,,,,,,,,,,,,,,,,,,,,,,,,,,,,,,,,,,,,,,,,,,,,,,,,,,,,,"[7,2,9,4,3,1,6,5]",7,0,7,0,1,,,,,,,,,,,,,,,,,,,,,,,,,,,,,,,,,,,,,,,,,,,,,,,,
,,5f691df8cc431c0fb5c12739,2022-09-08_10h58.38.053,CGTgamblingSpanTasks,2022.2.1,Win32,59.9880024,,,,,,,,,,,,,,,,,,,,,,,,,,,,,,,,,,,,,,,,,,,,,,,,,,,,,,,,,,,,,,,1,,,,,,,,,,,,,,,,,,,,,,,,,72943165,-0.062962963,-0.40462963,1,0,0,cont_button,0,6,6,6,1,7,,,,,,,,,,,,,,,,,,,,,,,,,,,,,,,,,,,
,,5f691df8cc431c0fb5c12739,2022-09-08_10h58.38.053,CGTgamblingSpanTasks,2022.2.1,Win32,59.9880024,,,,,,,,,,,,,,,,,,,,,,,,,,,,,,,,,,,,,,,,,,,,,,,,,,,,,,,,,,,,,,,,,,,,,,,,,,,,,,,,,,"[8,2,9,7,1,3,5,4,6]",0,0,0,0,1,,,,,,,,,,,,,,,,,,,,,,,,,,,,,,,,,,,,,,,,,,,,,,,,
,,5f691df8cc431c0fb5c12739,2022-09-08_10h58.38.053,CGTgamblingSpanTasks,2022.2.1,Win32,59.9880024,,,,,,,,,,,,,,,,,,,,,,,,,,,,,,,,,,,,,,,,,,,,,,,,,,,,,,,,,,,,,,,,,,,,,,,,,,,,,,,,,,"[8,2,9,7,1,3,5,4,6]",1,0,1,0,1,,,,,,,,,,,,,,,,,,,,,,,,,,,,,,,,,,,,,,,,,,,,,,,,
,,5f691df8cc431c0fb5c12739,2022-09-08_10h58.38.053,CGTgamblingSpanTasks,2022.2.1,Win32,59.9880024,,,,,,,,,,,,,,,,,,,,,,,,,,,,,,,,,,,,,,,,,,,,,,,,,,,,,,,,,,,,,,,,,,,,,,,,,,,,,,,,,,"[8,2,9,7,1,3,5,4,6]",2,0,2,0,1,,,,,,,,,,,,,,,,,,,,,,,,,,,,,,,,,,,,,,,,,,,,,,,,
,,5f691df8cc431c0fb5c12739,2022-09-08_10h58.38.053,CGTgamblingSpanTasks,2022.2.1,Win32,59.9880024,,,,,,,,,,,,,,,,,,,,,,,,,,,,,,,,,,,,,,,,,,,,,,,,,,,,,,,,,,,,,,,,,,,,,,,,,,,,,,,,,,"[8,2,9,7,1,3,5,4,6]",3,0,3,0,1,,,,,,,,,,,,,,,,,,,,,,,,,,,,,,,,,,,,,,,,,,,,,,,,
,,5f691df8cc431c0fb5c12739,2022-09-08_10h58.38.053,CGTgamblingSpanTasks,2022.2.1,Win32,59.9880024,,,,,,,,,,,,,,,,,,,,,,,,,,,,,,,,,,,,,,,,,,,,,,,,,,,,,,,,,,,,,,,,,,,,,,,,,,,,,,,,,,"[8,2,9,7,1,3,5,4,6]",4,0,4,0,1,,,,,,,,,,,,,,,,,,,,,,,,,,,,,,,,,,,,,,,,,,,,,,,,
,,5f691df8cc431c0fb5c12739,2022-09-08_10h58.38.053,CGTgamblingSpanTasks,2022.2.1,Win32,59.9880024,,,,,,,,,,,,,,,,,,,,,,,,,,,,,,,,,,,,,,,,,,,,,,,,,,,,,,,,,,,,,,,,,,,,,,,,,,,,,,,,,,"[8,2,9,7,1,3,5,4,6]",5,0,5,0,1,,,,,,,,,,,,,,,,,,,,,,,,,,,,,,,,,,,,,,,,,,,,,,,,
,,5f691df8cc431c0fb5c12739,2022-09-08_10h58.38.053,CGTgamblingSpanTasks,2022.2.1,Win32,59.9880024,,,,,,,,,,,,,,,,,,,,,,,,,,,,,,,,,,,,,,,,,,,,,,,,,,,,,,,,,,,,,,,,,,,,,,,,,,,,,,,,,,"[8,2,9,7,1,3,5,4,6]",6,0,6,0,1,,,,,,,,,,,,,,,,,,,,,,,,,,,,,,,,,,,,,,,,,,,,,,,,
,,5f691df8cc431c0fb5c12739,2022-09-08_10h58.38.053,CGTgamblingSpanTasks,2022.2.1,Win32,59.9880024,,,,,,,,,,,,,,,,,,,,,,,,,,,,,,,,,,,,,,,,,,,,,,,,,,,,,,,,,,,,,,,,,,,,,,,,,,,,,,,,,,"[8,2,9,7,1,3,5,4,6]",7,0,7,0,1,,,,,,,,,,,,,,,,,,,,,,,,,,,,,,,,,,,,,,,,,,,,,,,,
,,5f691df8cc431c0fb5c12739,2022-09-08_10h58.38.053,CGTgamblingSpanTasks,2022.2.1,Win32,59.9880024,,,,,,,,,,,,,,,,,,,,,,,,,,,,,,,,,,,,,,,,,,,,,,,,,,,,,,,,,,,,,,,,,,,,,,,,,,,,,,,,,,"[8,2,9,7,1,3,5,4,6]",8,0,8,0,1,,,,,,,,,,,,,,,,,,,,,,,,,,,,,,,,,,,,,,,,,,,,,,,,
,,5f691df8cc431c0fb5c12739,2022-09-08_10h58.38.053,CGTgamblingSpanTasks,2022.2.1,Win32,59.9880024,,,,,,,,,,,,,,,,,,,,,,,,,,,,,,,,,,,,,,,,,,,,,,,,,,,,,,,,,,,,,,,1,,,,,,,,,,,,,,,,,,,,,,,,,829713546,-0.062962963,-0.412962963,1,0,0,cont_button,0,7,7,7,1,8,,,,,,,,,,,,,,,,,,,,,,,,,,,,,,,,,,,
,,5f691df8cc431c0fb5c12739,2022-09-08_10h58.38.053,CGTgamblingSpanTasks,2022.2.1,Win32,59.9880024,,,,,,,,,,,,,,,,,,,,,,,,,,,,,,,,,,,,,,,,,,,,,,,,,,,,,,,,,,,,,,,,,,,,,,,,,,,,,,,,,,"[4,8,5,2,6,1,9,7,3,3]",0,0,0,0,1,,,,,,,,,,,,,,,,,,,,,,,,,,,,,,,,,,,,,,,,,,,,,,,,
,,5f691df8cc431c0fb5c12739,2022-09-08_10h58.38.053,CGTgamblingSpanTasks,2022.2.1,Win32,59.9880024,,,,,,,,,,,,,,,,,,,,,,,,,,,,,,,,,,,,,,,,,,,,,,,,,,,,,,,,,,,,,,,,,,,,,,,,,,,,,,,,,,"[4,8,5,2,6,1,9,7,3,3]",1,0,1,0,1,,,,,,,,,,,,,,,,,,,,,,,,,,,,,,,,,,,,,,,,,,,,,,,,
,,5f691df8cc431c0fb5c12739,2022-09-08_10h58.38.053,CGTgamblingSpanTasks,2022.2.1,Win32,59.9880024,,,,,,,,,,,,,,,,,,,,,,,,,,,,,,,,,,,,,,,,,,,,,,,,,,,,,,,,,,,,,,,,,,,,,,,,,,,,,,,,,,"[4,8,5,2,6,1,9,7,3,3]",2,0,2,0,1,,,,,,,,,,,,,,,,,,,,,,,,,,,,,,,,,,,,,,,,,,,,,,,,
,,5f691df8cc431c0fb5c12739,2022-09-08_10h58.38.053,CGTgamblingSpanTasks,2022.2.1,Win32,59.9880024,,,,,,,,,,,,,,,,,,,,,,,,,,,,,,,,,,,,,,,,,,,,,,,,,,,,,,,,,,,,,,,,,,,,,,,,,,,,,,,,,,"[4,8,5,2,6,1,9,7,3,3]",3,0,3,0,1,,,,,,,,,,,,,,,,,,,,,,,,,,,,,,,,,,,,,,,,,,,,,,,,
,,5f691df8cc431c0fb5c12739,2022-09-08_10h58.38.053,CGTgamblingSpanTasks,2022.2.1,Win32,59.9880024,,,,,,,,,,,,,,,,,,,,,,,,,,,,,,,,,,,,,,,,,,,,,,,,,,,,,,,,,,,,,,,,,,,,,,,,,,,,,,,,,,"[4,8,5,2,6,1,9,7,3,3]",4,0,4,0,1,,,,,,,,,,,,,,,,,,,,,,,,,,,,,,,,,,,,,,,,,,,,,,,,
,,5f691df8cc431c0fb5c12739,2022-09-08_10h58.38.053,CGTgamblingSpanTasks,2022.2.1,Win32,59.9880024,,,,,,,,,,,,,,,,,,,,,,,,,,,,,,,,,,,,,,,,,,,,,,,,,,,,,,,,,,,,,,,,,,,,,,,,,,,,,,,,,,"[4,8,5,2,6,1,9,7,3,3]",5,0,5,0,1,,,,,,,,,,,,,,,,,,,,,,,,,,,,,,,,,,,,,,,,,,,,,,,,
,,5f691df8cc431c0fb5c12739,2022-09-08_10h58.38.053,CGTgamblingSpanTasks,2022.2.1,Win32,59.9880024,,,,,,,,,,,,,,,,,,,,,,,,,,,,,,,,,,,,,,,,,,,,,,,,,,,,,,,,,,,,,,,,,,,,,,,,,,,,,,,,,,"[4,8,5,2,6,1,9,7,3,3]",6,0,6,0,1,,,,,,,,,,,,,,,,,,,,,,,,,,,,,,,,,,,,,,,,,,,,,,,,
,,5f691df8cc431c0fb5c12739,2022-09-08_10h58.38.053,CGTgamblingSpanTasks,2022.2.1,Win32,59.9880024,,,,,,,,,,,,,,,,,,,,,,,,,,,,,,,,,,,,,,,,,,,,,,,,,,,,,,,,,,,,,,,,,,,,,,,,,,,,,,,,,,"[4,8,5,2,6,1,9,7,3,3]",7,0,7,0,1,,,,,,,,,,,,,,,,,,,,,,,,,,,,,,,,,,,,,,,,,,,,,,,,
,,5f691df8cc431c0fb5c12739,2022-09-08_10h58.38.053,CGTgamblingSpanTasks,2022.2.1,Win32,59.9880024,,,,,,,,,,,,,,,,,,,,,,,,,,,,,,,,,,,,,,,,,,,,,,,,,,,,,,,,,,,,,,,,,,,,,,,,,,,,,,,,,,"[4,8,5,2,6,1,9,7,3,3]",8,0,8,0,1,,,,,,,,,,,,,,,,,,,,,,,,,,,,,,,,,,,,,,,,,,,,,,,,
,,5f691df8cc431c0fb5c12739,2022-09-08_10h58.38.053,CGTgamblingSpanTasks,2022.2.1,Win32,59.9880024,,,,,,,,,,,,,,,,,,,,,,,,,,,,,,,,,,,,,,,,,,,,,,,,,,,,,,,,,,,,,,,,,,,,,,,,,,,,,,,,,,"[4,8,5,2,6,1,9,7,3,3]",9,0,9,0,1,,,,,,,,,,,,,,,,,,,,,,,,,,,,,,,,,,,,,,,,,,,,,,,,
,,5f691df8cc431c0fb5c12739,2022-09-08_10h58.38.053,CGTgamblingSpanTasks,2022.2.1,Win32,59.9880024,,,,,,,,,,,,,,,,,,,,,,,,,,,,,,,,,,,,,,,,,,,,,,,,,,,,,,,,,,,,,,,1,,,,,,,,,,,,,,,,,,,,,,,,,4852619733,-0.030555556,-0.410185185,1,0,0,cont_button,0,8,8,8,1,9,,,,,,,,,,,,,,,,,,,,,,,,,,,,,,,,,,,
,,5f691df8cc431c0fb5c12739,2022-09-08_10h58.38.053,CGTgamblingSpanTasks,2022.2.1,Win32,59.9880024,,,,,,,,,,,,,,,,,,,,,,,,,,,,,,,,,,,,,,,,,,,,,,,,,,,,,,,,,,,,,,,,,,,,,,,,,,,,,,,,,,"[8,9,5,6,3,7,2,1,4,4,5]",0,0,0,0,1,,,,,,,,,,,,,,,,,,,,,,,,,,,,,,,,,,,,,,,,,,,,,,,,
,,5f691df8cc431c0fb5c12739,2022-09-08_10h58.38.053,CGTgamblingSpanTasks,2022.2.1,Win32,59.9880024,,,,,,,,,,,,,,,,,,,,,,,,,,,,,,,,,,,,,,,,,,,,,,,,,,,,,,,,,,,,,,,,,,,,,,,,,,,,,,,,,,"[8,9,5,6,3,7,2,1,4,4,5]",1,0,1,0,1,,,,,,,,,,,,,,,,,,,,,,,,,,,,,,,,,,,,,,,,,,,,,,,,
,,5f691df8cc431c0fb5c12739,2022-09-08_10h58.38.053,CGTgamblingSpanTasks,2022.2.1,Win32,59.9880024,,,,,,,,,,,,,,,,,,,,,,,,,,,,,,,,,,,,,,,,,,,,,,,,,,,,,,,,,,,,,,,,,,,,,,,,,,,,,,,,,,"[8,9,5,6,3,7,2,1,4,4,5]",2,0,2,0,1,,,,,,,,,,,,,,,,,,,,,,,,,,,,,,,,,,,,,,,,,,,,,,,,
,,5f691df8cc431c0fb5c12739,2022-09-08_10h58.38.053,CGTgamblingSpanTasks,2022.2.1,Win32,59.9880024,,,,,,,,,,,,,,,,,,,,,,,,,,,,,,,,,,,,,,,,,,,,,,,,,,,,,,,,,,,,,,,,,,,,,,,,,,,,,,,,,,"[8,9,5,6,3,7,2,1,4,4,5]",3,0,3,0,1,,,,,,,,,,,,,,,,,,,,,,,,,,,,,,,,,,,,,,,,,,,,,,,,
,,5f691df8cc431c0fb5c12739,2022-09-08_10h58.38.053,CGTgamblingSpanTasks,2022.2.1,Win32,59.9880024,,,,,,,,,,,,,,,,,,,,,,,,,,,,,,,,,,,,,,,,,,,,,,,,,,,,,,,,,,,,,,,,,,,,,,,,,,,,,,,,,,"[8,9,5,6,3,7,2,1,4,4,5]",4,0,4,0,1,,,,,,,,,,,,,,,,,,,,,,,,,,,,,,,,,,,,,,,,,,,,,,,,
,,5f691df8cc431c0fb5c12739,2022-09-08_10h58.38.053,CGTgamblingSpanTasks,2022.2.1,Win32,59.9880024,,,,,,,,,,,,,,,,,,,,,,,,,,,,,,,,,,,,,,,,,,,,,,,,,,,,,,,,,,,,,,,,,,,,,,,,,,,,,,,,,,"[8,9,5,6,3,7,2,1,4,4,5]",5,0,5,0,1,,,,,,,,,,,,,,,,,,,,,,,,,,,,,,,,,,,,,,,,,,,,,,,,
,,5f691df8cc431c0fb5c12739,2022-09-08_10h58.38.053,CGTgamblingSpanTasks,2022.2.1,Win32,59.9880024,,,,,,,,,,,,,,,,,,,,,,,,,,,,,,,,,,,,,,,,,,,,,,,,,,,,,,,,,,,,,,,,,,,,,,,,,,,,,,,,,,"[8,9,5,6,3,7,2,1,4,4,5]",6,0,6,0,1,,,,,,,,,,,,,,,,,,,,,,,,,,,,,,,,,,,,,,,,,,,,,,,,
,,5f691df8cc431c0fb5c12739,2022-09-08_10h58.38.053,CGTgamblingSpanTasks,2022.2.1,Win32,59.9880024,,,,,,,,,,,,,,,,,,,,,,,,,,,,,,,,,,,,,,,,,,,,,,,,,,,,,,,,,,,,,,,,,,,,,,,,,,,,,,,,,,"[8,9,5,6,3,7,2,1,4,4,5]",7,0,7,0,1,,,,,,,,,,,,,,,,,,,,,,,,,,,,,,,,,,,,,,,,,,,,,,,,
,,5f691df8cc431c0fb5c12739,2022-09-08_10h58.38.053,CGTgamblingSpanTasks,2022.2.1,Win32,59.9880024,,,,,,,,,,,,,,,,,,,,,,,,,,,,,,,,,,,,,,,,,,,,,,,,,,,,,,,,,,,,,,,,,,,,,,,,,,,,,,,,,,"[8,9,5,6,3,7,2,1,4,4,5]",8,0,8,0,1,,,,,,,,,,,,,,,,,,,,,,,,,,,,,,,,,,,,,,,,,,,,,,,,
,,5f691df8cc431c0fb5c12739,2022-09-08_10h58.38.053,CGTgamblingSpanTasks,2022.2.1,Win32,59.9880024,,,,,,,,,,,,,,,,,,,,,,,,,,,,,,,,,,,,,,,,,,,,,,,,,,,,,,,,,,,,,,,,,,,,,,,,,,,,,,,,,,"[8,9,5,6,3,7,2,1,4,4,5]",9,0,9,0,1,,,,,,,,,,,,,,,,,,,,,,,,,,,,,,,,,,,,,,,,,,,,,,,,
,,5f691df8cc431c0fb5c12739,2022-09-08_10h58.38.053,CGTgamblingSpanTasks,2022.2.1,Win32,59.9880024,,,,,,,,,,,,,,,,,,,,,,,,,,,,,,,,,,,,,,,,,,,,,,,,,,,,,,,,,,,,,,,,,,,,,,,,,,,,,,,,,,"[8,9,5,6,3,7,2,1,4,4,5]",10,0,10,0,1,,,,,,,,,,,,,,,,,,,,,,,,,,,,,,,,,,,,,,,,,,,,,,,,
,,5f691df8cc431c0fb5c12739,2022-09-08_10h58.38.053,CGTgamblingSpanTasks,2022.2.1,Win32,59.9880024,,,,,,,,,,,,,,,,,,,,,,,,,,,,,,,,,,,,,,,,,,,,,,,,,,,,,,,,,,,,,,,1,,,,,,,,,,,,,,,,,,,,,,,,,89563721445,-0.006481481,-0.423148148,1,0,0,cont_button,0,9,9,9,1,10,,,,,,,,,,,,,,,,,,,,,,,,,,,,,,,,,,,
,,5f691df8cc431c0fb5c12739,2022-09-08_10h58.38.053,CGTgamblingSpanTasks,2022.2.1,Win32,59.9880024,,,,,,,,,,,,,,,,,,,,,,,,,,,,,,,,,,,,,,,,,,,,,,,,,,,,,,,,,,,,,,,,,,,,,,,,,,,,,,,,,,"[7,6,3,5,9,2,4,1,8,8,6,7]",0,0,0,0,1,,,,,,,,,,,,,,,,,,,,,,,,,,,,,,,,,,,,,,,,,,,,,,,,
,,5f691df8cc431c0fb5c12739,2022-09-08_10h58.38.053,CGTgamblingSpanTasks,2022.2.1,Win32,59.9880024,,,,,,,,,,,,,,,,,,,,,,,,,,,,,,,,,,,,,,,,,,,,,,,,,,,,,,,,,,,,,,,,,,,,,,,,,,,,,,,,,,"[7,6,3,5,9,2,4,1,8,8,6,7]",1,0,1,0,1,,,,,,,,,,,,,,,,,,,,,,,,,,,,,,,,,,,,,,,,,,,,,,,,
,,5f691df8cc431c0fb5c12739,2022-09-08_10h58.38.053,CGTgamblingSpanTasks,2022.2.1,Win32,59.9880024,,,,,,,,,,,,,,,,,,,,,,,,,,,,,,,,,,,,,,,,,,,,,,,,,,,,,,,,,,,,,,,,,,,,,,,,,,,,,,,,,,"[7,6,3,5,9,2,4,1,8,8,6,7]",2,0,2,0,1,,,,,,,,,,,,,,,,,,,,,,,,,,,,,,,,,,,,,,,,,,,,,,,,
,,5f691df8cc431c0fb5c12739,2022-09-08_10h58.38.053,CGTgamblingSpanTasks,2022.2.1,Win32,59.9880024,,,,,,,,,,,,,,,,,,,,,,,,,,,,,,,,,,,,,,,,,,,,,,,,,,,,,,,,,,,,,,,,,,,,,,,,,,,,,,,,,,"[7,6,3,5,9,2,4,1,8,8,6,7]",3,0,3,0,1,,,,,,,,,,,,,,,,,,,,,,,,,,,,,,,,,,,,,,,,,,,,,,,,
,,5f691df8cc431c0fb5c12739,2022-09-08_10h58.38.053,CGTgamblingSpanTasks,2022.2.1,Win32,59.9880024,,,,,,,,,,,,,,,,,,,,,,,,,,,,,,,,,,,,,,,,,,,,,,,,,,,,,,,,,,,,,,,,,,,,,,,,,,,,,,,,,,"[7,6,3,5,9,2,4,1,8,8,6,7]",4,0,4,0,1,,,,,,,,,,,,,,,,,,,,,,,,,,,,,,,,,,,,,,,,,,,,,,,,
,,5f691df8cc431c0fb5c12739,2022-09-08_10h58.38.053,CGTgamblingSpanTasks,2022.2.1,Win32,59.9880024,,,,,,,,,,,,,,,,,,,,,,,,,,,,,,,,,,,,,,,,,,,,,,,,,,,,,,,,,,,,,,,,,,,,,,,,,,,,,,,,,,"[7,6,3,5,9,2,4,1,8,8,6,7]",5,0,5,0,1,,,,,,,,,,,,,,,,,,,,,,,,,,,,,,,,,,,,,,,,,,,,,,,,
,,5f691df8cc431c0fb5c12739,2022-09-08_10h58.38.053,CGTgamblingSpanTasks,2022.2.1,Win32,59.9880024,,,,,,,,,,,,,,,,,,,,,,,,,,,,,,,,,,,,,,,,,,,,,,,,,,,,,,,,,,,,,,,,,,,,,,,,,,,,,,,,,,"[7,6,3,5,9,2,4,1,8,8,6,7]",6,0,6,0,1,,,,,,,,,,,,,,,,,,,,,,,,,,,,,,,,,,,,,,,,,,,,,,,,
,,5f691df8cc431c0fb5c12739,2022-09-08_10h58.38.053,CGTgamblingSpanTasks,2022.2.1,Win32,59.9880024,,,,,,,,,,,,,,,,,,,,,,,,,,,,,,,,,,,,,,,,,,,,,,,,,,,,,,,,,,,,,,,,,,,,,,,,,,,,,,,,,,"[7,6,3,5,9,2,4,1,8,8,6,7]",7,0,7,0,1,,,,,,,,,,,,,,,,,,,,,,,,,,,,,,,,,,,,,,,,,,,,,,,,
,,5f691df8cc431c0fb5c12739,2022-09-08_10h58.38.053,CGTgamblingSpanTasks,2022.2.1,Win32,59.9880024,,,,,,,,,,,,,,,,,,,,,,,,,,,,,,,,,,,,,,,,,,,,,,,,,,,,,,,,,,,,,,,,,,,,,,,,,,,,,,,,,,"[7,6,3,5,9,2,4,1,8,8,6,7]",8,0,8,0,1,,,,,,,,,,,,,,,,,,,,,,,,,,,,,,,,,,,,,,,,,,,,,,,,
,,5f691df8cc431c0fb5c12739,2022-09-08_10h58.38.053,CGTgamblingSpanTasks,2022.2.1,Win32,59.9880024,,,,,,,,,,,,,,,,,,,,,,,,,,,,,,,,,,,,,,,,,,,,,,,,,,,,,,,,,,,,,,,,,,,,,,,,,,,,,,,,,,"[7,6,3,5,9,2,4,1,8,8,6,7]",9,0,9,0,1,,,,,,,,,,,,,,,,,,,,,,,,,,,,,,,,,,,,,,,,,,,,,,,,
,,5f691df8cc431c0fb5c12739,2022-09-08_10h58.38.053,CGTgamblingSpanTasks,2022.2.1,Win32,59.9880024,,,,,,,,,,,,,,,,,,,,,,,,,,,,,,,,,,,,,,,,,,,,,,,,,,,,,,,,,,,,,,,,,,,,,,,,,,,,,,,,,,"[7,6,3,5,9,2,4,1,8,8,6,7]",10,0,10,0,1,,,,,,,,,,,,,,,,,,,,,,,,,,,,,,,,,,,,,,,,,,,,,,,,
,,5f691df8cc431c0fb5c12739,2022-09-08_10h58.38.053,CGTgamblingSpanTasks,2022.2.1,Win32,59.9880024,,,,,,,,,,,,,,,,,,,,,,,,,,,,,,,,,,,,,,,,,,,,,,,,,,,,,,,,,,,,,,,,,,,,,,,,,,,,,,,,,,"[7,6,3,5,9,2,4,1,8,8,6,7]",11,0,11,0,1,,,,,,,,,,,,,,,,,,,,,,,,,,,,,,,,,,,,,,,,,,,,,,,,
,,5f691df8cc431c0fb5c12739,2022-09-08_10h58.38.053,CGTgamblingSpanTasks,2022.2.1,Win32,59.9880024,,,,,,,,,,,,,,,,,,,,,,,,,,,,,,,,,,,,,,,,,,,,,,,,,,,,,,,,,,,,,,,1,,,,,,,,,,,,,,,,,,,,,,,,,763592418867,0.026851852,-0.397222222,1,0,0,cont_button,0,10,10,10,1,11,,,,,,,,,,,,,,,,,,,,,,,,,,,,,,,,,,,
,,5f691df8cc431c0fb5c12739,2022-09-08_10h58.38.053,CGTgamblingSpanTasks,2022.2.1,Win32,59.9880024,,,,,,,,,,,,,,,,,,,,,,,,,,,,,,,,,,,,,,,,,,,,,,,,,,,,,,,,,,,,,,,,,,,,,,,,,,,,,,,,,,"[6,8,5,9,2,4,3,1,7,7,3,5,1]",0,0,0,0,1,,,,,,,,,,,,,,,,,,,,,,,,,,,,,,,,,,,,,,,,,,,,,,,,
,,5f691df8cc431c0fb5c12739,2022-09-08_10h58.38.053,CGTgamblingSpanTasks,2022.2.1,Win32,59.9880024,,,,,,,,,,,,,,,,,,,,,,,,,,,,,,,,,,,,,,,,,,,,,,,,,,,,,,,,,,,,,,,,,,,,,,,,,,,,,,,,,,"[6,8,5,9,2,4,3,1,7,7,3,5,1]",1,0,1,0,1,,,,,,,,,,,,,,,,,,,,,,,,,,,,,,,,,,,,,,,,,,,,,,,,
,,5f691df8cc431c0fb5c12739,2022-09-08_10h58.38.053,CGTgamblingSpanTasks,2022.2.1,Win32,59.9880024,,,,,,,,,,,,,,,,,,,,,,,,,,,,,,,,,,,,,,,,,,,,,,,,,,,,,,,,,,,,,,,,,,,,,,,,,,,,,,,,,,"[6,8,5,9,2,4,3,1,7,7,3,5,1]",2,0,2,0,1,,,,,,,,,,,,,,,,,,,,,,,,,,,,,,,,,,,,,,,,,,,,,,,,
,,5f691df8cc431c0fb5c12739,2022-09-08_10h58.38.053,CGTgamblingSpanTasks,2022.2.1,Win32,59.9880024,,,,,,,,,,,,,,,,,,,,,,,,,,,,,,,,,,,,,,,,,,,,,,,,,,,,,,,,,,,,,,,,,,,,,,,,,,,,,,,,,,"[6,8,5,9,2,4,3,1,7,7,3,5,1]",3,0,3,0,1,,,,,,,,,,,,,,,,,,,,,,,,,,,,,,,,,,,,,,,,,,,,,,,,
,,5f691df8cc431c0fb5c12739,2022-09-08_10h58.38.053,CGTgamblingSpanTasks,2022.2.1,Win32,59.9880024,,,,,,,,,,,,,,,,,,,,,,,,,,,,,,,,,,,,,,,,,,,,,,,,,,,,,,,,,,,,,,,,,,,,,,,,,,,,,,,,,,"[6,8,5,9,2,4,3,1,7,7,3,5,1]",4,0,4,0,1,,,,,,,,,,,,,,,,,,,,,,,,,,,,,,,,,,,,,,,,,,,,,,,,
,,5f691df8cc431c0fb5c12739,2022-09-08_10h58.38.053,CGTgamblingSpanTasks,2022.2.1,Win32,59.9880024,,,,,,,,,,,,,,,,,,,,,,,,,,,,,,,,,,,,,,,,,,,,,,,,,,,,,,,,,,,,,,,,,,,,,,,,,,,,,,,,,,"[6,8,5,9,2,4,3,1,7,7,3,5,1]",5,0,5,0,1,,,,,,,,,,,,,,,,,,,,,,,,,,,,,,,,,,,,,,,,,,,,,,,,
,,5f691df8cc431c0fb5c12739,2022-09-08_10h58.38.053,CGTgamblingSpanTasks,2022.2.1,Win32,59.9880024,,,,,,,,,,,,,,,,,,,,,,,,,,,,,,,,,,,,,,,,,,,,,,,,,,,,,,,,,,,,,,,,,,,,,,,,,,,,,,,,,,"[6,8,5,9,2,4,3,1,7,7,3,5,1]",6,0,6,0,1,,,,,,,,,,,,,,,,,,,,,,,,,,,,,,,,,,,,,,,,,,,,,,,,
,,5f691df8cc431c0fb5c12739,2022-09-08_10h58.38.053,CGTgamblingSpanTasks,2022.2.1,Win32,59.9880024,,,,,,,,,,,,,,,,,,,,,,,,,,,,,,,,,,,,,,,,,,,,,,,,,,,,,,,,,,,,,,,,,,,,,,,,,,,,,,,,,,"[6,8,5,9,2,4,3,1,7,7,3,5,1]",7,0,7,0,1,,,,,,,,,,,,,,,,,,,,,,,,,,,,,,,,,,,,,,,,,,,,,,,,
,,5f691df8cc431c0fb5c12739,2022-09-08_10h58.38.053,CGTgamblingSpanTasks,2022.2.1,Win32,59.9880024,,,,,,,,,,,,,,,,,,,,,,,,,,,,,,,,,,,,,,,,,,,,,,,,,,,,,,,,,,,,,,,,,,,,,,,,,,,,,,,,,,"[6,8,5,9,2,4,3,1,7,7,3,5,1]",8,0,8,0,1,,,,,,,,,,,,,,,,,,,,,,,,,,,,,,,,,,,,,,,,,,,,,,,,
,,5f691df8cc431c0fb5c12739,2022-09-08_10h58.38.053,CGTgamblingSpanTasks,2022.2.1,Win32,59.9880024,,,,,,,,,,,,,,,,,,,,,,,,,,,,,,,,,,,,,,,,,,,,,,,,,,,,,,,,,,,,,,,,,,,,,,,,,,,,,,,,,,"[6,8,5,9,2,4,3,1,7,7,3,5,1]",9,0,9,0,1,,,,,,,,,,,,,,,,,,,,,,,,,,,,,,,,,,,,,,,,,,,,,,,,
,,5f691df8cc431c0fb5c12739,2022-09-08_10h58.38.053,CGTgamblingSpanTasks,2022.2.1,Win32,59.9880024,,,,,,,,,,,,,,,,,,,,,,,,,,,,,,,,,,,,,,,,,,,,,,,,,,,,,,,,,,,,,,,,,,,,,,,,,,,,,,,,,,"[6,8,5,9,2,4,3,1,7,7,3,5,1]",10,0,10,0,1,,,,,,,,,,,,,,,,,,,,,,,,,,,,,,,,,,,,,,,,,,,,,,,,
,,5f691df8cc431c0fb5c12739,2022-09-08_10h58.38.053,CGTgamblingSpanTasks,2022.2.1,Win32,59.9880024,,,,,,,,,,,,,,,,,,,,,,,,,,,,,,,,,,,,,,,,,,,,,,,,,,,,,,,,,,,,,,,,,,,,,,,,,,,,,,,,,,"[6,8,5,9,2,4,3,1,7,7,3,5,1]",11,0,11,0,1,,,,,,,,,,,,,,,,,,,,,,,,,,,,,,,,,,,,,,,,,,,,,,,,
,,5f691df8cc431c0fb5c12739,2022-09-08_10h58.38.053,CGTgamblingSpanTasks,2022.2.1,Win32,59.9880024,,,,,,,,,,,,,,,,,,,,,,,,,,,,,,,,,,,,,,,,,,,,,,,,,,,,,,,,,,,,,,,,,,,,,,,,,,,,,,,,,,"[6,8,5,9,2,4,3,1,7,7,3,5,1]",12,0,12,0,1,,,,,,,,,,,,,,,,,,,,,,,,,,,,,,,,,,,,,,,,,,,,,,,,
,,5f691df8cc431c0fb5c12739,2022-09-08_10h58.38.053,CGTgamblingSpanTasks,2022.2.1,Win32,59.9880024,,,,,,,,,,,,,,,,,,,,,,,,,,,,,,,,,,,,,,,,,,,,,,,,,,,,,,,,,,,,,,,1,,,,,,,,,,,,,,,,,,,,,,,,,6859243177351,0.016666667,-0.399074074,1,0,0,cont_button,0,11,11,11,1,12,,,,,,,,,,,,,,,,,,,,,,,,,,,,,,,,,,,
,,5f691df8cc431c0fb5c12739,2022-09-08_10h58.38.053,CGTgamblingSpanTasks,2022.2.1,Win32,59.9880024,,,,,,,,,,,,,,,,,,,,,,,,,,,,,,,,,,,,,,,,,,,,,,,,,,,,,,,,,,,,,,,,,,,,,,,,,,,,,,,,,,"[8,6,9,4,5,1,2,7,3,3,8,7,4,1]",0,0,0,0,1,,,,,,,,,,,,,,,,,,,,,,,,,,,,,,,,,,,,,,,,,,,,,,,,
,,5f691df8cc431c0fb5c12739,2022-09-08_10h58.38.053,CGTgamblingSpanTasks,2022.2.1,Win32,59.9880024,,,,,,,,,,,,,,,,,,,,,,,,,,,,,,,,,,,,,,,,,,,,,,,,,,,,,,,,,,,,,,,,,,,,,,,,,,,,,,,,,,"[8,6,9,4,5,1,2,7,3,3,8,7,4,1]",1,0,1,0,1,,,,,,,,,,,,,,,,,,,,,,,,,,,,,,,,,,,,,,,,,,,,,,,,
,,5f691df8cc431c0fb5c12739,2022-09-08_10h58.38.053,CGTgamblingSpanTasks,2022.2.1,Win32,59.9880024,,,,,,,,,,,,,,,,,,,,,,,,,,,,,,,,,,,,,,,,,,,,,,,,,,,,,,,,,,,,,,,,,,,,,,,,,,,,,,,,,,"[8,6,9,4,5,1,2,7,3,3,8,7,4,1]",2,0,2,0,1,,,,,,,,,,,,,,,,,,,,,,,,,,,,,,,,,,,,,,,,,,,,,,,,
,,5f691df8cc431c0fb5c12739,2022-09-08_10h58.38.053,CGTgamblingSpanTasks,2022.2.1,Win32,59.9880024,,,,,,,,,,,,,,,,,,,,,,,,,,,,,,,,,,,,,,,,,,,,,,,,,,,,,,,,,,,,,,,,,,,,,,,,,,,,,,,,,,"[8,6,9,4,5,1,2,7,3,3,8,7,4,1]",3,0,3,0,1,,,,,,,,,,,,,,,,,,,,,,,,,,,,,,,,,,,,,,,,,,,,,,,,
,,5f691df8cc431c0fb5c12739,2022-09-08_10h58.38.053,CGTgamblingSpanTasks,2022.2.1,Win32,59.9880024,,,,,,,,,,,,,,,,,,,,,,,,,,,,,,,,,,,,,,,,,,,,,,,,,,,,,,,,,,,,,,,,,,,,,,,,,,,,,,,,,,"[8,6,9,4,5,1,2,7,3,3,8,7,4,1]",4,0,4,0,1,,,,,,,,,,,,,,,,,,,,,,,,,,,,,,,,,,,,,,,,,,,,,,,,
,,5f691df8cc431c0fb5c12739,2022-09-08_10h58.38.053,CGTgamblingSpanTasks,2022.2.1,Win32,59.9880024,,,,,,,,,,,,,,,,,,,,,,,,,,,,,,,,,,,,,,,,,,,,,,,,,,,,,,,,,,,,,,,,,,,,,,,,,,,,,,,,,,"[8,6,9,4,5,1,2,7,3,3,8,7,4,1]",5,0,5,0,1,,,,,,,,,,,,,,,,,,,,,,,,,,,,,,,,,,,,,,,,,,,,,,,,
,,5f691df8cc431c0fb5c12739,2022-09-08_10h58.38.053,CGTgamblingSpanTasks,2022.2.1,Win32,59.9880024,,,,,,,,,,,,,,,,,,,,,,,,,,,,,,,,,,,,,,,,,,,,,,,,,,,,,,,,,,,,,,,,,,,,,,,,,,,,,,,,,,"[8,6,9,4,5,1,2,7,3,3,8,7,4,1]",6,0,6,0,1,,,,,,,,,,,,,,,,,,,,,,,,,,,,,,,,,,,,,,,,,,,,,,,,
,,5f691df8cc431c0fb5c12739,2022-09-08_10h58.38.053,CGTgamblingSpanTasks,2022.2.1,Win32,59.9880024,,,,,,,,,,,,,,,,,,,,,,,,,,,,,,,,,,,,,,,,,,,,,,,,,,,,,,,,,,,,,,,,,,,,,,,,,,,,,,,,,,"[8,6,9,4,5,1,2,7,3,3,8,7,4,1]",7,0,7,0,1,,,,,,,,,,,,,,,,,,,,,,,,,,,,,,,,,,,,,,,,,,,,,,,,
,,5f691df8cc431c0fb5c12739,2022-09-08_10h58.38.053,CGTgamblingSpanTasks,2022.2.1,Win32,59.9880024,,,,,,,,,,,,,,,,,,,,,,,,,,,,,,,,,,,,,,,,,,,,,,,,,,,,,,,,,,,,,,,,,,,,,,,,,,,,,,,,,,"[8,6,9,4,5,1,2,7,3,3,8,7,4,1]",8,0,8,0,1,,,,,,,,,,,,,,,,,,,,,,,,,,,,,,,,,,,,,,,,,,,,,,,,
,,5f691df8cc431c0fb5c12739,2022-09-08_10h58.38.053,CGTgamblingSpanTasks,2022.2.1,Win32,59.9880024,,,,,,,,,,,,,,,,,,,,,,,,,,,,,,,,,,,,,,,,,,,,,,,,,,,,,,,,,,,,,,,,,,,,,,,,,,,,,,,,,,"[8,6,9,4,5,1,2,7,3,3,8,7,4,1]",9,0,9,0,1,,,,,,,,,,,,,,,,,,,,,,,,,,,,,,,,,,,,,,,,,,,,,,,,
,,5f691df8cc431c0fb5c12739,2022-09-08_10h58.38.053,CGTgamblingSpanTasks,2022.2.1,Win32,59.9880024,,,,,,,,,,,,,,,,,,,,,,,,,,,,,,,,,,,,,,,,,,,,,,,,,,,,,,,,,,,,,,,,,,,,,,,,,,,,,,,,,,"[8,6,9,4,5,1,2,7,3,3,8,7,4,1]",10,0,10,0,1,,,,,,,,,,,,,,,,,,,,,,,,,,,,,,,,,,,,,,,,,,,,,,,,
,,5f691df8cc431c0fb5c12739,2022-09-08_10h58.38.053,CGTgamblingSpanTasks,2022.2.1,Win32,59.9880024,,,,,,,,,,,,,,,,,,,,,,,,,,,,,,,,,,,,,,,,,,,,,,,,,,,,,,,,,,,,,,,,,,,,,,,,,,,,,,,,,,"[8,6,9,4,5,1,2,7,3,3,8,7,4,1]",11,0,11,0,1,,,,,,,,,,,,,,,,,,,,,,,,,,,,,,,,,,,,,,,,,,,,,,,,
,,5f691df8cc431c0fb5c12739,2022-09-08_10h58.38.053,CGTgamblingSpanTasks,2022.2.1,Win32,59.9880024,,,,,,,,,,,,,,,,,,,,,,,,,,,,,,,,,,,,,,,,,,,,,,,,,,,,,,,,,,,,,,,,,,,,,,,,,,,,,,,,,,"[8,6,9,4,5,1,2,7,3,3,8,7,4,1]",12,0,12,0,1,,,,,,,,,,,,,,,,,,,,,,,,,,,,,,,,,,,,,,,,,,,,,,,,
,,5f691df8cc431c0fb5c12739,2022-09-08_10h58.38.053,CGTgamblingSpanTasks,2022.2.1,Win32,59.9880024,,,,,,,,,,,,,,,,,,,,,,,,,,,,,,,,,,,,,,,,,,,,,,,,,,,,,,,,,,,,,,,,,,,,,,,,,,,,,,,,,,"[8,6,9,4,5,1,2,7,3,3,8,7,4,1]",13,0,13,0,1,,,,,,,,,,,,,,,,,,,,,,,,,,,,,,,,,,,,,,,,,,,,,,,,
,,5f691df8cc431c0fb5c12739,2022-09-08_10h58.38.053,CGTgamblingSpanTasks,2022.2.1,Win32,59.9880024,,,,,,,,,,,,,,,,,,,,,,,,,,,,,,,,,,,,,,,,,,,,,,,,,,,,,,,,,,,,,,,0,,,,,,,,,,,,,,,,,,,,,,,,,8694512738741,-0.067592593,-0.410185185,1,0,0,cont_button,0,12,12,12,1,13,,,,,,,,,,,,,,,,,,,,,,,,,,,,,,,,,,,
,,5f691df8cc431c0fb5c12739,2022-09-08_10h58.38.053,CGTgamblingSpanTasks,2022.2.1,Win32,59.9880024,,,,,,,,,,,,,,,,,,,,,,,,,,,,,,,,,,,,,,,,,,,,,,,,,,,,,,,,,,,,,,,,,,,,,,,,,,,,,,,,,,"[2,1,7,4,8,9,5,3,6,6,2,1,9,5]",0,0,0,0,1,,,,,,,,,,,,,,,,,,,,,,,,,,,,,,,,,,,,,,,,,,,,,,,,
,,5f691df8cc431c0fb5c12739,2022-09-08_10h58.38.053,CGTgamblingSpanTasks,2022.2.1,Win32,59.9880024,,,,,,,,,,,,,,,,,,,,,,,,,,,,,,,,,,,,,,,,,,,,,,,,,,,,,,,,,,,,,,,,,,,,,,,,,,,,,,,,,,"[2,1,7,4,8,9,5,3,6,6,2,1,9,5]",1,0,1,0,1,,,,,,,,,,,,,,,,,,,,,,,,,,,,,,,,,,,,,,,,,,,,,,,,
,,5f691df8cc431c0fb5c12739,2022-09-08_10h58.38.053,CGTgamblingSpanTasks,2022.2.1,Win32,59.9880024,,,,,,,,,,,,,,,,,,,,,,,,,,,,,,,,,,,,,,,,,,,,,,,,,,,,,,,,,,,,,,,,,,,,,,,,,,,,,,,,,,"[2,1,7,4,8,9,5,3,6,6,2,1,9,5]",2,0,2,0,1,,,,,,,,,,,,,,,,,,,,,,,,,,,,,,,,,,,,,,,,,,,,,,,,
,,5f691df8cc431c0fb5c12739,2022-09-08_10h58.38.053,CGTgamblingSpanTasks,2022.2.1,Win32,59.9880024,,,,,,,,,,,,,,,,,,,,,,,,,,,,,,,,,,,,,,,,,,,,,,,,,,,,,,,,,,,,,,,,,,,,,,,,,,,,,,,,,,"[2,1,7,4,8,9,5,3,6,6,2,1,9,5]",3,0,3,0,1,,,,,,,,,,,,,,,,,,,,,,,,,,,,,,,,,,,,,,,,,,,,,,,,
,,5f691df8cc431c0fb5c12739,2022-09-08_10h58.38.053,CGTgamblingSpanTasks,2022.2.1,Win32,59.9880024,,,,,,,,,,,,,,,,,,,,,,,,,,,,,,,,,,,,,,,,,,,,,,,,,,,,,,,,,,,,,,,,,,,,,,,,,,,,,,,,,,"[2,1,7,4,8,9,5,3,6,6,2,1,9,5]",4,0,4,0,1,,,,,,,,,,,,,,,,,,,,,,,,,,,,,,,,,,,,,,,,,,,,,,,,
,,5f691df8cc431c0fb5c12739,2022-09-08_10h58.38.053,CGTgamblingSpanTasks,2022.2.1,Win32,59.9880024,,,,,,,,,,,,,,,,,,,,,,,,,,,,,,,,,,,,,,,,,,,,,,,,,,,,,,,,,,,,,,,,,,,,,,,,,,,,,,,,,,"[2,1,7,4,8,9,5,3,6,6,2,1,9,5]",5,0,5,0,1,,,,,,,,,,,,,,,,,,,,,,,,,,,,,,,,,,,,,,,,,,,,,,,,
,,5f691df8cc431c0fb5c12739,2022-09-08_10h58.38.053,CGTgamblingSpanTasks,2022.2.1,Win32,59.9880024,,,,,,,,,,,,,,,,,,,,,,,,,,,,,,,,,,,,,,,,,,,,,,,,,,,,,,,,,,,,,,,,,,,,,,,,,,,,,,,,,,"[2,1,7,4,8,9,5,3,6,6,2,1,9,5]",6,0,6,0,1,,,,,,,,,,,,,,,,,,,,,,,,,,,,,,,,,,,,,,,,,,,,,,,,
,,5f691df8cc431c0fb5c12739,2022-09-08_10h58.38.053,CGTgamblingSpanTasks,2022.2.1,Win32,59.9880024,,,,,,,,,,,,,,,,,,,,,,,,,,,,,,,,,,,,,,,,,,,,,,,,,,,,,,,,,,,,,,,,,,,,,,,,,,,,,,,,,,"[2,1,7,4,8,9,5,3,6,6,2,1,9,5]",7,0,7,0,1,,,,,,,,,,,,,,,,,,,,,,,,,,,,,,,,,,,,,,,,,,,,,,,,
,,5f691df8cc431c0fb5c12739,2022-09-08_10h58.38.053,CGTgamblingSpanTasks,2022.2.1,Win32,59.9880024,,,,,,,,,,,,,,,,,,,,,,,,,,,,,,,,,,,,,,,,,,,,,,,,,,,,,,,,,,,,,,,,,,,,,,,,,,,,,,,,,,"[2,1,7,4,8,9,5,3,6,6,2,1,9,5]",8,0,8,0,1,,,,,,,,,,,,,,,,,,,,,,,,,,,,,,,,,,,,,,,,,,,,,,,,
,,5f691df8cc431c0fb5c12739,2022-09-08_10h58.38.053,CGTgamblingSpanTasks,2022.2.1,Win32,59.9880024,,,,,,,,,,,,,,,,,,,,,,,,,,,,,,,,,,,,,,,,,,,,,,,,,,,,,,,,,,,,,,,,,,,,,,,,,,,,,,,,,,"[2,1,7,4,8,9,5,3,6,6,2,1,9,5]",9,0,9,0,1,,,,,,,,,,,,,,,,,,,,,,,,,,,,,,,,,,,,,,,,,,,,,,,,
,,5f691df8cc431c0fb5c12739,2022-09-08_10h58.38.053,CGTgamblingSpanTasks,2022.2.1,Win32,59.9880024,,,,,,,,,,,,,,,,,,,,,,,,,,,,,,,,,,,,,,,,,,,,,,,,,,,,,,,,,,,,,,,,,,,,,,,,,,,,,,,,,,"[2,1,7,4,8,9,5,3,6,6,2,1,9,5]",10,0,10,0,1,,,,,,,,,,,,,,,,,,,,,,,,,,,,,,,,,,,,,,,,,,,,,,,,
,,5f691df8cc431c0fb5c12739,2022-09-08_10h58.38.053,CGTgamblingSpanTasks,2022.2.1,Win32,59.9880024,,,,,,,,,,,,,,,,,,,,,,,,,,,,,,,,,,,,,,,,,,,,,,,,,,,,,,,,,,,,,,,,,,,,,,,,,,,,,,,,,,"[2,1,7,4,8,9,5,3,6,6,2,1,9,5]",11,0,11,0,1,,,,,,,,,,,,,,,,,,,,,,,,,,,,,,,,,,,,,,,,,,,,,,,,
,,5f691df8cc431c0fb5c12739,2022-09-08_10h58.38.053,CGTgamblingSpanTasks,2022.2.1,Win32,59.9880024,,,,,,,,,,,,,,,,,,,,,,,,,,,,,,,,,,,,,,,,,,,,,,,,,,,,,,,,,,,,,,,,,,,,,,,,,,,,,,,,,,"[2,1,7,4,8,9,5,3,6,6,2,1,9,5]",12,0,12,0,1,,,,,,,,,,,,,,,,,,,,,,,,,,,,,,,,,,,,,,,,,,,,,,,,
,,5f691df8cc431c0fb5c12739,2022-09-08_10h58.38.053,CGTgamblingSpanTasks,2022.2.1,Win32,59.9880024,,,,,,,,,,,,,,,,,,,,,,,,,,,,,,,,,,,,,,,,,,,,,,,,,,,,,,,,,,,,,,,,,,,,,,,,,,,,,,,,,,"[2,1,7,4,8,9,5,3,6,6,2,1,9,5]",13,0,13,0,1,,,,,,,,,,,,,,,,,,,,,,,,,,,,,,,,,,,,,,,,,,,,,,,,
,,5f691df8cc431c0fb5c12739,2022-09-08_10h58.38.053,CGTgamblingSpanTasks,2022.2.1,Win32,59.9880024,,,,,,,,,,,,,,,,,,,,,,,,,,,,,,,,,,,,,,,,,,,,,,,,,,,,,,,,,,,,,,,0,,,,,,,,,,,,,,,,,,,,,,,,,2174895362195,-0.05462963,-0.403703704,1,0,0,cont_button,0,13,13,13,1,14,,,,,,,,,,,,,,,,,,,,,,,,,,,,,,,,,,,
,,5f691df8cc431c0fb5c12739,2022-09-08_10h58.38.053,CGTgamblingSpanTasks,2022.2.1,Win32,59.9880024,,,,,,,,,,,,,,,,,,,,,,,,,,,,,,,,,,,,,,,,,,,,,,,,,,,,,,,,,,,,,,,,,,,,,,,,,,,,,,,,,,,,,,,,,,,,,,,,,,,,,return,3.3103,,,,,,,,,,,,,,,,,,,,,,,,,,,,,,,,,
,,5f691df8cc431c0fb5c12739,2022-09-08_10h58.38.053,CGTgamblingSpanTasks,2022.2.1,Win32,59.9880024,,,,,,,,,,,,,,,,,,,,,,,,,,,,,,,,,,,,,,,,,,,,,,,,,,,,,,,,,,,,,,,,,,,,,,,,,,,,,,,,,,,,,,,,,,,,,,,,,,,,,,,return,15.9565,,,,,,,,,,,,,,,,,,,,,,,,,,,,,,,
,,5f691df8cc431c0fb5c12739,2022-09-08_10h58.38.053,CGTgamblingSpanTasks,2022.2.1,Win32,59.9880024,,,,,,,,,,,,,,,,,,,,,,,,,,,,,,,,,,,,,,,,,,,,,,,,,,,,,,,,,,,,,,,1,,,,,,,,,,,,3,342,24,2,42,,,,,,,,,,,,,,,,,,,,,,,,,,42,-0.062037037,-0.425,1,0,0,cont_buttonPractice_2,0,0,0,0,1,,,,,,,,,,,,,,,,,,,
,,5f691df8cc431c0fb5c12739,2022-09-08_10h58.38.053,CGTgamblingSpanTasks,2022.2.1,Win32,59.9880024,,,,,,,,,,,,,,,,,,,,,,,,,,,,,,,,,,,,,,,,,,,,,,,,,,,,,,,,,,,,,,,1,,,,,,,,,,,,3,937,73,2,37,,,,,,,,,,,,,,,,,,,,,,,,,,37,-0.016666667,-0.423148148,1,0,0,cont_buttonPractice_2,0,1,1,1,1,,,,,,,,,,,,,,,,,,,
,,5f691df8cc431c0fb5c12739,2022-09-08_10h58.38.053,CGTgamblingSpanTasks,2022.2.1,Win32,59.9880024,,,,,,,,,,,,,,,,,,,,,,,,,,,,,,,,,,,,,,,,,,,,,,,,,,,,,,,,,,,,,,,,,,,,,,,,,,,,,,,,,,,,,,,,,,,,,,,,,,,,,,,,,,,,,,,,,,,,,return,1.6337,,,,,,,,,,,,,,,,,
,,5f691df8cc431c0fb5c12739,2022-09-08_10h58.38.053,CGTgamblingSpanTasks,2022.2.1,Win32,59.9880024,,,,,,,,,,,,,,,,,,,,,,,,,,,,,,,,,,,,,,,,,,,,,,,,,,,,,,,,,,,,,,,,,,,,,,,,,,,,,,,,,,"[6,4]",,,,,,,,,,,,,,,,,,,,,,,,,,,,,,,,,,,,,0,0,0,0,1,,,,,,,,,,,,
,,5f691df8cc431c0fb5c12739,2022-09-08_10h58.38.053,CGTgamblingSpanTasks,2022.2.1,Win32,59.9880024,,,,,,,,,,,,,,,,,,,,,,,,,,,,,,,,,,,,,,,,,,,,,,,,,,,,,,,,,,,,,,,,,,,,,,,,,,,,,,,,,,"[6,4]",,,,,,,,,,,,,,,,,,,,,,,,,,,,,,,,,,,,,1,0,1,0,1,,,,,,,,,,,,
,,5f691df8cc431c0fb5c12739,2022-09-08_10h58.38.053,CGTgamblingSpanTasks,2022.2.1,Win32,59.9880024,,,,,,,,,,,,,,,,,,,,,,,,,,,,,,,,,,,,,,,,,,,,,,,,,,,,,,,,,,,,,,,1,,,,,,,,,,,,,,,,,,,,,,,,,,,,,,,,,,,,,1,,,,,,,,,,,,,,,,,,,,,,,,46,-0.017592593,-0.423148148,1,0,0,cont_buttonBS,0,0,0,0,1
,,5f691df8cc431c0fb5c12739,2022-09-08_10h58.38.053,CGTgamblingSpanTasks,2022.2.1,Win32,59.9880024,,,,,,,,,,,,,,,,,,,,,,,,,,,,,,,,,,,,,,,,,,,,,,,,,,,,,,,,,,,,,,,,,,,,,,,,,,,,,,,,,,"[9,6,8]",,,,,,,,,,,,,,,,,,,,,,,,,,,,,,,,,,,,,0,0,0,0,1,,,,,,,,,,,,
,,5f691df8cc431c0fb5c12739,2022-09-08_10h58.38.053,CGTgamblingSpanTasks,2022.2.1,Win32,59.9880024,,,,,,,,,,,,,,,,,,,,,,,,,,,,,,,,,,,,,,,,,,,,,,,,,,,,,,,,,,,,,,,,,,,,,,,,,,,,,,,,,,"[9,6,8]",,,,,,,,,,,,,,,,,,,,,,,,,,,,,,,,,,,,,1,0,1,0,1,,,,,,,,,,,,
,,5f691df8cc431c0fb5c12739,2022-09-08_10h58.38.053,CGTgamblingSpanTasks,2022.2.1,Win32,59.9880024,,,,,,,,,,,,,,,,,,,,,,,,,,,,,,,,,,,,,,,,,,,,,,,,,,,,,,,,,,,,,,,,,,,,,,,,,,,,,,,,,,"[9,6,8]",,,,,,,,,,,,,,,,,,,,,,,,,,,,,,,,,,,,,2,0,2,0,1,,,,,,,,,,,,
,,5f691df8cc431c0fb5c12739,2022-09-08_10h58.38.053,CGTgamblingSpanTasks,2022.2.1,Win32,59.9880024,,,,,,,,,,,,,,,,,,,,,,,,,,,,,,,,,,,,,,,,,,,,,,,,,,,,,,,,,,,,,,,1,,,,,,,,,,,,,,,,,,,,,,,,,,,,,,,,,,,,,2,,,,,,,,,,,,,,,,,,,,,,,,869,-0.000925926,-0.377777778,1,0,0,cont_buttonBS,0,1,1,1,1
,,5f691df8cc431c0fb5c12739,2022-09-08_10h58.38.053,CGTgamblingSpanTasks,2022.2.1,Win32,59.9880024,,,,,,,,,,,,,,,,,,,,,,,,,,,,,,,,,,,,,,,,,,,,,,,,,,,,,,,,,,,,,,,,,,,,,,,,,,,,,,,,,,"[4,8,6,7]",,,,,,,,,,,,,,,,,,,,,,,,,,,,,,,,,,,,,0,0,0,0,1,,,,,,,,,,,,
,,5f691df8cc431c0fb5c12739,2022-09-08_10h58.38.053,CGTgamblingSpanTasks,2022.2.1,Win32,59.9880024,,,,,,,,,,,,,,,,,,,,,,,,,,,,,,,,,,,,,,,,,,,,,,,,,,,,,,,,,,,,,,,,,,,,,,,,,,,,,,,,,,"[4,8,6,7]",,,,,,,,,,,,,,,,,,,,,,,,,,,,,,,,,,,,,1,0,1,0,1,,,,,,,,,,,,
,,5f691df8cc431c0fb5c12739,2022-09-08_10h58.38.053,CGTgamblingSpanTasks,2022.2.1,Win32,59.9880024,,,,,,,,,,,,,,,,,,,,,,,,,,,,,,,,,,,,,,,,,,,,,,,,,,,,,,,,,,,,,,,,,,,,,,,,,,,,,,,,,,"[4,8,6,7]",,,,,,,,,,,,,,,,,,,,,,,,,,,,,,,,,,,,,2,0,2,0,1,,,,,,,,,,,,
,,5f691df8cc431c0fb5c12739,2022-09-08_10h58.38.053,CGTgamblingSpanTasks,2022.2.1,Win32,59.9880024,,,,,,,,,,,,,,,,,,,,,,,,,,,,,,,,,,,,,,,,,,,,,,,,,,,,,,,,,,,,,,,,,,,,,,,,,,,,,,,,,,"[4,8,6,7]",,,,,,,,,,,,,,,,,,,,,,,,,,,,,,,,,,,,,3,0,3,0,1,,,,,,,,,,,,
,,5f691df8cc431c0fb5c12739,2022-09-08_10h58.38.053,CGTgamblingSpanTasks,2022.2.1,Win32,59.9880024,,,,,,,,,,,,,,,,,,,,,,,,,,,,,,,,,,,,,,,,,,,,,,,,,,,,,,,,,,,,,,,1,,,,,,,,,,,,,,,,,,,,,,,,,,,,,,,,,,,,,3,,,,,,,,,,,,,,,,,,,,,,,,7684,-0.109259259,-0.42037037,1,0,0,cont_buttonBS,0,2,2,2,1
,,5f691df8cc431c0fb5c12739,2022-09-08_10h58.38.053,CGTgamblingSpanTasks,2022.2.1,Win32,59.9880024,,,,,,,,,,,,,,,,,,,,,,,,,,,,,,,,,,,,,,,,,,,,,,,,,,,,,,,,,,,,,,,,,,,,,,,,,,,,,,,,,,"[9,2,6,7,4]",,,,,,,,,,,,,,,,,,,,,,,,,,,,,,,,,,,,,0,0,0,0,1,,,,,,,,,,,,
,,5f691df8cc431c0fb5c12739,2022-09-08_10h58.38.053,CGTgamblingSpanTasks,2022.2.1,Win32,59.9880024,,,,,,,,,,,,,,,,,,,,,,,,,,,,,,,,,,,,,,,,,,,,,,,,,,,,,,,,,,,,,,,,,,,,,,,,,,,,,,,,,,"[9,2,6,7,4]",,,,,,,,,,,,,,,,,,,,,,,,,,,,,,,,,,,,,1,0,1,0,1,,,,,,,,,,,,
,,5f691df8cc431c0fb5c12739,2022-09-08_10h58.38.053,CGTgamblingSpanTasks,2022.2.1,Win32,59.9880024,,,,,,,,,,,,,,,,,,,,,,,,,,,,,,,,,,,,,,,,,,,,,,,,,,,,,,,,,,,,,,,,,,,,,,,,,,,,,,,,,,"[9,2,6,7,4]",,,,,,,,,,,,,,,,,,,,,,,,,,,,,,,,,,,,,2,0,2,0,1,,,,,,,,,,,,
,,5f691df8cc431c0fb5c12739,2022-09-08_10h58.38.053,CGTgamblingSpanTasks,2022.2.1,Win32,59.9880024,,,,,,,,,,,,,,,,,,,,,,,,,,,,,,,,,,,,,,,,,,,,,,,,,,,,,,,,,,,,,,,,,,,,,,,,,,,,,,,,,,"[9,2,6,7,4]",,,,,,,,,,,,,,,,,,,,,,,,,,,,,,,,,,,,,3,0,3,0,1,,,,,,,,,,,,
,,5f691df8cc431c0fb5c12739,2022-09-08_10h58.38.053,CGTgamblingSpanTasks,2022.2.1,Win32,59.9880024,,,,,,,,,,,,,,,,,,,,,,,,,,,,,,,,,,,,,,,,,,,,,,,,,,,,,,,,,,,,,,,,,,,,,,,,,,,,,,,,,,"[9,2,6,7,4]",,,,,,,,,,,,,,,,,,,,,,,,,,,,,,,,,,,,,4,0,4,0,1,,,,,,,,,,,,
