initITIstatic,initITIdynamic,participant,date,expName,psychopyVersion,OS,frameRate,inst1.keys,inst1.rt,startPracResp.keys,startPracResp.rt,choice1.keys,choice1.rt,outcome,extraITI,trials.thisRepN,trials.thisTrialN,trials.thisN,trials.thisIndex,trials.ran,riskyGain,riskyLoss,alternative,isi,iti,loc,postPractResp.keys,postPractResp.rt,realloc,realChoice.keys,realChoice.rt,outcomes,choices,actualITI,init ITI,staticRDM.thisRepN,staticRDM.thisTrialN,staticRDM.thisN,staticRDM.thisIndex,staticRDM.ran,riskyoption1,riskyoption2,safeoption,ischecktrial,dynamicChoiceSetName,dynamicChoiceSetPath,bestRho,bestMu,trials_2.thisRepN,trials_2.thisTrialN,trials_2.thisN,trials_2.thisIndex,trials_2.ran,key_resp.keys,key_resp.rt,dynamicRDM.thisRepN,dynamicRDM.thisTrialN,dynamicRDM.thisN,dynamicRDM.thisIndex,dynamicRDM.ran,choiceP,easy0difficult1,stopBreak.keys,stopBreak.rt,movealong.keys,movealong.rt,startPractice.keys,startPractice.rt,textboxPractice.text,correct,mousePractice.x,mousePractice.y,mousePractice.leftButton,mousePractice.midButton,mousePractice.rightButton,mousePractice.clicked_name,trialFSPractice.thisRepN,trialFSPractice.thisTrialN,trialFSPractice.thisN,trialFSPractice.thisIndex,trialFSPractice.ran,digitSpanForward,digits,digitsReverse,digitSpanReverse,digitsReverseCorrAnswer,startFSreal.keys,startFSreal.rt,digitsForTrial,digitLoop.thisRepN,digitLoop.thisTrialN,digitLoop.thisN,digitLoop.thisIndex,digitLoop.ran,textbox.text,mouse_3.x,mouse_3.y,mouse_3.leftButton,mouse_3.midButton,mouse_3.rightButton,mouse_3.clicked_name,trialsFS.thisRepN,trialsFS.thisTrialN,trialsFS.thisN,trialsFS.thisIndex,trialsFS.ran,trialNumber,moveToBS.keys,moveToBS.rt,startBSprac.keys,startBSprac.rt,textboxPractice_2.text,mousePractice_2.x,mousePractice_2.y,mousePractice_2.leftButton,mousePractice_2.midButton,mousePractice_2.rightButton,mousePractice_2.clicked_name,trialsPracticeBS.thisRepN,trialsPracticeBS.thisTrialN,trialsPracticeBS.thisN,trialsPracticeBS.thisIndex,trialsPracticeBS.ran,startBSreal.keys,startBSreal.rt,digitLoopBS.thisRepN,digitLoopBS.thisTrialN,digitLoopBS.thisN,digitLoopBS.thisIndex,digitLoopBS.ran,textboxBS.text,mouseBS.x,mouseBS.y,mouseBS.leftButton,mouseBS.midButton,mouseBS.rightButton,mouseBS.clicked_name,trialsBS.thisRepN,trialsBS.thisTrialN,trialsBS.thisN,trialsBS.thisIndex,trialsBS.ran
"[1.5,1.5,1,1.5,1,1.5,1.5,1,1,1,1,1.5,1,1,1.5,1.5,1,1.5,1.5,1.5,1,1,1.5,1,1,1,1,1,1.5,1.5,1.5,1,1.5,1.5,1,1,1.5,1.5,1,1.5,1,1.5,1.5,1.5,1.5,1,1,1,1,1.5]","[1.5,1.5,1,1,1.5,1.5,1,1.5,1,1.5,1.5,1.5,1.5,1.5,1,1,1,1,1.5,1.5,1.5,1,1.5,1.5,1.5,1.5,1.5,1,1.5,1,1,1.5,1,1,1,1,1.5,1,1.5,1.5,1,1.5,1,1.5,1,1,1,1,1,1.5,1.5,1.5,1,1,1,1,1.5,1,1.5,1,1.5,1.5,1.5,1.5,1,1.5,1,1.5,1.5,1,1,1.5,1,1.5,1.5,1.5,1,1.5,1.5,1,1,1,1,1.5,1,1,1.5,1.5,1.5,1.5,1,1.5,1,1,1.5,1.5,1,1.5,1.5,1,1.5,1,1,1.5,1,1,1,1,1,1,1.5,1,1.5,1.5,1,1.5,1.5,1,1,1]",5a348ea750833c0001ee9550,2022-09-08_14h08.22.145,CGTgamblingSpanTasks,2022.2.1,Win32,74.96251874,,,,,,,,,,,,,,,,,,,,,,,,,,,,,,,,,,,,,,,,,,,,,,,,,,,,,,,,,,,,,,,,,,,,,,,,,,,,,,,,,,,,,,,,,,,,,,,,,,,,,,,,,,,,,,,,,,,,,,,,,,,,,,,,,,,,,,,
,,5a348ea750833c0001ee9550,2022-09-08_14h08.22.145,CGTgamblingSpanTasks,2022.2.1,Win32,74.96251874,return,6.483,,,,,,,,,,,,,,,,,,,,,,,,,,,,,,,,,,,,,,,,,,,,,,,,,,,,,,,,,,,,,,,,,,,,,,,,,,,,,,,,,,,,,,,,,,,,,,,,,,,,,,,,,,,,,,,,,,,,,,,,,,,,,,,,,,,,,
,,5a348ea750833c0001ee9550,2022-09-08_14h08.22.145,CGTgamblingSpanTasks,2022.2.1,Win32,74.96251874,,,v,2.67,,,,,,,,,,,,,,,,,,,,,,,,,,,,,,,,,,,,,,,,,,,,,,,,,,,,,,,,,,,,,,,,,,,,,,,,,,,,,,,,,,,,,,,,,,,,,,,,,,,,,,,,,,,,,,,,,,,,,,,,,,,,,,,,,,,
,,5a348ea750833c0001ee9550,2022-09-08_14h08.22.145,CGTgamblingSpanTasks,2022.2.1,Win32,74.96251874,,,,,n,1.589,9.45,2.411,0,0,0,0,1,18.23,0,9.45,2,1,1,,,,,,,,,,,,,,,,,,,,,,,,,,,,,,,,,,,,,,,,,,,,,,,,,,,,,,,,,,,,,,,,,,,,,,,,,,,,,,,,,,,,,,,,,,,,,,,,,,,,,,,,,,,,,,,,,,,,
,,5a348ea750833c0001ee9550,2022-09-08_14h08.22.145,CGTgamblingSpanTasks,2022.2.1,Win32,74.96251874,,,,,n,0.617,35.16,3.383,0,1,1,1,1,53.27,0,35.16,1,1.5,1,,,,,,,,,,,,,,,,,,,,,,,,,,,,,,,,,,,,,,,,,,,,,,,,,,,,,,,,,,,,,,,,,,,,,,,,,,,,,,,,,,,,,,,,,,,,,,,,,,,,,,,,,,,,,,,,,,,,
,,5a348ea750833c0001ee9550,2022-09-08_14h08.22.145,CGTgamblingSpanTasks,2022.2.1,Win32,74.96251874,,,,,v,0.981,1.15,3.019,0,2,2,2,1,8.27,0,1.15,1,1.5,2,,,,,,,,,,,,,,,,,,,,,,,,,,,,,,,,,,,,,,,,,,,,,,,,,,,,,,,,,,,,,,,,,,,,,,,,,,,,,,,,,,,,,,,,,,,,,,,,,,,,,,,,,,,,,,,,,,,,
,,5a348ea750833c0001ee9550,2022-09-08_14h08.22.145,CGTgamblingSpanTasks,2022.2.1,Win32,74.96251874,,,,,n,0.958,40.41,3.042,0,3,3,3,1,45.88,0,40.41,3,1,1,,,,,,,,,,,,,,,,,,,,,,,,,,,,,,,,,,,,,,,,,,,,,,,,,,,,,,,,,,,,,,,,,,,,,,,,,,,,,,,,,,,,,,,,,,,,,,,,,,,,,,,,,,,,,,,,,,,,
,,5a348ea750833c0001ee9550,2022-09-08_14h08.22.145,CGTgamblingSpanTasks,2022.2.1,Win32,74.96251874,,,,,v,1.04,11.96,2.96,0,4,4,4,1,21.56,0,11.96,1,1.5,2,,,,,,,,,,,,,,,,,,,,,,,,,,,,,,,,,,,,,,,,,,,,,,,,,,,,,,,,,,,,,,,,,,,,,,,,,,,,,,,,,,,,,,,,,,,,,,,,,,,,,,,,,,,,,,,,,,,,
,,5a348ea750833c0001ee9550,2022-09-08_14h08.22.145,CGTgamblingSpanTasks,2022.2.1,Win32,74.96251874,,,,,,,,,,,,,,,,,,,,v,1.764,,,,,,,,,,,,,,,,,,,,,,,,,,,,,,,,,,,,,,,,,,,,,,,,,,,,,,,,,,,,,,,,,,,,,,,,,,,,,,,,,,,,,,,,,,,,,,,,,,,,,,,,,,,,,,,,,,
,,5a348ea750833c0001ee9550,2022-09-08_14h08.22.145,CGTgamblingSpanTasks,2022.2.1,Win32,74.96251874,,,,,,,,3.163,,,,,,,,,,,,,,1,n,0.837,10.46,0,4.663,1.5,0,0,0,39,1,15.09,0,10.46,0,,,,,,,,,,,,,,,,,,,,,,,,,,,,,,,,,,,,,,,,,,,,,,,,,,,,,,,,,,,,,,,,,,,,,,,,,,,,,,,,,,,,,,,,,,,,,,,,,,
,,5a348ea750833c0001ee9550,2022-09-08_14h08.22.145,CGTgamblingSpanTasks,2022.2.1,Win32,74.96251874,,,,,,,,3.378,,,,,,,,,,,,,,2,v,0.622,6.08,0,4.878,1.5,0,1,1,20,1,11.84,0,6.08,0,,,,,,,,,,,,,,,,,,,,,,,,,,,,,,,,,,,,,,,,,,,,,,,,,,,,,,,,,,,,,,,,,,,,,,,,,,,,,,,,,,,,,,,,,,,,,,,,,,
,,5a348ea750833c0001ee9550,2022-09-08_14h08.22.145,CGTgamblingSpanTasks,2022.2.1,Win32,74.96251874,,,,,,,,3.32,,,,,,,,,,,,,,2,v,0.68,6.73,0,4.32,1,0,2,2,32,1,10.55,0,6.73,0,,,,,,,,,,,,,,,,,,,,,,,,,,,,,,,,,,,,,,,,,,,,,,,,,,,,,,,,,,,,,,,,,,,,,,,,,,,,,,,,,,,,,,,,,,,,,,,,,,
,,5a348ea750833c0001ee9550,2022-09-08_14h08.22.145,CGTgamblingSpanTasks,2022.2.1,Win32,74.96251874,,,,,,,,3.387,,,,,,,,,,,,,,1,n,0.613,6.63,0,4.887,1.5,0,3,3,30,1,10.73,0,6.63,0,,,,,,,,,,,,,,,,,,,,,,,,,,,,,,,,,,,,,,,,,,,,,,,,,,,,,,,,,,,,,,,,,,,,,,,,,,,,,,,,,,,,,,,,,,,,,,,,,,
,,5a348ea750833c0001ee9550,2022-09-08_14h08.22.145,CGTgamblingSpanTasks,2022.2.1,Win32,74.96251874,,,,,,,,3.399,,,,,,,,,,,,,,1,n,0.601,3.13,0,4.399,1,0,4,4,47,1,0,0,3.13,1,,,,,,,,,,,,,,,,,,,,,,,,,,,,,,,,,,,,,,,,,,,,,,,,,,,,,,,,,,,,,,,,,,,,,,,,,,,,,,,,,,,,,,,,,,,,,,,,,,
,,5a348ea750833c0001ee9550,2022-09-08_14h08.22.145,CGTgamblingSpanTasks,2022.2.1,Win32,74.96251874,,,,,,,,3.357,,,,,,,,,,,,,,1,n,0.643,6.99,0,4.857,1.5,0,5,5,43,1,16.11,6.99,6.99,1,,,,,,,,,,,,,,,,,,,,,,,,,,,,,,,,,,,,,,,,,,,,,,,,,,,,,,,,,,,,,,,,,,,,,,,,,,,,,,,,,,,,,,,,,,,,,,,,,,
,,5a348ea750833c0001ee9550,2022-09-08_14h08.22.145,CGTgamblingSpanTasks,2022.2.1,Win32,74.96251874,,,,,,,,3.302,,,,,,,,,,,,,,1,n,0.698,7.55,0,4.802,1.5,0,6,6,45,1,0,0,7.55,1,,,,,,,,,,,,,,,,,,,,,,,,,,,,,,,,,,,,,,,,,,,,,,,,,,,,,,,,,,,,,,,,,,,,,,,,,,,,,,,,,,,,,,,,,,,,,,,,,,
,,5a348ea750833c0001ee9550,2022-09-08_14h08.22.145,CGTgamblingSpanTasks,2022.2.1,Win32,74.96251874,,,,,,,,3.459,,,,,,,,,,,,,,1,n,0.541,9.92,0,4.459,1,0,7,7,49,1,6.79,0,9.92,1,,,,,,,,,,,,,,,,,,,,,,,,,,,,,,,,,,,,,,,,,,,,,,,,,,,,,,,,,,,,,,,,,,,,,,,,,,,,,,,,,,,,,,,,,,,,,,,,,,
,,5a348ea750833c0001ee9550,2022-09-08_14h08.22.145,CGTgamblingSpanTasks,2022.2.1,Win32,74.96251874,,,,,,,,3.383,,,,,,,,,,,,,,1,n,0.617,3.89,0,4.383,1,0,8,8,1,1,28.21,0,3.89,0,,,,,,,,,,,,,,,,,,,,,,,,,,,,,,,,,,,,,,,,,,,,,,,,,,,,,,,,,,,,,,,,,,,,,,,,,,,,,,,,,,,,,,,,,,,,,,,,,,
,,5a348ea750833c0001ee9550,2022-09-08_14h08.22.145,CGTgamblingSpanTasks,2022.2.1,Win32,74.96251874,,,,,,,,3.431,,,,,,,,,,,,,,1,n,0.569,6.29,0,4.431,1,0,9,9,24,1,11.43,0,6.29,0,,,,,,,,,,,,,,,,,,,,,,,,,,,,,,,,,,,,,,,,,,,,,,,,,,,,,,,,,,,,,,,,,,,,,,,,,,,,,,,,,,,,,,,,,,,,,,,,,,
,,5a348ea750833c0001ee9550,2022-09-08_14h08.22.145,CGTgamblingSpanTasks,2022.2.1,Win32,74.96251874,,,,,,,,3.43,,,,,,,,,,,,,,1,n,0.57,9.2,0,4.43,1,0,10,10,21,1,17.59,0,9.2,0,,,,,,,,,,,,,,,,,,,,,,,,,,,,,,,,,,,,,,,,,,,,,,,,,,,,,,,,,,,,,,,,,,,,,,,,,,,,,,,,,,,,,,,,,,,,,,,,,,
,,5a348ea750833c0001ee9550,2022-09-08_14h08.22.145,CGTgamblingSpanTasks,2022.2.1,Win32,74.96251874,,,,,,,,3.292,,,,,,,,,,,,,,2,v,0.708,10.15,0,4.792,1.5,0,11,11,33,1,15.7,0,10.15,0,,,,,,,,,,,,,,,,,,,,,,,,,,,,,,,,,,,,,,,,,,,,,,,,,,,,,,,,,,,,,,,,,,,,,,,,,,,,,,,,,,,,,,,,,,,,,,,,,,
,,5a348ea750833c0001ee9550,2022-09-08_14h08.22.145,CGTgamblingSpanTasks,2022.2.1,Win32,74.96251874,,,,,,,,3.407,,,,,,,,,,,,,,1,n,0.593,10.37,0,4.407,1,0,12,12,37,1,15.27,0,10.37,0,,,,,,,,,,,,,,,,,,,,,,,,,,,,,,,,,,,,,,,,,,,,,,,,,,,,,,,,,,,,,,,,,,,,,,,,,,,,,,,,,,,,,,,,,,,,,,,,,,
,,5a348ea750833c0001ee9550,2022-09-08_14h08.22.145,CGTgamblingSpanTasks,2022.2.1,Win32,74.96251874,,,,,,,,3.435,,,,,,,,,,,,,,2,v,0.565,7.73,0,4.435,1,0,13,13,9,1,20.53,0,7.73,0,,,,,,,,,,,,,,,,,,,,,,,,,,,,,,,,,,,,,,,,,,,,,,,,,,,,,,,,,,,,,,,,,,,,,,,,,,,,,,,,,,,,,,,,,,,,,,,,,,
,,5a348ea750833c0001ee9550,2022-09-08_14h08.22.145,CGTgamblingSpanTasks,2022.2.1,Win32,74.96251874,,,,,,,,3.289,,,,,,,,,,,,,,2,v,0.711,5.66,0,4.789,1.5,0,14,14,14,1,12.68,0,5.66,0,,,,,,,,,,,,,,,,,,,,,,,,,,,,,,,,,,,,,,,,,,,,,,,,,,,,,,,,,,,,,,,,,,,,,,,,,,,,,,,,,,,,,,,,,,,,,,,,,,
,,5a348ea750833c0001ee9550,2022-09-08_14h08.22.145,CGTgamblingSpanTasks,2022.2.1,Win32,74.96251874,,,,,,,,3.422,,,,,,,,,,,,,,1,n,0.578,0,0,4.922,1.5,0,15,15,42,1,19.86,0,0,1,,,,,,,,,,,,,,,,,,,,,,,,,,,,,,,,,,,,,,,,,,,,,,,,,,,,,,,,,,,,,,,,,,,,,,,,,,,,,,,,,,,,,,,,,,,,,,,,,,
,,5a348ea750833c0001ee9550,2022-09-08_14h08.22.145,CGTgamblingSpanTasks,2022.2.1,Win32,74.96251874,,,,,,,,2.87,,,,,,,,,,,,,,2,v,1.13,7.34,0,3.87,1,0,16,16,7,1,21.32,0,7.34,0,,,,,,,,,,,,,,,,,,,,,,,,,,,,,,,,,,,,,,,,,,,,,,,,,,,,,,,,,,,,,,,,,,,,,,,,,,,,,,,,,,,,,,,,,,,,,,,,,,
,,5a348ea750833c0001ee9550,2022-09-08_14h08.22.145,CGTgamblingSpanTasks,2022.2.1,Win32,74.96251874,,,,,,,,2.921,,,,,,,,,,,,,,2,n,1.079,0,1,4.421,1.5,0,17,17,5,1,22.97,0,6.51,0,,,,,,,,,,,,,,,,,,,,,,,,,,,,,,,,,,,,,,,,,,,,,,,,,,,,,,,,,,,,,,,,,,,,,,,,,,,,,,,,,,,,,,,,,,,,,,,,,,
,,5a348ea750833c0001ee9550,2022-09-08_14h08.22.145,CGTgamblingSpanTasks,2022.2.1,Win32,74.96251874,,,,,,,,2.776,,,,,,,,,,,,,,2,n,1.224,10.35,1,4.276,1.5,0,18,18,40,1,10.35,0,0,1,,,,,,,,,,,,,,,,,,,,,,,,,,,,,,,,,,,,,,,,,,,,,,,,,,,,,,,,,,,,,,,,,,,,,,,,,,,,,,,,,,,,,,,,,,,,,,,,,,
,,5a348ea750833c0001ee9550,2022-09-08_14h08.22.145,CGTgamblingSpanTasks,2022.2.1,Win32,74.96251874,,,,,,,,3.115,,,,,,,,,,,,,,1,n,0.885,5.82,0,4.615,1.5,0,19,19,16,1,12.36,0,5.82,0,,,,,,,,,,,,,,,,,,,,,,,,,,,,,,,,,,,,,,,,,,,,,,,,,,,,,,,,,,,,,,,,,,,,,,,,,,,,,,,,,,,,,,,,,,,,,,,,,,
,,5a348ea750833c0001ee9550,2022-09-08_14h08.22.145,CGTgamblingSpanTasks,2022.2.1,Win32,74.96251874,,,,,,,,3.201,,,,,,,,,,,,,,2,v,0.799,4.64,0,4.201,1,0,20,20,6,1,14.72,0,4.64,0,,,,,,,,,,,,,,,,,,,,,,,,,,,,,,,,,,,,,,,,,,,,,,,,,,,,,,,,,,,,,,,,,,,,,,,,,,,,,,,,,,,,,,,,,,,,,,,,,,
,,5a348ea750833c0001ee9550,2022-09-08_14h08.22.145,CGTgamblingSpanTasks,2022.2.1,Win32,74.96251874,,,,,,,,3.161,,,,,,,,,,,,,,2,v,0.839,9.7,0,4.161,1,0,21,21,27,1,16.6,0,9.7,0,,,,,,,,,,,,,,,,,,,,,,,,,,,,,,,,,,,,,,,,,,,,,,,,,,,,,,,,,,,,,,,,,,,,,,,,,,,,,,,,,,,,,,,,,,,,,,,,,,
,,5a348ea750833c0001ee9550,2022-09-08_14h08.22.145,CGTgamblingSpanTasks,2022.2.1,Win32,74.96251874,,,,,,,,3.263,,,,,,,,,,,,,,1,n,0.737,9.87,0,4.763,1.5,0,22,22,29,1,16.26,0,9.87,0,,,,,,,,,,,,,,,,,,,,,,,,,,,,,,,,,,,,,,,,,,,,,,,,,,,,,,,,,,,,,,,,,,,,,,,,,,,,,,,,,,,,,,,,,,,,,,,,,,
,,5a348ea750833c0001ee9550,2022-09-08_14h08.22.145,CGTgamblingSpanTasks,2022.2.1,Win32,74.96251874,,,,,,,,3.228,,,,,,,,,,,,,,1,n,0.772,9.36,0,4.228,1,0,23,23,23,1,17.28,0,9.36,0,,,,,,,,,,,,,,,,,,,,,,,,,,,,,,,,,,,,,,,,,,,,,,,,,,,,,,,,,,,,,,,,,,,,,,,,,,,,,,,,,,,,,,,,,,,,,,,,,,
,,5a348ea750833c0001ee9550,2022-09-08_14h08.22.145,CGTgamblingSpanTasks,2022.2.1,Win32,74.96251874,,,,,,,,3.306,,,,,,,,,,,,,,2,v,0.694,5.4,0,4.306,1,0,24,24,3,1,25.2,0,5.4,0,,,,,,,,,,,,,,,,,,,,,,,,,,,,,,,,,,,,,,,,,,,,,,,,,,,,,,,,,,,,,,,,,,,,,,,,,,,,,,,,,,,,,,,,,,,,,,,,,,
,,5a348ea750833c0001ee9550,2022-09-08_14h08.22.145,CGTgamblingSpanTasks,2022.2.1,Win32,74.96251874,,,,,,,,3.351,,,,,,,,,,,,,,1,n,0.649,5.96,0,4.351,1,0,25,25,18,1,12.08,0,5.96,0,,,,,,,,,,,,,,,,,,,,,,,,,,,,,,,,,,,,,,,,,,,,,,,,,,,,,,,,,,,,,,,,,,,,,,,,,,,,,,,,,,,,,,,,,,,,,,,,,,
,,5a348ea750833c0001ee9550,2022-09-08_14h08.22.145,CGTgamblingSpanTasks,2022.2.1,Win32,74.96251874,,,,,,,,3.362,,,,,,,,,,,,,,2,v,0.638,5.27,0,4.362,1,0,26,26,10,1,13.45,0,5.27,0,,,,,,,,,,,,,,,,,,,,,,,,,,,,,,,,,,,,,,,,,,,,,,,,,,,,,,,,,,,,,,,,,,,,,,,,,,,,,,,,,,,,,,,,,,,,,,,,,,
,,5a348ea750833c0001ee9550,2022-09-08_14h08.22.145,CGTgamblingSpanTasks,2022.2.1,Win32,74.96251874,,,,,,,,3.347,,,,,,,,,,,,,,2,v,0.653,10.25,0,4.347,1,0,27,27,46,1,0,0,10.25,1,,,,,,,,,,,,,,,,,,,,,,,,,,,,,,,,,,,,,,,,,,,,,,,,,,,,,,,,,,,,,,,,,,,,,,,,,,,,,,,,,,,,,,,,,,,,,,,,,,
,,5a348ea750833c0001ee9550,2022-09-08_14h08.22.145,CGTgamblingSpanTasks,2022.2.1,Win32,74.96251874,,,,,,,,3.207,,,,,,,,,,,,,,1,n,0.793,1.99,0,4.707,1.5,0,28,28,0,1,20.03,0,1.99,0,,,,,,,,,,,,,,,,,,,,,,,,,,,,,,,,,,,,,,,,,,,,,,,,,,,,,,,,,,,,,,,,,,,,,,,,,,,,,,,,,,,,,,,,,,,,,,,,,,
,,5a348ea750833c0001ee9550,2022-09-08_14h08.22.145,CGTgamblingSpanTasks,2022.2.1,Win32,74.96251874,,,,,,,,3.228,,,,,,,,,,,,,,2,v,0.772,6.53,0,4.728,1.5,0,29,29,28,1,10.95,0,6.53,0,,,,,,,,,,,,,,,,,,,,,,,,,,,,,,,,,,,,,,,,,,,,,,,,,,,,,,,,,,,,,,,,,,,,,,,,,,,,,,,,,,,,,,,,,,,,,,,,,,
,,5a348ea750833c0001ee9550,2022-09-08_14h08.22.145,CGTgamblingSpanTasks,2022.2.1,Win32,74.96251874,,,,,,,,3.284,,,,,,,,,,,,,,1,n,0.716,8.07,0,4.784,1.5,0,30,30,11,1,19.86,0,8.07,0,,,,,,,,,,,,,,,,,,,,,,,,,,,,,,,,,,,,,,,,,,,,,,,,,,,,,,,,,,,,,,,,,,,,,,,,,,,,,,,,,,,,,,,,,,,,,,,,,,
,,5a348ea750833c0001ee9550,2022-09-08_14h08.22.145,CGTgamblingSpanTasks,2022.2.1,Win32,74.96251874,,,,,,,,3.27,,,,,,,,,,,,,,2,v,0.73,10.02,0,4.27,1,0,31,31,31,1,15.96,0,10.02,0,,,,,,,,,,,,,,,,,,,,,,,,,,,,,,,,,,,,,,,,,,,,,,,,,,,,,,,,,,,,,,,,,,,,,,,,,,,,,,,,,,,,,,,,,,,,,,,,,,
,,5a348ea750833c0001ee9550,2022-09-08_14h08.22.145,CGTgamblingSpanTasks,2022.2.1,Win32,74.96251874,,,,,,,,3.41,,,,,,,,,,,,,,1,n,0.59,9.5,0,4.91,1.5,0,32,32,25,1,17,0,9.5,0,,,,,,,,,,,,,,,,,,,,,,,,,,,,,,,,,,,,,,,,,,,,,,,,,,,,,,,,,,,,,,,,,,,,,,,,,,,,,,,,,,,,,,,,,,,,,,,,,,
,,5a348ea750833c0001ee9550,2022-09-08_14h08.22.145,CGTgamblingSpanTasks,2022.2.1,Win32,74.96251874,,,,,,,,3.339,,,,,,,,,,,,,,2,v,0.661,5.48,0,4.839,1.5,0,33,33,12,1,13.04,0,5.48,0,,,,,,,,,,,,,,,,,,,,,,,,,,,,,,,,,,,,,,,,,,,,,,,,,,,,,,,,,,,,,,,,,,,,,,,,,,,,,,,,,,,,,,,,,,,,,,,,,,
,,5a348ea750833c0001ee9550,2022-09-08_14h08.22.145,CGTgamblingSpanTasks,2022.2.1,Win32,74.96251874,,,,,,,,3.332,,,,,,,,,,,,,,1,n,0.668,6.19,0,4.332,1,0,34,34,22,1,11.62,0,6.19,0,,,,,,,,,,,,,,,,,,,,,,,,,,,,,,,,,,,,,,,,,,,,,,,,,,,,,,,,,,,,,,,,,,,,,,,,,,,,,,,,,,,,,,,,,,,,,,,,,,
,,5a348ea750833c0001ee9550,2022-09-08_14h08.22.145,CGTgamblingSpanTasks,2022.2.1,Win32,74.96251874,,,,,,,,3.353,,,,,,,,,,,,,,1,n,0.647,9.03,0,4.353,1,0,35,35,19,1,17.94,0,9.03,0,,,,,,,,,,,,,,,,,,,,,,,,,,,,,,,,,,,,,,,,,,,,,,,,,,,,,,,,,,,,,,,,,,,,,,,,,,,,,,,,,,,,,,,,,,,,,,,,,,
,,5a348ea750833c0001ee9550,2022-09-08_14h08.22.145,CGTgamblingSpanTasks,2022.2.1,Win32,74.96251874,,,,,,,,3.194,,,,,,,,,,,,,,2,v,0.806,6.81,0,4.694,1.5,0,36,36,34,1,10.39,0,6.81,0,,,,,,,,,,,,,,,,,,,,,,,,,,,,,,,,,,,,,,,,,,,,,,,,,,,,,,,,,,,,,,,,,,,,,,,,,,,,,,,,,,,,,,,,,,,,,,,,,,
,,5a348ea750833c0001ee9550,2022-09-08_14h08.22.145,CGTgamblingSpanTasks,2022.2.1,Win32,74.96251874,,,,,,,,3.326,,,,,,,,,,,,,,2,v,0.674,8.84,0,4.826,1.5,0,37,37,17,1,18.33,0,8.84,0,,,,,,,,,,,,,,,,,,,,,,,,,,,,,,,,,,,,,,,,,,,,,,,,,,,,,,,,,,,,,,,,,,,,,,,,,,,,,,,,,,,,,,,,,,,,,,,,,,
,,5a348ea750833c0001ee9550,2022-09-08_14h08.22.145,CGTgamblingSpanTasks,2022.2.1,Win32,74.96251874,,,,,,,,3.205,,,,,,,,,,,,,,1,n,0.795,6.94,0,4.205,1,0,38,38,38,1,10.12,0,6.94,0,,,,,,,,,,,,,,,,,,,,,,,,,,,,,,,,,,,,,,,,,,,,,,,,,,,,,,,,,,,,,,,,,,,,,,,,,,,,,,,,,,,,,,,,,,,,,,,,,,
,,5a348ea750833c0001ee9550,2022-09-08_14h08.22.145,CGTgamblingSpanTasks,2022.2.1,Win32,74.96251874,,,,,,,,2.626,,,,,,,,,,,,,,2,v,1.374,0,0,4.126,1.5,0,39,39,41,1,14.26,0,0,1,,,,,,,,,,,,,,,,,,,,,,,,,,,,,,,,,,,,,,,,,,,,,,,,,,,,,,,,,,,,,,,,,,,,,,,,,,,,,,,,,,,,,,,,,,,,,,,,,,
,,5a348ea750833c0001ee9550,2022-09-08_14h08.22.145,CGTgamblingSpanTasks,2022.2.1,Win32,74.96251874,,,,,,,,3.407,,,,,,,,,,,,,,1,n,0.593,10.68,0,4.407,1,0,40,40,48,1,10.68,0,10.68,1,,,,,,,,,,,,,,,,,,,,,,,,,,,,,,,,,,,,,,,,,,,,,,,,,,,,,,,,,,,,,,,,,,,,,,,,,,,,,,,,,,,,,,,,,,,,,,,,,,
,,5a348ea750833c0001ee9550,2022-09-08_14h08.22.145,CGTgamblingSpanTasks,2022.2.1,Win32,74.96251874,,,,,,,,3.384,,,,,,,,,,,,,,1,n,0.616,4,0,4.884,1.5,0,41,41,4,1,16,0,4,0,,,,,,,,,,,,,,,,,,,,,,,,,,,,,,,,,,,,,,,,,,,,,,,,,,,,,,,,,,,,,,,,,,,,,,,,,,,,,,,,,,,,,,,,,,,,,,,,,,
,,5a348ea750833c0001ee9550,2022-09-08_14h08.22.145,CGTgamblingSpanTasks,2022.2.1,Win32,74.96251874,,,,,,,,3.242,,,,,,,,,,,,,,2,v,0.758,8.36,0,4.742,1.5,0,42,42,13,1,19.28,0,8.36,0,,,,,,,,,,,,,,,,,,,,,,,,,,,,,,,,,,,,,,,,,,,,,,,,,,,,,,,,,,,,,,,,,,,,,,,,,,,,,,,,,,,,,,,,,,,,,,,,,,
,,5a348ea750833c0001ee9550,2022-09-08_14h08.22.145,CGTgamblingSpanTasks,2022.2.1,Win32,74.96251874,,,,,,,,3.282,,,,,,,,,,,,,,2,v,0.718,6.4,0,4.782,1.5,0,43,43,26,1,11.2,0,6.4,0,,,,,,,,,,,,,,,,,,,,,,,,,,,,,,,,,,,,,,,,,,,,,,,,,,,,,,,,,,,,,,,,,,,,,,,,,,,,,,,,,,,,,,,,,,,,,,,,,,
,,5a348ea750833c0001ee9550,2022-09-08_14h08.22.145,CGTgamblingSpanTasks,2022.2.1,Win32,74.96251874,,,,,,,,3.43,,,,,,,,,,,,,,1,n,0.57,10.27,0,4.93,1.5,0,44,44,35,1,15.47,0,10.27,0,,,,,,,,,,,,,,,,,,,,,,,,,,,,,,,,,,,,,,,,,,,,,,,,,,,,,,,,,,,,,,,,,,,,,,,,,,,,,,,,,,,,,,,,,,,,,,,,,,
,,5a348ea750833c0001ee9550,2022-09-08_14h08.22.145,CGTgamblingSpanTasks,2022.2.1,Win32,74.96251874,,,,,,,,3.362,,,,,,,,,,,,,,2,v,0.638,5.03,0,4.362,1,0,45,45,8,1,13.94,0,5.03,0,,,,,,,,,,,,,,,,,,,,,,,,,,,,,,,,,,,,,,,,,,,,,,,,,,,,,,,,,,,,,,,,,,,,,,,,,,,,,,,,,,,,,,,,,,,,,,,,,,
,,5a348ea750833c0001ee9550,2022-09-08_14h08.22.145,CGTgamblingSpanTasks,2022.2.1,Win32,74.96251874,,,,,,,,3.404,,,,,,,,,,,,,,1,n,0.596,6.88,0,4.404,1,0,46,46,36,1,10.24,0,6.88,0,,,,,,,,,,,,,,,,,,,,,,,,,,,,,,,,,,,,,,,,,,,,,,,,,,,,,,,,,,,,,,,,,,,,,,,,,,,,,,,,,,,,,,,,,,,,,,,,,,
,,5a348ea750833c0001ee9550,2022-09-08_14h08.22.145,CGTgamblingSpanTasks,2022.2.1,Win32,74.96251874,,,,,,,,3.39,,,,,,,,,,,,,,1,n,0.61,3.13,0,4.39,1,0,47,47,2,1,17.73,0,3.13,0,,,,,,,,,,,,,,,,,,,,,,,,,,,,,,,,,,,,,,,,,,,,,,,,,,,,,,,,,,,,,,,,,,,,,,,,,,,,,,,,,,,,,,,,,,,,,,,,,,
,,5a348ea750833c0001ee9550,2022-09-08_14h08.22.145,CGTgamblingSpanTasks,2022.2.1,Win32,74.96251874,,,,,,,,3.349,,,,,,,,,,,,,,1,n,0.651,4.68,0,4.349,1,0,48,48,44,1,13.1,7.73,4.68,1,,,,,,,,,,,,,,,,,,,,,,,,,,,,,,,,,,,,,,,,,,,,,,,,,,,,,,,,,,,,,,,,,,,,,,,,,,,,,,,,,,,,,,,,,,,,,,,,,,
,,5a348ea750833c0001ee9550,2022-09-08_14h08.22.145,CGTgamblingSpanTasks,2022.2.1,Win32,74.96251874,,,,,,,,3.202,,,,,,,,,,,,,,1,n,0.798,8.61,0,4.702,1.5,0,49,49,15,1,18.77,0,8.61,0,,,,,,,,,,,,,,,,,,,,,,,,,,,,,,,,,,,,,,,,,,,,,,,,,,,,,,,,,,,,,,,,,,,,,,,,,,,,,,,,,,,,,,,,,,,,,,,,,,
,,5a348ea750833c0001ee9550,2022-09-08_14h08.22.145,CGTgamblingSpanTasks,2022.2.1,Win32,74.96251874,,,,,,,,,,,,,,,,,,,,,,,,,,,,,,,,,,,,,,bespoke_choiceset_rhoInd001_muInd004.csv,bespoke_choicesets/bespoke_choiceset_rhoInd001_muInd004.csv,1,4,0,0,0,0,1,,,,,,,,,,,,,,,,,,,,,,,,,,,,,,,,,,,,,,,,,,,,,,,,,,,,,,,,,,,,,,,,,,,,,,,,,,,,,,,,,,,,,,,,,
,,5a348ea750833c0001ee9550,2022-09-08_14h08.22.145,CGTgamblingSpanTasks,2022.2.1,Win32,74.96251874,,,,,,,,,,,,,,,,,,,,,,,,,,,,,,,,,,,,,,,,,,,,,,,,,,,,,,,,,,,,,,,,,,,,,,,,,,,,,,,,,,,,,,,,,,,,,,,,,,,,,,,,,,,,,,,,,,,,,,,,,,,,,,,,,,,,,,,
,,5a348ea750833c0001ee9550,2022-09-08_14h08.22.145,CGTgamblingSpanTasks,2022.2.1,Win32,74.96251874,,,,,,,,,,,,,,,,,,,,,,,,,,,,,,,,,,,,,,,,,,,,,,,v,2.188,,,,,,,,,,,,,,,,,,,,,,,,,,,,,,,,,,,,,,,,,,,,,,,,,,,,,,,,,,,,,,,,,,,,,,,,,,,,,,,,,,,,,,,
,,5a348ea750833c0001ee9550,2022-09-08_14h08.22.145,CGTgamblingSpanTasks,2022.2.1,Win32,74.96251874,,,,,,,,2.984,,,,,,,,,,,,,,1,n,1.016,0.951019374,0,4.484,1.5,,,,,,8.217594828,0,0.951019374,,,,,,,,,,,,,0,0,0,87,1,0.458722936,1,,,,,,,,,,,,,,,,,,,,,,,,,,,,,,,,,,,,,,,,,,,,,,,,,,,,,,,,,,,,,,,,,,,,,,,,,,,,,,,,
,,5a348ea750833c0001ee9550,2022-09-08_14h08.22.145,CGTgamblingSpanTasks,2022.2.1,Win32,74.96251874,,,,,,,,2.167,,,,,,,,,,,,,,1,v,1.833,27.88092897,1,3.667,1.5,,,,,,27.88092897,0,2.771762788,,,,,,,,,,,,,0,1,1,117,1,0.499466648,1,,,,,,,,,,,,,,,,,,,,,,,,,,,,,,,,,,,,,,,,,,,,,,,,,,,,,,,,,,,,,,,,,,,,,,,,,,,,,,,,
,,5a348ea750833c0001ee9550,2022-09-08_14h08.22.145,CGTgamblingSpanTasks,2022.2.1,Win32,74.96251874,,,,,,,,3.103,,,,,,,,,,,,,,2,n,0.897,13.4287264,1,4.103,1,,,,,,13.4287264,0,1.317368801,,,,,,,,,,,,,0,2,2,100,1,0.502953125,1,,,,,,,,,,,,,,,,,,,,,,,,,,,,,,,,,,,,,,,,,,,,,,,,,,,,,,,,,,,,,,,,,,,,,,,,,,,,,,,,
,,5a348ea750833c0001ee9550,2022-09-08_14h08.22.145,CGTgamblingSpanTasks,2022.2.1,Win32,74.96251874,,,,,,,,3.301,,,,,,,,,,,,,,2,v,0.699,8.512335864,0,4.301,1,,,,,,10.05300841,0,8.512335864,,,,,,,,,,,,,0,3,3,74,1,0.040729225,0,,,,,,,,,,,,,,,,,,,,,,,,,,,,,,,,,,,,,,,,,,,,,,,,,,,,,,,,,,,,,,,,,,,,,,,,,,,,,,,,
,,5a348ea750833c0001ee9550,2022-09-08_14h08.22.145,CGTgamblingSpanTasks,2022.2.1,Win32,74.96251874,,,,,,,,3.236,,,,,,,,,,,,,,1,n,0.764,7.646213173,0,4.736,1.5,,,,,,2.042350179,0,7.646213173,,,,,,,,,,,,,0,4,4,53,1,0.009522273,0,,,,,,,,,,,,,,,,,,,,,,,,,,,,,,,,,,,,,,,,,,,,,,,,,,,,,,,,,,,,,,,,,,,,,,,,,,,,,,,,
,,5a348ea750833c0001ee9550,2022-09-08_14h08.22.145,CGTgamblingSpanTasks,2022.2.1,Win32,74.96251874,,,,,,,,3.196,,,,,,,,,,,,,,2,n,0.804,0,1,4.696,1.5,,,,,,27.12325385,0,0.080932047,,,,,,,,,,,,,0,5,5,14,1,0.906929184,0,,,,,,,,,,,,,,,,,,,,,,,,,,,,,,,,,,,,,,,,,,,,,,,,,,,,,,,,,,,,,,,,,,,,,,,,,,,,,,,,
,,5a348ea750833c0001ee9550,2022-09-08_14h08.22.145,CGTgamblingSpanTasks,2022.2.1,Win32,74.96251874,,,,,,,,3.283,,,,,,,,,,,,,,1,v,0.717,0,1,4.283,1,,,,,,24.8002852,0,0.071848086,,,,,,,,,,,,,0,6,6,16,1,0.90783559,0,,,,,,,,,,,,,,,,,,,,,,,,,,,,,,,,,,,,,,,,,,,,,,,,,,,,,,,,,,,,,,,,,,,,,,,,,,,,,,,,
,,5a348ea750833c0001ee9550,2022-09-08_14h08.22.145,CGTgamblingSpanTasks,2022.2.1,Win32,74.96251874,,,,,,,,3.154,,,,,,,,,,,,,,2,n,0.846,19.36415485,1,4.654,1.5,,,,,,19.36415485,0,1.966229494,,,,,,,,,,,,,0,7,7,96,1,0.493893111,1,,,,,,,,,,,,,,,,,,,,,,,,,,,,,,,,,,,,,,,,,,,,,,,,,,,,,,,,,,,,,,,,,,,,,,,,,,,,,,,,
,,5a348ea750833c0001ee9550,2022-09-08_14h08.22.145,CGTgamblingSpanTasks,2022.2.1,Win32,74.96251874,,,,,,,,3.022,,,,,,,,,,,,,,2,n,0.978,24.35708027,1,4.022,1,,,,,,24.35708027,0,2.738695417,,,,,,,,,,,,,0,8,8,114,1,0.466573634,1,,,,,,,,,,,,,,,,,,,,,,,,,,,,,,,,,,,,,,,,,,,,,,,,,,,,,,,,,,,,,,,,,,,,,,,,,,,,,,,,
,,5a348ea750833c0001ee9550,2022-09-08_14h08.22.145,CGTgamblingSpanTasks,2022.2.1,Win32,74.96251874,,,,,,,,2.861,,,,,,,,,,,,,,2,n,1.139,0,1,4.361,1.5,,,,,,19.58698544,0,9.936178001,,,,,,,,,,,,,0,9,9,77,1,0.098812204,0,,,,,,,,,,,,,,,,,,,,,,,,,,,,,,,,,,,,,,,,,,,,,,,,,,,,,,,,,,,,,,,,,,,,,,,,,,,,,,,,
,,5a348ea750833c0001ee9550,2022-09-08_14h08.22.145,CGTgamblingSpanTasks,2022.2.1,Win32,74.96251874,,,,,,,,3.283,,,,,,,,,,,,,,2,n,0.717,26.11188619,1,4.783,1.5,,,,,,26.11188619,0,0.081942421,,,,,,,,,,,,,0,10,10,105,1,0.905343856,0,,,,,,,,,,,,,,,,,,,,,,,,,,,,,,,,,,,,,,,,,,,,,,,,,,,,,,,,,,,,,,,,,,,,,,,,,,,,,,,,
,,5a348ea750833c0001ee9550,2022-09-08_14h08.22.145,CGTgamblingSpanTasks,2022.2.1,Win32,74.96251874,,,,,,,,2.94,,,,,,,,,,,,,,1,v,1.06,0,1,4.44,1.5,,,,,,28.33977875,0,2.768313633,,,,,,,,,,,,,0,11,11,116,1,0.50406901,1,,,,,,,,,,,,,,,,,,,,,,,,,,,,,,,,,,,,,,,,,,,,,,,,,,,,,,,,,,,,,,,,,,,,,,,,,,,,,,,,
,,5a348ea750833c0001ee9550,2022-09-08_14h08.22.145,CGTgamblingSpanTasks,2022.2.1,Win32,74.96251874,,,,,,,,3.283,,,,,,,,,,,,,,1,v,0.717,0,1,4.783,1.5,,,,,,26.16821818,0,0.093528069,,,,,,,,,,,,,0,12,12,42,1,0.901022427,0,,,,,,,,,,,,,,,,,,,,,,,,,,,,,,,,,,,,,,,,,,,,,,,,,,,,,,,,,,,,,,,,,,,,,,,,,,,,,,,,
,,5a348ea750833c0001ee9550,2022-09-08_14h08.22.145,CGTgamblingSpanTasks,2022.2.1,Win32,74.96251874,,,,,,,,3.402,,,,,,,,,,,,,,2,n,0.598,0,1,4.902,1.5,,,,,,13.96521039,0,1.591282699,,,,,,,,,,,,,0,13,13,49,1,0.462956344,1,,,,,,,,,,,,,,,,,,,,,,,,,,,,,,,,,,,,,,,,,,,,,,,,,,,,,,,,,,,,,,,,,,,,,,,,,,,,,,,,
,,5a348ea750833c0001ee9550,2022-09-08_14h08.22.145,CGTgamblingSpanTasks,2022.2.1,Win32,74.96251874,,,,,,,,3.297,,,,,,,,,,,,,,2,v,0.703,10.41201161,0,4.297,1,,,,,,6.307062696,0,10.41201161,,,,,,,,,,,,,0,14,14,23,1,0.018187109,0,,,,,,,,,,,,,,,,,,,,,,,,,,,,,,,,,,,,,,,,,,,,,,,,,,,,,,,,,,,,,,,,,,,,,,,,,,,,,,,,
,,5a348ea750833c0001ee9550,2022-09-08_14h08.22.145,CGTgamblingSpanTasks,2022.2.1,Win32,74.96251874,,,,,,,,3.302,,,,,,,,,,,,,,1,n,0.698,5.683635938,0,4.302,1,,,,,,4.941039335,0,5.683635938,,,,,,,,,,,,,0,15,15,9,1,0.025481984,0,,,,,,,,,,,,,,,,,,,,,,,,,,,,,,,,,,,,,,,,,,,,,,,,,,,,,,,,,,,,,,,,,,,,,,,,,,,,,,,,
,,5a348ea750833c0001ee9550,2022-09-08_14h08.22.145,CGTgamblingSpanTasks,2022.2.1,Win32,74.96251874,,,,,,,,3.337,,,,,,,,,,,,,,2,v,0.663,7.50753835,0,4.337,1,,,,,,2.231316635,0,7.50753835,,,,,,,,,,,,,0,16,16,29,1,0.010273427,0,,,,,,,,,,,,,,,,,,,,,,,,,,,,,,,,,,,,,,,,,,,,,,,,,,,,,,,,,,,,,,,,,,,,,,,,,,,,,,,,
,,5a348ea750833c0001ee9550,2022-09-08_14h08.22.145,CGTgamblingSpanTasks,2022.2.1,Win32,74.96251874,,,,,,,,3.232,,,,,,,,,,,,,,1,v,0.768,0,1,4.232,1,,,,,,18.51345298,0,1.932334278,,,,,,,,,,,,,0,17,17,31,1,0.48658696,1,,,,,,,,,,,,,,,,,,,,,,,,,,,,,,,,,,,,,,,,,,,,,,,,,,,,,,,,,,,,,,,,,,,,,,,,,,,,,,,,
,,5a348ea750833c0001ee9550,2022-09-08_14h08.22.145,CGTgamblingSpanTasks,2022.2.1,Win32,74.96251874,,,,,,,,3.335,,,,,,,,,,,,,,2,n,0.665,22.72923833,1,4.835,1.5,,,,,,22.72923833,0,0.067170781,,,,,,,,,,,,,0,18,18,86,1,0.907226703,0,,,,,,,,,,,,,,,,,,,,,,,,,,,,,,,,,,,,,,,,,,,,,,,,,,,,,,,,,,,,,,,,,,,,,,,,,,,,,,,,
,,5a348ea750833c0001ee9550,2022-09-08_14h08.22.145,CGTgamblingSpanTasks,2022.2.1,Win32,74.96251874,,,,,,,,3.316,,,,,,,,,,,,,,1,v,0.684,24.479109,1,4.816,1.5,,,,,,24.479109,0,0.089582697,,,,,,,,,,,,,0,19,19,89,1,0.900200232,0,,,,,,,,,,,,,,,,,,,,,,,,,,,,,,,,,,,,,,,,,,,,,,,,,,,,,,,,,,,,,,,,,,,,,,,,,,,,,,,,
,,5a348ea750833c0001ee9550,2022-09-08_14h08.22.145,CGTgamblingSpanTasks,2022.2.1,Win32,74.96251874,,,,,,,,3.342,,,,,,,,,,,,,,1,n,0.658,7.850775577,0,4.842,1.5,,,,,,4.622707531,0,7.850775577,,,,,,,,,,,,,0,20,20,6,1,0.017737407,0,,,,,,,,,,,,,,,,,,,,,,,,,,,,,,,,,,,,,,,,,,,,,,,,,,,,,,,,,,,,,,,,,,,,,,,,,,,,,,,,
,,5a348ea750833c0001ee9550,2022-09-08_14h08.22.145,CGTgamblingSpanTasks,2022.2.1,Win32,74.96251874,,,,,,,,3.34,,,,,,,,,,,,,,1,v,0.66,0,1,4.34,1,,,,,,27.38828234,0,0.0639233,,,,,,,,,,,,,0,21,21,43,1,0.914010176,0,,,,,,,,,,,,,,,,,,,,,,,,,,,,,,,,,,,,,,,,,,,,,,,,,,,,,,,,,,,,,,,,,,,,,,,,,,,,,,,,
,,5a348ea750833c0001ee9550,2022-09-08_14h08.22.145,CGTgamblingSpanTasks,2022.2.1,Win32,74.96251874,,,,,,,,3.362,,,,,,,,,,,,,,1,n,0.638,2.393193076,0,4.862,1.5,,,,,,25.76582409,0,2.393193076,,,,,,,,,,,,,0,22,22,46,1,0.517129855,1,,,,,,,,,,,,,,,,,,,,,,,,,,,,,,,,,,,,,,,,,,,,,,,,,,,,,,,,,,,,,,,,,,,,,,,,,,,,,,,,
,,5a348ea750833c0001ee9550,2022-09-08_14h08.22.145,CGTgamblingSpanTasks,2022.2.1,Win32,74.96251874,,,,,,,,3.102,,,,,,,,,,,,,,1,v,0.898,0,1,4.602,1.5,,,,,,11.08143071,0,1.207538756,,,,,,,,,,,,,0,23,23,84,1,0.475047453,1,,,,,,,,,,,,,,,,,,,,,,,,,,,,,,,,,,,,,,,,,,,,,,,,,,,,,,,,,,,,,,,,,,,,,,,,,,,,,,,,
,,5a348ea750833c0001ee9550,2022-09-08_14h08.22.145,CGTgamblingSpanTasks,2022.2.1,Win32,74.96251874,,,,,,,,3.164,,,,,,,,,,,,,,1,n,0.836,2.99133314,0,4.664,1.5,,,,,,27.57491653,0,2.99133314,,,,,,,,,,,,,0,24,24,10,1,0.47625893,1,,,,,,,,,,,,,,,,,,,,,,,,,,,,,,,,,,,,,,,,,,,,,,,,,,,,,,,,,,,,,,,,,,,,,,,,,,,,,,,,
,,5a348ea750833c0001ee9550,2022-09-08_14h08.22.145,CGTgamblingSpanTasks,2022.2.1,Win32,74.96251874,,,,,,,,3.321,,,,,,,,,,,,,,2,v,0.679,2.067660742,0,4.821,1.5,,,,,,21.2188881,0,2.067660742,,,,,,,,,,,,,0,25,25,107,1,0.50470775,1,,,,,,,,,,,,,,,,,,,,,,,,,,,,,,,,,,,,,,,,,,,,,,,,,,,,,,,,,,,,,,,,,,,,,,,,,,,,,,,,
,,5a348ea750833c0001ee9550,2022-09-08_14h08.22.145,CGTgamblingSpanTasks,2022.2.1,Win32,74.96251874,,,,,,,,3.271,,,,,,,,,,,,,,2,v,0.729,5.526483034,0,4.771,1.5,,,,,,9.725876653,0,5.526483034,,,,,,,,,,,,,0,26,26,44,1,0.082550696,0,,,,,,,,,,,,,,,,,,,,,,,,,,,,,,,,,,,,,,,,,,,,,,,,,,,,,,,,,,,,,,,,,,,,,,,,,,,,,,,,
,,5a348ea750833c0001ee9550,2022-09-08_14h08.22.145,CGTgamblingSpanTasks,2022.2.1,Win32,74.96251874,,,,,,,,3.336,,,,,,,,,,,,,,2,n,0.664,7.066129113,1,4.336,1,,,,,,7.066129113,0,0.585581699,,,,,,,,,,,,,0,27,27,19,1,0.545860632,1,,,,,,,,,,,,,,,,,,,,,,,,,,,,,,,,,,,,,,,,,,,,,,,,,,,,,,,,,,,,,,,,,,,,,,,,,,,,,,,,
,,5a348ea750833c0001ee9550,2022-09-08_14h08.22.145,CGTgamblingSpanTasks,2022.2.1,Win32,74.96251874,,,,,,,,3.27,,,,,,,,,,,,,,2,n,0.73,0,1,4.77,1.5,,,,,,15.43649625,0,1.65459324,,,,,,,,,,,,,0,28,28,33,1,0.479480163,1,,,,,,,,,,,,,,,,,,,,,,,,,,,,,,,,,,,,,,,,,,,,,,,,,,,,,,,,,,,,,,,,,,,,,,,,,,,,,,,,
,,5a348ea750833c0001ee9550,2022-09-08_14h08.22.145,CGTgamblingSpanTasks,2022.2.1,Win32,74.96251874,,,,,,,,3.308,,,,,,,,,,,,,,1,v,0.692,28.14876717,1,4.308,1,,,,,,28.14876717,0,3.117906378,,,,,,,,,,,,,0,29,29,76,1,0.470636736,1,,,,,,,,,,,,,,,,,,,,,,,,,,,,,,,,,,,,,,,,,,,,,,,,,,,,,,,,,,,,,,,,,,,,,,,,,,,,,,,,
,,5a348ea750833c0001ee9550,2022-09-08_14h08.22.145,CGTgamblingSpanTasks,2022.2.1,Win32,74.96251874,,,,,,,,3.081,,,,,,,,,,,,,,1,v,0.919,28.9381277,1,4.081,1,,,,,,28.9381277,0,2.663622024,,,,,,,,,,,,,0,30,30,103,1,0.519453367,1,,,,,,,,,,,,,,,,,,,,,,,,,,,,,,,,,,,,,,,,,,,,,,,,,,,,,,,,,,,,,,,,,,,,,,,,,,,,,,,,
,,5a348ea750833c0001ee9550,2022-09-08_14h08.22.145,CGTgamblingSpanTasks,2022.2.1,Win32,74.96251874,,,,,,,,3.294,,,,,,,,,,,,,,1,n,0.706,3.877530383,0,4.794,1.5,,,,,,3.471484939,0,3.877530383,,,,,,,,,,,,,0,31,31,40,1,0.02623078,0,,,,,,,,,,,,,,,,,,,,,,,,,,,,,,,,,,,,,,,,,,,,,,,,,,,,,,,,,,,,,,,,,,,,,,,,,,,,,,,,
,,5a348ea750833c0001ee9550,2022-09-08_14h08.22.145,CGTgamblingSpanTasks,2022.2.1,Win32,74.96251874,,,,,,,,3.335,,,,,,,,,,,,,,1,v,0.665,0,1,4.335,1,,,,,,29.75778644,0,2.810531415,,,,,,,,,,,,,0,32,32,113,1,0.512824233,1,,,,,,,,,,,,,,,,,,,,,,,,,,,,,,,,,,,,,,,,,,,,,,,,,,,,,,,,,,,,,,,,,,,,,,,,,,,,,,,,
,,5a348ea750833c0001ee9550,2022-09-08_14h08.22.145,CGTgamblingSpanTasks,2022.2.1,Win32,74.96251874,,,,,,,,3.358,,,,,,,,,,,,,,2,v,0.642,2.461467004,0,4.358,1,,,,,,27.4965044,0,2.461467004,,,,,,,,,,,,,0,33,33,36,1,0.526550878,1,,,,,,,,,,,,,,,,,,,,,,,,,,,,,,,,,,,,,,,,,,,,,,,,,,,,,,,,,,,,,,,,,,,,,,,,,,,,,,,,
,,5a348ea750833c0001ee9550,2022-09-08_14h08.22.145,CGTgamblingSpanTasks,2022.2.1,Win32,74.96251874,,,,,,,,3.242,,,,,,,,,,,,,,1,v,0.758,22.0050376,1,4.242,1,,,,,,22.0050376,0,2.257683666,,,,,,,,,,,,,0,34,34,4,1,0.491147312,1,,,,,,,,,,,,,,,,,,,,,,,,,,,,,,,,,,,,,,,,,,,,,,,,,,,,,,,,,,,,,,,,,,,,,,,,,,,,,,,,
,,5a348ea750833c0001ee9550,2022-09-08_14h08.22.145,CGTgamblingSpanTasks,2022.2.1,Win32,74.96251874,,,,,,,,3.365,,,,,,,,,,,,,,1,v,0.635,17.92584289,1,4.365,1,,,,,,17.92584289,0,1.878232496,,,,,,,,,,,,,0,35,35,5,1,0.485559263,1,,,,,,,,,,,,,,,,,,,,,,,,,,,,,,,,,,,,,,,,,,,,,,,,,,,,,,,,,,,,,,,,,,,,,,,,,,,,,,,,
,,5a348ea750833c0001ee9550,2022-09-08_14h08.22.145,CGTgamblingSpanTasks,2022.2.1,Win32,74.96251874,,,,,,,,3.369,,,,,,,,,,,,,,1,n,0.631,2.32030209,0,4.869,1.5,,,,,,27.94544945,0,2.32030209,,,,,,,,,,,,,0,36,36,115,1,0.545390564,1,,,,,,,,,,,,,,,,,,,,,,,,,,,,,,,,,,,,,,,,,,,,,,,,,,,,,,,,,,,,,,,,,,,,,,,,,,,,,,,,
,,5a348ea750833c0001ee9550,2022-09-08_14h08.22.145,CGTgamblingSpanTasks,2022.2.1,Win32,74.96251874,,,,,,,,3.275,,,,,,,,,,,,,,2,n,0.725,0,1,4.275,1,,,,,,21.7711579,0,2.502728921,,,,,,,,,,,,,0,37,37,101,1,0.460552621,1,,,,,,,,,,,,,,,,,,,,,,,,,,,,,,,,,,,,,,,,,,,,,,,,,,,,,,,,,,,,,,,,,,,,,,,,,,,,,,,,
,,5a348ea750833c0001ee9550,2022-09-08_14h08.22.145,CGTgamblingSpanTasks,2022.2.1,Win32,74.96251874,,,,,,,,3.376,,,,,,,,,,,,,,2,n,0.624,21.46599803,1,4.876,1.5,,,,,,21.46599803,0,0.059789256,,,,,,,,,,,,,0,38,38,8,1,0.909019081,0,,,,,,,,,,,,,,,,,,,,,,,,,,,,,,,,,,,,,,,,,,,,,,,,,,,,,,,,,,,,,,,,,,,,,,,,,,,,,,,,
,,5a348ea750833c0001ee9550,2022-09-08_14h08.22.145,CGTgamblingSpanTasks,2022.2.1,Win32,74.96251874,,,,,,,,3.376,,,,,,,,,,,,,,2,n,0.624,27.53810185,1,4.876,1.5,,,,,,27.53810185,0,0.097022401,,,,,,,,,,,,,0,39,39,50,1,0.901515865,0,,,,,,,,,,,,,,,,,,,,,,,,,,,,,,,,,,,,,,,,,,,,,,,,,,,,,,,,,,,,,,,,,,,,,,,,,,,,,,,,
,,5a348ea750833c0001ee9550,2022-09-08_14h08.22.145,CGTgamblingSpanTasks,2022.2.1,Win32,74.96251874,,,,,,,,3.303,,,,,,,,,,,,,,1,v,0.697,13.84410806,1,4.303,1,,,,,,13.84410806,0,1.535873964,,,,,,,,,,,,,0,40,40,88,1,0.470209002,1,,,,,,,,,,,,,,,,,,,,,,,,,,,,,,,,,,,,,,,,,,,,,,,,,,,,,,,,,,,,,,,,,,,,,,,,,,,,,,,,
,,5a348ea750833c0001ee9550,2022-09-08_14h08.22.145,CGTgamblingSpanTasks,2022.2.1,Win32,74.96251874,,,,,,,,3.149,,,,,,,,,,,,,,2,n,0.851,0,1,4.649,1.5,,,,,,21.48443242,0,2.229247341,,,,,,,,,,,,,0,41,41,63,1,0.488155912,1,,,,,,,,,,,,,,,,,,,,,,,,,,,,,,,,,,,,,,,,,,,,,,,,,,,,,,,,,,,,,,,,,,,,,,,,,,,,,,,,
,,5a348ea750833c0001ee9550,2022-09-08_14h08.22.145,CGTgamblingSpanTasks,2022.2.1,Win32,74.96251874,,,,,,,,3.401,,,,,,,,,,,,,,2,v,0.599,2.78925142,0,4.401,1,,,,,,25.26994993,0,2.78925142,,,,,,,,,,,,,0,42,42,108,1,0.471582922,1,,,,,,,,,,,,,,,,,,,,,,,,,,,,,,,,,,,,,,,,,,,,,,,,,,,,,,,,,,,,,,,,,,,,,,,,,,,,,,,,
,,5a348ea750833c0001ee9550,2022-09-08_14h08.22.145,CGTgamblingSpanTasks,2022.2.1,Win32,74.96251874,,,,,,,,3.29,,,,,,,,,,,,,,2,n,0.71,6.662965216,1,4.79,1.5,,,,,,6.662965216,0,6.091504705,,,,,,,,,,,,,0,43,43,102,1,0.035087099,0,,,,,,,,,,,,,,,,,,,,,,,,,,,,,,,,,,,,,,,,,,,,,,,,,,,,,,,,,,,,,,,,,,,,,,,,,,,,,,,,
,,5a348ea750833c0001ee9550,2022-09-08_14h08.22.145,CGTgamblingSpanTasks,2022.2.1,Win32,74.96251874,,,,,,,,3.462,,,,,,,,,,,,,,1,v,0.538,0,1,4.462,1,,,,,,18.50662664,0,0.052546026,,,,,,,,,,,,,0,44,44,112,1,0.908444837,0,,,,,,,,,,,,,,,,,,,,,,,,,,,,,,,,,,,,,,,,,,,,,,,,,,,,,,,,,,,,,,,,,,,,,,,,,,,,,,,,
,,5a348ea750833c0001ee9550,2022-09-08_14h08.22.145,CGTgamblingSpanTasks,2022.2.1,Win32,74.96251874,,,,,,,,3.374,,,,,,,,,,,,,,2,v,0.626,2.293289792,0,4.374,1,,,,,,22.86604061,0,2.293289792,,,,,,,,,,,,,0,45,45,51,1,0.49715382,1,,,,,,,,,,,,,,,,,,,,,,,,,,,,,,,,,,,,,,,,,,,,,,,,,,,,,,,,,,,,,,,,,,,,,,,,,,,,,,,,
,,5a348ea750833c0001ee9550,2022-09-08_14h08.22.145,CGTgamblingSpanTasks,2022.2.1,Win32,74.96251874,,,,,,,,3.304,,,,,,,,,,,,,,1,v,0.696,29.77342428,1,4.304,1,,,,,,29.77342428,0,2.838865588,,,,,,,,,,,,,0,46,46,57,1,0.510363415,1,,,,,,,,,,,,,,,,,,,,,,,,,,,,,,,,,,,,,,,,,,,,,,,,,,,,,,,,,,,,,,,,,,,,,,,,,,,,,,,,
,,5a348ea750833c0001ee9550,2022-09-08_14h08.22.145,CGTgamblingSpanTasks,2022.2.1,Win32,74.96251874,,,,,,,,3.416,,,,,,,,,,,,,,1,n,0.584,1.025847652,0,4.416,1,,,,,,8.670591867,0,1.025847652,,,,,,,,,,,,,0,47,47,18,1,0.452680459,1,,,,,,,,,,,,,,,,,,,,,,,,,,,,,,,,,,,,,,,,,,,,,,,,,,,,,,,,,,,,,,,,,,,,,,,,,,,,,,,,
,,5a348ea750833c0001ee9550,2022-09-08_14h08.22.145,CGTgamblingSpanTasks,2022.2.1,Win32,74.96251874,,,,,,,,3.343,,,,,,,,,,,,,,2,v,0.657,2.320849632,0,4.343,1,,,,,,27.7711693,0,2.320849632,,,,,,,,,,,,,0,48,48,94,1,0.543786368,1,,,,,,,,,,,,,,,,,,,,,,,,,,,,,,,,,,,,,,,,,,,,,,,,,,,,,,,,,,,,,,,,,,,,,,,,,,,,,,,,
,,5a348ea750833c0001ee9550,2022-09-08_14h08.22.145,CGTgamblingSpanTasks,2022.2.1,Win32,74.96251874,,,,,,,,3.456,,,,,,,,,,,,,,2,v,0.544,10.68505773,0,4.956,1.5,,,,,,17.64114152,0,10.68505773,,,,,,,,,,,,,0,49,49,98,1,0.074299362,0,,,,,,,,,,,,,,,,,,,,,,,,,,,,,,,,,,,,,,,,,,,,,,,,,,,,,,,,,,,,,,,,,,,,,,,,,,,,,,,,
,,5a348ea750833c0001ee9550,2022-09-08_14h08.22.145,CGTgamblingSpanTasks,2022.2.1,Win32,74.96251874,,,,,,,,3.219,,,,,,,,,,,,,,1,n,0.781,11.41737518,0,4.719,1.5,,,,,,18.11029021,0,11.41737518,,,,,,,,,,,,,0,50,50,48,1,0.069445859,0,,,,,,,,,,,,,,,,,,,,,,,,,,,,,,,,,,,,,,,,,,,,,,,,,,,,,,,,,,,,,,,,,,,,,,,,,,,,,,,,
,,5a348ea750833c0001ee9550,2022-09-08_14h08.22.145,CGTgamblingSpanTasks,2022.2.1,Win32,74.96251874,,,,,,,,3.494,,,,,,,,,,,,,,1,n,0.506,0.065383587,0,4.994,1.5,,,,,,22.25959835,0,0.065383587,,,,,,,,,,,,,0,51,51,97,1,0.907413875,0,,,,,,,,,,,,,,,,,,,,,,,,,,,,,,,,,,,,,,,,,,,,,,,,,,,,,,,,,,,,,,,,,,,,,,,,,,,,,,,,
,,5a348ea750833c0001ee9550,2022-09-08_14h08.22.145,CGTgamblingSpanTasks,2022.2.1,Win32,74.96251874,,,,,,,,3.441,,,,,,,,,,,,,,2,v,0.559,6.781500919,0,4.441,1,,,,,,8.363821911,0,6.781500919,,,,,,,,,,,,,0,52,52,61,1,0.044227959,0,,,,,,,,,,,,,,,,,,,,,,,,,,,,,,,,,,,,,,,,,,,,,,,,,,,,,,,,,,,,,,,,,,,,,,,,,,,,,,,,
,,5a348ea750833c0001ee9550,2022-09-08_14h08.22.145,CGTgamblingSpanTasks,2022.2.1,Win32,74.96251874,,,,,,,,3.299,,,,,,,,,,,,,,2,v,0.701,2.469465385,0,4.299,1,,,,,,21.16780451,0,2.469465385,,,,,,,,,,,,,0,53,53,32,1,0.456531699,1,,,,,,,,,,,,,,,,,,,,,,,,,,,,,,,,,,,,,,,,,,,,,,,,,,,,,,,,,,,,,,,,,,,,,,,,,,,,,,,,
,,5a348ea750833c0001ee9550,2022-09-08_14h08.22.145,CGTgamblingSpanTasks,2022.2.1,Win32,74.96251874,,,,,,,,3.274,,,,,,,,,,,,,,1,v,0.726,0,1,4.274,1,,,,,,26.4985979,0,0.051324376,,,,,,,,,,,,,0,54,54,106,1,0.918747215,0,,,,,,,,,,,,,,,,,,,,,,,,,,,,,,,,,,,,,,,,,,,,,,,,,,,,,,,,,,,,,,,,,,,,,,,,,,,,,,,,
,,5a348ea750833c0001ee9550,2022-09-08_14h08.22.145,CGTgamblingSpanTasks,2022.2.1,Win32,74.96251874,,,,,,,,3.377,,,,,,,,,,,,,,2,n,0.623,21.00799273,1,4.377,1,,,,,,21.00799273,0,0.067969053,,,,,,,,,,,,,0,55,55,92,1,0.904360262,0,,,,,,,,,,,,,,,,,,,,,,,,,,,,,,,,,,,,,,,,,,,,,,,,,,,,,,,,,,,,,,,,,,,,,,,,,,,,,,,,
,,5a348ea750833c0001ee9550,2022-09-08_14h08.22.145,CGTgamblingSpanTasks,2022.2.1,Win32,74.96251874,,,,,,,,3.164,,,,,,,,,,,,,,2,n,0.836,0,1,4.664,1.5,,,,,,25.0707644,0,0.067651625,,,,,,,,,,,,,0,56,56,70,1,0.909952349,0,,,,,,,,,,,,,,,,,,,,,,,,,,,,,,,,,,,,,,,,,,,,,,,,,,,,,,,,,,,,,,,,,,,,,,,,,,,,,,,,
,,5a348ea750833c0001ee9550,2022-09-08_14h08.22.145,CGTgamblingSpanTasks,2022.2.1,Win32,74.96251874,,,,,,,,3.201,,,,,,,,,,,,,,2,v,0.799,8.42547829,0,4.201,1,,,,,,15.87668502,0,8.42547829,,,,,,,,,,,,,0,57,57,56,1,0.092099462,0,,,,,,,,,,,,,,,,,,,,,,,,,,,,,,,,,,,,,,,,,,,,,,,,,,,,,,,,,,,,,,,,,,,,,,,,,,,,,,,,
,,5a348ea750833c0001ee9550,2022-09-08_14h08.22.145,CGTgamblingSpanTasks,2022.2.1,Win32,74.96251874,,,,,,,,3.158,,,,,,,,,,,,,,2,n,0.842,27.77179191,1,4.658,1.5,,,,,,27.77179191,0,0.074524436,,,,,,,,,,,,,0,58,58,99,1,0.910114387,0,,,,,,,,,,,,,,,,,,,,,,,,,,,,,,,,,,,,,,,,,,,,,,,,,,,,,,,,,,,,,,,,,,,,,,,,,,,,,,,,
,,5a348ea750833c0001ee9550,2022-09-08_14h08.22.145,CGTgamblingSpanTasks,2022.2.1,Win32,74.96251874,,,,,,,,3.072,,,,,,,,,,,,,,2,v,0.928,11.42134125,0,4.072,1,,,,,,12.9904115,0,11.42134125,,,,,,,,,,,,,0,59,59,118,1,0.037876033,0,,,,,,,,,,,,,,,,,,,,,,,,,,,,,,,,,,,,,,,,,,,,,,,,,,,,,,,,,,,,,,,,,,,,,,,,,,,,,,,,
,,5a348ea750833c0001ee9550,2022-09-08_14h08.22.145,CGTgamblingSpanTasks,2022.2.1,Win32,74.96251874,,,,,,,,3.281,,,,,,,,,,,,,,2,n,0.719,14.3363647,1,4.781,1.5,,,,,,14.3363647,0,1.396635362,,,,,,,,,,,,,0,60,60,78,1,0.504775474,1,,,,,,,,,,,,,,,,,,,,,,,,,,,,,,,,,,,,,,,,,,,,,,,,,,,,,,,,,,,,,,,,,,,,,,,,,,,,,,,,
,,5a348ea750833c0001ee9550,2022-09-08_14h08.22.145,CGTgamblingSpanTasks,2022.2.1,Win32,74.96251874,,,,,,,,3.05,,,,,,,,,,,,,,1,v,0.95,0,1,4.55,1.5,,,,,,28.13634754,0,2.532806323,,,,,,,,,,,,,0,61,61,28,1,0.525136524,1,,,,,,,,,,,,,,,,,,,,,,,,,,,,,,,,,,,,,,,,,,,,,,,,,,,,,,,,,,,,,,,,,,,,,,,,,,,,,,,,
,,5a348ea750833c0001ee9550,2022-09-08_14h08.22.145,CGTgamblingSpanTasks,2022.2.1,Win32,74.96251874,,,,,,,,3.384,,,,,,,,,,,,,,2,v,0.616,2.208275162,0,4.884,1.5,,,,,,21.03408097,0,2.208275162,,,,,,,,,,,,,0,62,62,0,1,0.485031246,1,,,,,,,,,,,,,,,,,,,,,,,,,,,,,,,,,,,,,,,,,,,,,,,,,,,,,,,,,,,,,,,,,,,,,,,,,,,,,,,,
,,5a348ea750833c0001ee9550,2022-09-08_14h08.22.145,CGTgamblingSpanTasks,2022.2.1,Win32,74.96251874,,,,,,,,3.2,,,,,,,,,,,,,,1,n,0.8,11.6744431,0,4.7,1.5,,,,,,10.43004651,0,11.6744431,,,,,,,,,,,,,0,63,63,15,1,0.026176489,0,,,,,,,,,,,,,,,,,,,,,,,,,,,,,,,,,,,,,,,,,,,,,,,,,,,,,,,,,,,,,,,,,,,,,,,,,,,,,,,,
,,5a348ea750833c0001ee9550,2022-09-08_14h08.22.145,CGTgamblingSpanTasks,2022.2.1,Win32,74.96251874,,,,,,,,3.404,,,,,,,,,,,,,,1,n,0.596,4.462262453,0,4.404,1,,,,,,0.192759042,0,4.462262453,,,,,,,,,,,,,0,64,64,52,1,0.003553223,0,,,,,,,,,,,,,,,,,,,,,,,,,,,,,,,,,,,,,,,,,,,,,,,,,,,,,,,,,,,,,,,,,,,,,,,,,,,,,,,,
,,5a348ea750833c0001ee9550,2022-09-08_14h08.22.145,CGTgamblingSpanTasks,2022.2.1,Win32,74.96251874,,,,,,,,3.109,,,,,,,,,,,,,,1,n,0.891,1.002188111,0,4.609,1.5,,,,,,9.012590634,0,1.002188111,,,,,,,,,,,,,0,65,65,12,1,0.46958041,1,,,,,,,,,,,,,,,,,,,,,,,,,,,,,,,,,,,,,,,,,,,,,,,,,,,,,,,,,,,,,,,,,,,,,,,,,,,,,,,,
,,5a348ea750833c0001ee9550,2022-09-08_14h08.22.145,CGTgamblingSpanTasks,2022.2.1,Win32,74.96251874,,,,,,,,2.728,,,,,,,,,,,,,,1,n,1.272,2.201057101,0,3.728,1,,,,,,26.36733703,0,2.201057101,,,,,,,,,,,,,0,66,66,90,1,0.544064207,1,,,,,,,,,,,,,,,,,,,,,,,,,,,,,,,,,,,,,,,,,,,,,,,,,,,,,,,,,,,,,,,,,,,,,,,,,,,,,,,,
,,5a348ea750833c0001ee9550,2022-09-08_14h08.22.145,CGTgamblingSpanTasks,2022.2.1,Win32,74.96251874,,,,,,,,3.235,,,,,,,,,,,,,,1,n,0.765,1.540604093,0,4.735,1.5,,,,,,18.16238569,0,1.540604093,,,,,,,,,,,,,0,67,67,34,1,0.540092491,1,,,,,,,,,,,,,,,,,,,,,,,,,,,,,,,,,,,,,,,,,,,,,,,,,,,,,,,,,,,,,,,,,,,,,,,,,,,,,,,,
,,5a348ea750833c0001ee9550,2022-09-08_14h08.22.145,CGTgamblingSpanTasks,2022.2.1,Win32,74.96251874,,,,,,,,3.195,,,,,,,,,,,,,,1,v,0.805,0,1,4.695,1.5,,,,,,28.94627214,0,2.701896413,,,,,,,,,,,,,0,68,68,111,1,0.515860759,1,,,,,,,,,,,,,,,,,,,,,,,,,,,,,,,,,,,,,,,,,,,,,,,,,,,,,,,,,,,,,,,,,,,,,,,,,,,,,,,,
,,5a348ea750833c0001ee9550,2022-09-08_14h08.22.145,CGTgamblingSpanTasks,2022.2.1,Win32,74.96251874,,,,,,,,3.273,,,,,,,,,,,,,,2,n,0.727,24.57684014,1,4.273,1,,,,,,24.57684014,0,0.061756244,,,,,,,,,,,,,0,69,69,68,1,0.911988903,0,,,,,,,,,,,,,,,,,,,,,,,,,,,,,,,,,,,,,,,,,,,,,,,,,,,,,,,,,,,,,,,,,,,,,,,,,,,,,,,,
,,5a348ea750833c0001ee9550,2022-09-08_14h08.22.145,CGTgamblingSpanTasks,2022.2.1,Win32,74.96251874,,,,,,,,3.417,,,,,,,,,,,,,,2,v,0.583,11.19311486,0,4.417,1,,,,,,8.17598802,0,11.19311486,,,,,,,,,,,,,0,70,70,110,1,0.021568003,0,,,,,,,,,,,,,,,,,,,,,,,,,,,,,,,,,,,,,,,,,,,,,,,,,,,,,,,,,,,,,,,,,,,,,,,,,,,,,,,,
,,5a348ea750833c0001ee9550,2022-09-08_14h08.22.145,CGTgamblingSpanTasks,2022.2.1,Win32,74.96251874,,,,,,,,3.18,,,,,,,,,,,,,,1,n,0.82,2.058701084,0,4.68,1.5,,,,,,17.85020524,0,2.058701084,,,,,,,,,,,,,0,71,71,25,1,0.459662216,1,,,,,,,,,,,,,,,,,,,,,,,,,,,,,,,,,,,,,,,,,,,,,,,,,,,,,,,,,,,,,,,,,,,,,,,,,,,,,,,,
,,5a348ea750833c0001ee9550,2022-09-08_14h08.22.145,CGTgamblingSpanTasks,2022.2.1,Win32,74.96251874,,,,,,,,3.329,,,,,,,,,,,,,,1,n,0.671,2.030232342,0,4.329,1,,,,,,19.3050342,0,2.030232342,,,,,,,,,,,,,0,72,72,73,1,0.484573227,1,,,,,,,,,,,,,,,,,,,,,,,,,,,,,,,,,,,,,,,,,,,,,,,,,,,,,,,,,,,,,,,,,,,,,,,,,,,,,,,,
,,5a348ea750833c0001ee9550,2022-09-08_14h08.22.145,CGTgamblingSpanTasks,2022.2.1,Win32,74.96251874,,,,,,,,3.365,,,,,,,,,,,,,,2,n,0.635,0,1,4.865,1.5,,,,,,19.68065872,0,1.843597162,,,,,,,,,,,,,0,73,73,80,1,0.514941058,1,,,,,,,,,,,,,,,,,,,,,,,,,,,,,,,,,,,,,,,,,,,,,,,,,,,,,,,,,,,,,,,,,,,,,,,,,,,,,,,,
,,5a348ea750833c0001ee9550,2022-09-08_14h08.22.145,CGTgamblingSpanTasks,2022.2.1,Win32,74.96251874,,,,,,,,3.384,,,,,,,,,,,,,,2,v,0.616,2.003482335,0,4.884,1.5,,,,,,23.24777057,0,2.003482335,,,,,,,,,,,,,0,74,74,59,1,0.536135174,1,,,,,,,,,,,,,,,,,,,,,,,,,,,,,,,,,,,,,,,,,,,,,,,,,,,,,,,,,,,,,,,,,,,,,,,,,,,,,,,,
,,5a348ea750833c0001ee9550,2022-09-08_14h08.22.145,CGTgamblingSpanTasks,2022.2.1,Win32,74.96251874,,,,,,,,3.364,,,,,,,,,,,,,,1,n,0.636,11.93550497,0,4.864,1.5,,,,,,14.20587264,0,11.93550497,,,,,,,,,,,,,0,75,75,21,1,0.041340301,0,,,,,,,,,,,,,,,,,,,,,,,,,,,,,,,,,,,,,,,,,,,,,,,,,,,,,,,,,,,,,,,,,,,,,,,,,,,,,,,,
,,5a348ea750833c0001ee9550,2022-09-08_14h08.22.145,CGTgamblingSpanTasks,2022.2.1,Win32,74.96251874,,,,,,,,3.393,,,,,,,,,,,,,,2,v,0.607,0.095763086,0,4.393,1,,,,,,29.76099779,0,0.095763086,,,,,,,,,,,,,0,76,76,35,1,0.904537896,0,,,,,,,,,,,,,,,,,,,,,,,,,,,,,,,,,,,,,,,,,,,,,,,,,,,,,,,,,,,,,,,,,,,,,,,,,,,,,,,,
,,5a348ea750833c0001ee9550,2022-09-08_14h08.22.145,CGTgamblingSpanTasks,2022.2.1,Win32,74.96251874,,,,,,,,3.328,,,,,,,,,,,,,,1,n,0.672,2.464662219,0,4.828,1.5,,,,,,23.59556381,0,2.464662219,,,,,,,,,,,,,0,77,77,22,1,0.486383205,1,,,,,,,,,,,,,,,,,,,,,,,,,,,,,,,,,,,,,,,,,,,,,,,,,,,,,,,,,,,,,,,,,,,,,,,,,,,,,,,,
,,5a348ea750833c0001ee9550,2022-09-08_14h08.22.145,CGTgamblingSpanTasks,2022.2.1,Win32,74.96251874,,,,,,,,3.34,,,,,,,,,,,,,,1,v,0.66,0,1,4.84,1.5,,,,,,23.4214135,0,2.485985001,,,,,,,,,,,,,0,78,78,81,1,0.482105905,1,,,,,,,,,,,,,,,,,,,,,,,,,,,,,,,,,,,,,,,,,,,,,,,,,,,,,,,,,,,,,,,,,,,,,,,,,,,,,,,,
,,5a348ea750833c0001ee9550,2022-09-08_14h08.22.145,CGTgamblingSpanTasks,2022.2.1,Win32,74.96251874,,,,,,,,3.299,,,,,,,,,,,,,,1,v,0.701,17.23907308,1,4.299,1,,,,,,17.23907308,0,2.055848574,,,,,,,,,,,,,0,79,79,66,1,0.450504458,1,,,,,,,,,,,,,,,,,,,,,,,,,,,,,,,,,,,,,,,,,,,,,,,,,,,,,,,,,,,,,,,,,,,,,,,,,,,,,,,,
,,5a348ea750833c0001ee9550,2022-09-08_14h08.22.145,CGTgamblingSpanTasks,2022.2.1,Win32,74.96251874,,,,,,,,3.286,,,,,,,,,,,,,,1,n,0.714,1.635040165,0,4.286,1,,,,,,18.20422443,0,1.635040165,,,,,,,,,,,,,0,80,80,82,1,0.525708991,1,,,,,,,,,,,,,,,,,,,,,,,,,,,,,,,,,,,,,,,,,,,,,,,,,,,,,,,,,,,,,,,,,,,,,,,,,,,,,,,,
,,5a348ea750833c0001ee9550,2022-09-08_14h08.22.145,CGTgamblingSpanTasks,2022.2.1,Win32,74.96251874,,,,,,,,3.409,,,,,,,,,,,,,,2,n,0.591,11.16819157,1,4.409,1,,,,,,11.16819157,0,0.941456753,,,,,,,,,,,,,0,81,81,45,1,0.54163803,1,,,,,,,,,,,,,,,,,,,,,,,,,,,,,,,,,,,,,,,,,,,,,,,,,,,,,,,,,,,,,,,,,,,,,,,,,,,,,,,,
,,5a348ea750833c0001ee9550,2022-09-08_14h08.22.145,CGTgamblingSpanTasks,2022.2.1,Win32,74.96251874,,,,,,,,3.434,,,,,,,,,,,,,,2,v,0.566,2.123581464,0,4.434,1,,,,,,19.5450126,0,2.123581464,,,,,,,,,,,,,0,82,82,65,1,0.475836144,1,,,,,,,,,,,,,,,,,,,,,,,,,,,,,,,,,,,,,,,,,,,,,,,,,,,,,,,,,,,,,,,,,,,,,,,,,,,,,,,,
,,5a348ea750833c0001ee9550,2022-09-08_14h08.22.145,CGTgamblingSpanTasks,2022.2.1,Win32,74.96251874,,,,,,,,3.313,,,,,,,,,,,,,,2,n,0.687,25.21882231,1,4.813,1.5,,,,,,25.21882231,0,0.085746782,,,,,,,,,,,,,0,83,83,64,1,0.90272076,0,,,,,,,,,,,,,,,,,,,,,,,,,,,,,,,,,,,,,,,,,,,,,,,,,,,,,,,,,,,,,,,,,,,,,,,,,,,,,,,,
,,5a348ea750833c0001ee9550,2022-09-08_14h08.22.145,CGTgamblingSpanTasks,2022.2.1,Win32,74.96251874,,,,,,,,3.275,,,,,,,,,,,,,,1,v,0.725,4.698775357,1,4.275,1,,,,,,4.698775357,0,4.904872644,,,,,,,,,,,,,0,84,84,75,1,0.028064484,0,,,,,,,,,,,,,,,,,,,,,,,,,,,,,,,,,,,,,,,,,,,,,,,,,,,,,,,,,,,,,,,,,,,,,,,,,,,,,,,,
,,5a348ea750833c0001ee9550,2022-09-08_14h08.22.145,CGTgamblingSpanTasks,2022.2.1,Win32,74.96251874,,,,,,,,3.274,,,,,,,,,,,,,,1,v,0.726,0,1,4.274,1,,,,,,28.68598705,0,0.050674956,,,,,,,,,,,,,0,85,85,62,1,0.920905497,0,,,,,,,,,,,,,,,,,,,,,,,,,,,,,,,,,,,,,,,,,,,,,,,,,,,,,,,,,,,,,,,,,,,,,,,,,,,,,,,,
,,5a348ea750833c0001ee9550,2022-09-08_14h08.22.145,CGTgamblingSpanTasks,2022.2.1,Win32,74.96251874,,,,,,,,3.447,,,,,,,,,,,,,,1,n,0.553,2.743407746,0,4.947,1.5,,,,,,27.39221343,0,2.743407746,,,,,,,,,,,,,0,86,86,47,1,0.49752044,1,,,,,,,,,,,,,,,,,,,,,,,,,,,,,,,,,,,,,,,,,,,,,,,,,,,,,,,,,,,,,,,,,,,,,,,,,,,,,,,,
,,5a348ea750833c0001ee9550,2022-09-08_14h08.22.145,CGTgamblingSpanTasks,2022.2.1,Win32,74.96251874,,,,,,,,3.261,,,,,,,,,,,,,,1,n,0.739,1.448620949,0,4.761,1.5,,,,,,17.4320197,0,1.448620949,,,,,,,,,,,,,0,87,87,30,1,0.545178213,1,,,,,,,,,,,,,,,,,,,,,,,,,,,,,,,,,,,,,,,,,,,,,,,,,,,,,,,,,,,,,,,,,,,,,,,,,,,,,,,,
,,5a348ea750833c0001ee9550,2022-09-08_14h08.22.145,CGTgamblingSpanTasks,2022.2.1,Win32,74.96251874,,,,,,,,3.254,,,,,,,,,,,,,,1,n,0.746,0.072474078,0,4.754,1.5,,,,,,21.39646914,0,0.072474078,,,,,,,,,,,,,0,88,88,3,1,0.902848133,0,,,,,,,,,,,,,,,,,,,,,,,,,,,,,,,,,,,,,,,,,,,,,,,,,,,,,,,,,,,,,,,,,,,,,,,,,,,,,,,,
,,5a348ea750833c0001ee9550,2022-09-08_14h08.22.145,CGTgamblingSpanTasks,2022.2.1,Win32,74.96251874,,,,,,,,3.281,,,,,,,,,,,,,,2,n,0.719,0,1,4.781,1.5,,,,,,27.2532142,0,0.08089327,,,,,,,,,,,,,0,89,89,119,1,0.907091845,0,,,,,,,,,,,,,,,,,,,,,,,,,,,,,,,,,,,,,,,,,,,,,,,,,,,,,,,,,,,,,,,,,,,,,,,,,,,,,,,,
,,5a348ea750833c0001ee9550,2022-09-08_14h08.22.145,CGTgamblingSpanTasks,2022.2.1,Win32,74.96251874,,,,,,,,2.808,,,,,,,,,,,,,,2,n,1.192,0,1,3.808,1,,,,,,6.325091157,0,6.833409611,,,,,,,,,,,,,0,90,90,58,1,0.027113638,0,,,,,,,,,,,,,,,,,,,,,,,,,,,,,,,,,,,,,,,,,,,,,,,,,,,,,,,,,,,,,,,,,,,,,,,,,,,,,,,,
,,5a348ea750833c0001ee9550,2022-09-08_14h08.22.145,CGTgamblingSpanTasks,2022.2.1,Win32,74.96251874,,,,,,,,3.225,,,,,,,,,,,,,,2,n,0.775,0,1,4.725,1.5,,,,,,27.60724521,0,0.088432325,,,,,,,,,,,,,0,91,91,17,1,0.904684186,0,,,,,,,,,,,,,,,,,,,,,,,,,,,,,,,,,,,,,,,,,,,,,,,,,,,,,,,,,,,,,,,,,,,,,,,,,,,,,,,,
,,5a348ea750833c0001ee9550,2022-09-08_14h08.22.145,CGTgamblingSpanTasks,2022.2.1,Win32,74.96251874,,,,,,,,3.43,,,,,,,,,,,,,,1,v,0.57,0,1,4.43,1,,,,,,22.62475578,0,2.397643354,,,,,,,,,,,,,0,92,92,93,1,0.482527609,1,,,,,,,,,,,,,,,,,,,,,,,,,,,,,,,,,,,,,,,,,,,,,,,,,,,,,,,,,,,,,,,,,,,,,,,,,,,,,,,,
,,5a348ea750833c0001ee9550,2022-09-08_14h08.22.145,CGTgamblingSpanTasks,2022.2.1,Win32,74.96251874,,,,,,,,3.424,,,,,,,,,,,,,,2,n,0.576,22.87092517,1,4.424,1,,,,,,22.87092517,0,0.059276504,,,,,,,,,,,,,0,93,93,27,1,0.911114935,0,,,,,,,,,,,,,,,,,,,,,,,,,,,,,,,,,,,,,,,,,,,,,,,,,,,,,,,,,,,,,,,,,,,,,,,,,,,,,,,,
,,5a348ea750833c0001ee9550,2022-09-08_14h08.22.145,CGTgamblingSpanTasks,2022.2.1,Win32,74.96251874,,,,,,,,3.391,,,,,,,,,,,,,,1,v,0.609,28.18900855,1,4.891,1.5,,,,,,28.18900855,0,0.05384276,,,,,,,,,,,,,0,94,94,55,1,0.919081308,0,,,,,,,,,,,,,,,,,,,,,,,,,,,,,,,,,,,,,,,,,,,,,,,,,,,,,,,,,,,,,,,,,,,,,,,,,,,,,,,,
,,5a348ea750833c0001ee9550,2022-09-08_14h08.22.145,CGTgamblingSpanTasks,2022.2.1,Win32,74.96251874,,,,,,,,3.475,,,,,,,,,,,,,,1,n,0.525,10.31611309,0,4.975,1.5,,,,,,19.30622782,0,10.31611309,,,,,,,,,,,,,0,95,95,1,1,0.091105656,0,,,,,,,,,,,,,,,,,,,,,,,,,,,,,,,,,,,,,,,,,,,,,,,,,,,,,,,,,,,,,,,,,,,,,,,,,,,,,,,,
,,5a348ea750833c0001ee9550,2022-09-08_14h08.22.145,CGTgamblingSpanTasks,2022.2.1,Win32,74.96251874,,,,,,,,3.139,,,,,,,,,,,,,,2,v,0.861,8.653432553,0,4.139,1,,,,,,15.13999312,0,8.653432553,,,,,,,,,,,,,0,96,96,54,1,0.081767484,0,,,,,,,,,,,,,,,,,,,,,,,,,,,,,,,,,,,,,,,,,,,,,,,,,,,,,,,,,,,,,,,,,,,,,,,,,,,,,,,,
,,5a348ea750833c0001ee9550,2022-09-08_14h08.22.145,CGTgamblingSpanTasks,2022.2.1,Win32,74.96251874,,,,,,,,3.461,,,,,,,,,,,,,,2,n,0.539,0,1,4.961,1.5,,,,,,27.37527992,0,2.860319095,,,,,,,,,,,,,0,97,97,39,1,0.486304156,1,,,,,,,,,,,,,,,,,,,,,,,,,,,,,,,,,,,,,,,,,,,,,,,,,,,,,,,,,,,,,,,,,,,,,,,,,,,,,,,,
,,5a348ea750833c0001ee9550,2022-09-08_14h08.22.145,CGTgamblingSpanTasks,2022.2.1,Win32,74.96251874,,,,,,,,3.439,,,,,,,,,,,,,,2,v,0.561,1.825111303,0,4.939,1.5,,,,,,17.5608285,0,1.825111303,,,,,,,,,,,,,0,98,98,104,1,0.487721116,1,,,,,,,,,,,,,,,,,,,,,,,,,,,,,,,,,,,,,,,,,,,,,,,,,,,,,,,,,,,,,,,,,,,,,,,,,,,,,,,,
,,5a348ea750833c0001ee9550,2022-09-08_14h08.22.145,CGTgamblingSpanTasks,2022.2.1,Win32,74.96251874,,,,,,,,3.43,,,,,,,,,,,,,,2,n,0.57,0,1,4.43,1,,,,,,25.54604005,0,0.088845411,,,,,,,,,,,,,0,99,99,79,1,0.901957831,0,,,,,,,,,,,,,,,,,,,,,,,,,,,,,,,,,,,,,,,,,,,,,,,,,,,,,,,,,,,,,,,,,,,,,,,,,,,,,,,,
,,5a348ea750833c0001ee9550,2022-09-08_14h08.22.145,CGTgamblingSpanTasks,2022.2.1,Win32,74.96251874,,,,,,,,3.444,,,,,,,,,,,,,,1,v,0.556,0,1,4.944,1.5,,,,,,17.30137174,0,1.716380842,,,,,,,,,,,,,0,100,100,20,1,0.500020285,1,,,,,,,,,,,,,,,,,,,,,,,,,,,,,,,,,,,,,,,,,,,,,,,,,,,,,,,,,,,,,,,,,,,,,,,,,,,,,,,,
,,5a348ea750833c0001ee9550,2022-09-08_14h08.22.145,CGTgamblingSpanTasks,2022.2.1,Win32,74.96251874,,,,,,,,3.454,,,,,,,,,,,,,,2,v,0.546,4.251676631,0,4.454,1,,,,,,3.395192929,0,4.251676631,,,,,,,,,,,,,0,101,101,7,1,0.023467153,0,,,,,,,,,,,,,,,,,,,,,,,,,,,,,,,,,,,,,,,,,,,,,,,,,,,,,,,,,,,,,,,,,,,,,,,,,,,,,,,,
,,5a348ea750833c0001ee9550,2022-09-08_14h08.22.145,CGTgamblingSpanTasks,2022.2.1,Win32,74.96251874,,,,,,,,3.265,,,,,,,,,,,,,,2,v,0.735,3.247012935,0,4.265,1,,,,,,29.30724159,0,3.247012935,,,,,,,,,,,,,0,102,102,71,1,0.470571125,1,,,,,,,,,,,,,,,,,,,,,,,,,,,,,,,,,,,,,,,,,,,,,,,,,,,,,,,,,,,,,,,,,,,,,,,,,,,,,,,,
,,5a348ea750833c0001ee9550,2022-09-08_14h08.22.145,CGTgamblingSpanTasks,2022.2.1,Win32,74.96251874,,,,,,,,3.301,,,,,,,,,,,,,,1,v,0.699,0,1,4.801,1.5,,,,,,27.93093084,0,0.050207531,,,,,,,,,,,,,0,103,103,83,1,0.920505936,0,,,,,,,,,,,,,,,,,,,,,,,,,,,,,,,,,,,,,,,,,,,,,,,,,,,,,,,,,,,,,,,,,,,,,,,,,,,,,,,,
,,5a348ea750833c0001ee9550,2022-09-08_14h08.22.145,CGTgamblingSpanTasks,2022.2.1,Win32,74.96251874,,,,,,,,3.4,,,,,,,,,,,,,,1,n,0.6,11.35147481,0,4.4,1,,,,,,17.67865084,0,11.35147481,,,,,,,,,,,,,0,104,104,91,1,0.067304606,0,,,,,,,,,,,,,,,,,,,,,,,,,,,,,,,,,,,,,,,,,,,,,,,,,,,,,,,,,,,,,,,,,,,,,,,,,,,,,,,,
,,5a348ea750833c0001ee9550,2022-09-08_14h08.22.145,CGTgamblingSpanTasks,2022.2.1,Win32,74.96251874,,,,,,,,3.462,,,,,,,,,,,,,,2,n,0.538,0,1,4.462,1,,,,,,21.17800335,0,0.059830985,,,,,,,,,,,,,0,105,105,67,1,0.908594974,0,,,,,,,,,,,,,,,,,,,,,,,,,,,,,,,,,,,,,,,,,,,,,,,,,,,,,,,,,,,,,,,,,,,,,,,,,,,,,,,,
,,5a348ea750833c0001ee9550,2022-09-08_14h08.22.145,CGTgamblingSpanTasks,2022.2.1,Win32,74.96251874,,,,,,,,3.247,,,,,,,,,,,,,,2,n,0.753,24.66627941,1,4.247,1,,,,,,24.66627941,0,2.765426402,,,,,,,,,,,,,0,106,106,24,1,0.467360588,1,,,,,,,,,,,,,,,,,,,,,,,,,,,,,,,,,,,,,,,,,,,,,,,,,,,,,,,,,,,,,,,,,,,,,,,,,,,,,,,,
,,5a348ea750833c0001ee9550,2022-09-08_14h08.22.145,CGTgamblingSpanTasks,2022.2.1,Win32,74.96251874,,,,,,,,3.377,,,,,,,,,,,,,,2,v,0.623,8.579385201,0,4.377,1,,,,,,14.11762686,0,8.579385201,,,,,,,,,,,,,0,107,107,60,1,0.073886959,0,,,,,,,,,,,,,,,,,,,,,,,,,,,,,,,,,,,,,,,,,,,,,,,,,,,,,,,,,,,,,,,,,,,,,,,,,,,,,,,,
,,5a348ea750833c0001ee9550,2022-09-08_14h08.22.145,CGTgamblingSpanTasks,2022.2.1,Win32,74.96251874,,,,,,,,3.378,,,,,,,,,,,,,,2,n,0.622,0,1,4.378,1,,,,,,27.76752685,0,0.083968035,,,,,,,,,,,,,0,108,108,13,1,0.906513967,0,,,,,,,,,,,,,,,,,,,,,,,,,,,,,,,,,,,,,,,,,,,,,,,,,,,,,,,,,,,,,,,,,,,,,,,,,,,,,,,,
,,5a348ea750833c0001ee9550,2022-09-08_14h08.22.145,CGTgamblingSpanTasks,2022.2.1,Win32,74.96251874,,,,,,,,3.457,,,,,,,,,,,,,,2,n,0.543,0,1,4.457,1,,,,,,23.0613391,0,2.387726776,,,,,,,,,,,,,0,109,109,69,1,0.488727763,1,,,,,,,,,,,,,,,,,,,,,,,,,,,,,,,,,,,,,,,,,,,,,,,,,,,,,,,,,,,,,,,,,,,,,,,,,,,,,,,,
,,5a348ea750833c0001ee9550,2022-09-08_14h08.22.145,CGTgamblingSpanTasks,2022.2.1,Win32,74.96251874,,,,,,,,3.429,,,,,,,,,,,,,,2,v,0.571,11.39288827,0,4.929,1.5,,,,,,20.97851654,0,11.39288827,,,,,,,,,,,,,0,110,110,2,1,0.088791079,0,,,,,,,,,,,,,,,,,,,,,,,,,,,,,,,,,,,,,,,,,,,,,,,,,,,,,,,,,,,,,,,,,,,,,,,,,,,,,,,,
,,5a348ea750833c0001ee9550,2022-09-08_14h08.22.145,CGTgamblingSpanTasks,2022.2.1,Win32,74.96251874,,,,,,,,3.35,,,,,,,,,,,,,,2,n,0.65,25.65316415,1,4.35,1,,,,,,25.65316415,0,0.079652925,,,,,,,,,,,,,0,111,111,109,1,0.90568168,0,,,,,,,,,,,,,,,,,,,,,,,,,,,,,,,,,,,,,,,,,,,,,,,,,,,,,,,,,,,,,,,,,,,,,,,,,,,,,,,,
,,5a348ea750833c0001ee9550,2022-09-08_14h08.22.145,CGTgamblingSpanTasks,2022.2.1,Win32,74.96251874,,,,,,,,1.342,,,,,,,,,,,,,,1,v,2.658,0,1,2.842,1.5,,,,,,28.9323758,0,2.893007023,,,,,,,,,,,,,0,112,112,11,1,0.497943321,1,,,,,,,,,,,,,,,,,,,,,,,,,,,,,,,,,,,,,,,,,,,,,,,,,,,,,,,,,,,,,,,,,,,,,,,,,,,,,,,,
,,5a348ea750833c0001ee9550,2022-09-08_14h08.22.145,CGTgamblingSpanTasks,2022.2.1,Win32,74.96251874,,,,,,,,3.182,,,,,,,,,,,,,,1,n,0.818,10.3417501,0,4.682,1.5,,,,,,15.21435748,0,10.3417501,,,,,,,,,,,,,0,113,113,72,1,0.060969226,0,,,,,,,,,,,,,,,,,,,,,,,,,,,,,,,,,,,,,,,,,,,,,,,,,,,,,,,,,,,,,,,,,,,,,,,,,,,,,,,,
,,5a348ea750833c0001ee9550,2022-09-08_14h08.22.145,CGTgamblingSpanTasks,2022.2.1,Win32,74.96251874,,,,,,,,3.383,,,,,,,,,,,,,,2,v,0.617,0.073558523,0,4.383,1,,,,,,20.5726842,0,0.073558523,,,,,,,,,,,,,0,114,114,26,1,0.901008565,0,,,,,,,,,,,,,,,,,,,,,,,,,,,,,,,,,,,,,,,,,,,,,,,,,,,,,,,,,,,,,,,,,,,,,,,,,,,,,,,,
,,5a348ea750833c0001ee9550,2022-09-08_14h08.22.145,CGTgamblingSpanTasks,2022.2.1,Win32,74.96251874,,,,,,,,3.426,,,,,,,,,,,,,,2,n,0.574,15.73000491,1,4.926,1.5,,,,,,15.73000491,0,8.830252162,,,,,,,,,,,,,0,115,115,95,1,0.084193143,0,,,,,,,,,,,,,,,,,,,,,,,,,,,,,,,,,,,,,,,,,,,,,,,,,,,,,,,,,,,,,,,,,,,,,,,,,,,,,,,,
,,5a348ea750833c0001ee9550,2022-09-08_14h08.22.145,CGTgamblingSpanTasks,2022.2.1,Win32,74.96251874,,,,,,,,3.423,,,,,,,,,,,,,,2,v,0.577,1.870404296,0,4.923,1.5,,,,,,20.31034258,0,1.870404296,,,,,,,,,,,,,0,116,116,85,1,0.519325853,1,,,,,,,,,,,,,,,,,,,,,,,,,,,,,,,,,,,,,,,,,,,,,,,,,,,,,,,,,,,,,,,,,,,,,,,,,,,,,,,,
,,5a348ea750833c0001ee9550,2022-09-08_14h08.22.145,CGTgamblingSpanTasks,2022.2.1,Win32,74.96251874,,,,,,,,3.365,,,,,,,,,,,,,,2,v,0.635,11.61882862,0,4.365,1,,,,,,4.022743614,0,11.61882862,,,,,,,,,,,,,0,117,117,38,1,0.011499376,0,,,,,,,,,,,,,,,,,,,,,,,,,,,,,,,,,,,,,,,,,,,,,,,,,,,,,,,,,,,,,,,,,,,,,,,,,,,,,,,,
,,5a348ea750833c0001ee9550,2022-09-08_14h08.22.145,CGTgamblingSpanTasks,2022.2.1,Win32,74.96251874,,,,,,,,3.412,,,,,,,,,,,,,,2,v,0.588,2.543951743,0,4.412,1,,,,,,25.56803059,0,2.543951743,,,,,,,,,,,,,0,118,118,41,1,0.499247217,1,,,,,,,,,,,,,,,,,,,,,,,,,,,,,,,,,,,,,,,,,,,,,,,,,,,,,,,,,,,,,,,,,,,,,,,,,,,,,,,,
,,5a348ea750833c0001ee9550,2022-09-08_14h08.22.145,CGTgamblingSpanTasks,2022.2.1,Win32,74.96251874,,,,,,,,3.501,,,,,,,,,,,,,,1,n,0.499,0.747140182,0,4.501,1,,,,,,7.534278541,0,0.747140182,,,,,,,,,,,,,0,119,119,37,1,0.50012466,1,,,,,,,,,,,,,,,,,,,,,,,,,,,,,,,,,,,,,,,,,,,,,,,,,,,,,,,,,,,,,,,,,,,,,,,,,,,,,,,,
,,5a348ea750833c0001ee9550,2022-09-08_14h08.22.145,CGTgamblingSpanTasks,2022.2.1,Win32,74.96251874,,,,,,,,,,,,,,,,,,,,,,,,,,,,,,,,,,,,,,,,,,,,,,,,,,,,,,,,return,10.216,,,,,,,,,,,,,,,,,,,,,,,,,,,,,,,,,,,,,,,,,,,,,,,,,,,,,,,,,,,,,,,,,,,,,,,,,,,,,,
,,5a348ea750833c0001ee9550,2022-09-08_14h08.22.145,CGTgamblingSpanTasks,2022.2.1,Win32,74.96251874,,,,,,,,,,,,,,,,,,,,,,,,,,,,,,,,,,,,,,,,,,,,,,,,,,,,,,,,,,return,15.551,,,,,,,,,,,,,,,,,,,,,,,,,,,,,,,,,,,,,,,,,,,,,,,,,,,,,,,,,,,,,,,,,,,,,,,,,,,,
,,5a348ea750833c0001ee9550,2022-09-08_14h08.22.145,CGTgamblingSpanTasks,2022.2.1,Win32,74.96251874,,,,,,,,,,,,,,,,,,,,,,,,,,,,,,,,,,,,,,,,,,,,,,,,,,,,,,,,,,,,return,16.403,,,,,,,,,,,,,,,,,,,,,,,,,,,,,,,,,,,,,,,,,,,,,,,,,,,,,,,,,,,,,,,,,,,,,,,,,,
,,5a348ea750833c0001ee9550,2022-09-08_14h08.22.145,CGTgamblingSpanTasks,2022.2.1,Win32,74.96251874,,,,,,,,,,,,,,,,,,,,,,,,,,,,,,,,,,,,,,,,,,,,,,,,,,,,,,,,,,,,,,342,1,-0.05,-0.411111111,1,0,0,cont_buttonPractice,0,0,0,0,1,3,342,24,2,42,,,,,,,,,,,,,,,,,,,,,,,,,,,,,,,,,,,,,,,,,,,,,,,,,,,,,,,,
,,5a348ea750833c0001ee9550,2022-09-08_14h08.22.145,CGTgamblingSpanTasks,2022.2.1,Win32,74.96251874,,,,,,,,,,,,,,,,,,,,,,,,,,,,,,,,,,,,,,,,,,,,,,,,,,,,,,,,,,,,,,937,1,-0.033333333,-0.410185185,1,0,0,cont_buttonPractice,0,1,1,1,1,3,937,73,2,37,,,,,,,,,,,,,,,,,,,,,,,,,,,,,,,,,,,,,,,,,,,,,,,,,,,,,,,,
,,5a348ea750833c0001ee9550,2022-09-08_14h08.22.145,CGTgamblingSpanTasks,2022.2.1,Win32,74.96251874,,,,,,,,,,,,,,,,,,,,,,,,,,,,,,,,,,,,,,,,,,,,,,,,,,,,,,,,,,,,,,,,,,,,,,,,,,,,,,,,return,10.304,,,,,,,,,,,,,,,,,,,,,,,,,,,,,,,,,,,,,,,,,,,,,,,,,,,,,,
,,5a348ea750833c0001ee9550,2022-09-08_14h08.22.145,CGTgamblingSpanTasks,2022.2.1,Win32,74.96251874,,,,,,,,,,,,,,,,,,,,,,,,,,,,,,,,,,,,,,,,,,,,,,,,,,,,,,,,,,,,,,,,,,,,,,,,,,,,,,,,,,"[2,6,8]",0,0,0,0,1,,,,,,,,,,,,,,,,,,,,,,,,,,,,,,,,,,,,,,,,,,,,,,,,
,,5a348ea750833c0001ee9550,2022-09-08_14h08.22.145,CGTgamblingSpanTasks,2022.2.1,Win32,74.96251874,,,,,,,,,,,,,,,,,,,,,,,,,,,,,,,,,,,,,,,,,,,,,,,,,,,,,,,,,,,,,,,,,,,,,,,,,,,,,,,,,,"[2,6,8]",1,0,1,0,1,,,,,,,,,,,,,,,,,,,,,,,,,,,,,,,,,,,,,,,,,,,,,,,,
,,5a348ea750833c0001ee9550,2022-09-08_14h08.22.145,CGTgamblingSpanTasks,2022.2.1,Win32,74.96251874,,,,,,,,,,,,,,,,,,,,,,,,,,,,,,,,,,,,,,,,,,,,,,,,,,,,,,,,,,,,,,,,,,,,,,,,,,,,,,,,,,"[2,6,8]",2,0,2,0,1,,,,,,,,,,,,,,,,,,,,,,,,,,,,,,,,,,,,,,,,,,,,,,,,
,,5a348ea750833c0001ee9550,2022-09-08_14h08.22.145,CGTgamblingSpanTasks,2022.2.1,Win32,74.96251874,,,,,,,,,,,,,,,,,,,,,,,,,,,,,,,,,,,,,,,,,,,,,,,,,,,,,,,,,,,,,,,1,,,,,,,,,,,,,,,,,,,,,,,,,268,-0.033333333,-0.399074074,1,0,0,cont_button,0,0,0,0,1,1,,,,,,,,,,,,,,,,,,,,,,,,,,,,,,,,,,,
,,5a348ea750833c0001ee9550,2022-09-08_14h08.22.145,CGTgamblingSpanTasks,2022.2.1,Win32,74.96251874,,,,,,,,,,,,,,,,,,,,,,,,,,,,,,,,,,,,,,,,,,,,,,,,,,,,,,,,,,,,,,,,,,,,,,,,,,,,,,,,,,"[8,2,9,7]",0,0,0,0,1,,,,,,,,,,,,,,,,,,,,,,,,,,,,,,,,,,,,,,,,,,,,,,,,
,,5a348ea750833c0001ee9550,2022-09-08_14h08.22.145,CGTgamblingSpanTasks,2022.2.1,Win32,74.96251874,,,,,,,,,,,,,,,,,,,,,,,,,,,,,,,,,,,,,,,,,,,,,,,,,,,,,,,,,,,,,,,,,,,,,,,,,,,,,,,,,,"[8,2,9,7]",1,0,1,0,1,,,,,,,,,,,,,,,,,,,,,,,,,,,,,,,,,,,,,,,,,,,,,,,,
,,5a348ea750833c0001ee9550,2022-09-08_14h08.22.145,CGTgamblingSpanTasks,2022.2.1,Win32,74.96251874,,,,,,,,,,,,,,,,,,,,,,,,,,,,,,,,,,,,,,,,,,,,,,,,,,,,,,,,,,,,,,,,,,,,,,,,,,,,,,,,,,"[8,2,9,7]",2,0,2,0,1,,,,,,,,,,,,,,,,,,,,,,,,,,,,,,,,,,,,,,,,,,,,,,,,
,,5a348ea750833c0001ee9550,2022-09-08_14h08.22.145,CGTgamblingSpanTasks,2022.2.1,Win32,74.96251874,,,,,,,,,,,,,,,,,,,,,,,,,,,,,,,,,,,,,,,,,,,,,,,,,,,,,,,,,,,,,,,,,,,,,,,,,,,,,,,,,,"[8,2,9,7]",3,0,3,0,1,,,,,,,,,,,,,,,,,,,,,,,,,,,,,,,,,,,,,,,,,,,,,,,,
,,5a348ea750833c0001ee9550,2022-09-08_14h08.22.145,CGTgamblingSpanTasks,2022.2.1,Win32,74.96251874,,,,,,,,,,,,,,,,,,,,,,,,,,,,,,,,,,,,,,,,,,,,,,,,,,,,,,,,,,,,,,,1,,,,,,,,,,,,,,,,,,,,,,,,,8297,-0.050925926,-0.417592593,1,0,0,cont_button,0,1,1,1,1,2,,,,,,,,,,,,,,,,,,,,,,,,,,,,,,,,,,,
,,5a348ea750833c0001ee9550,2022-09-08_14h08.22.145,CGTgamblingSpanTasks,2022.2.1,Win32,74.96251874,,,,,,,,,,,,,,,,,,,,,,,,,,,,,,,,,,,,,,,,,,,,,,,,,,,,,,,,,,,,,,,,,,,,,,,,,,,,,,,,,,"[4,7,5,1,6]",0,0,0,0,1,,,,,,,,,,,,,,,,,,,,,,,,,,,,,,,,,,,,,,,,,,,,,,,,
,,5a348ea750833c0001ee9550,2022-09-08_14h08.22.145,CGTgamblingSpanTasks,2022.2.1,Win32,74.96251874,,,,,,,,,,,,,,,,,,,,,,,,,,,,,,,,,,,,,,,,,,,,,,,,,,,,,,,,,,,,,,,,,,,,,,,,,,,,,,,,,,"[4,7,5,1,6]",1,0,1,0,1,,,,,,,,,,,,,,,,,,,,,,,,,,,,,,,,,,,,,,,,,,,,,,,,
,,5a348ea750833c0001ee9550,2022-09-08_14h08.22.145,CGTgamblingSpanTasks,2022.2.1,Win32,74.96251874,,,,,,,,,,,,,,,,,,,,,,,,,,,,,,,,,,,,,,,,,,,,,,,,,,,,,,,,,,,,,,,,,,,,,,,,,,,,,,,,,,"[4,7,5,1,6]",2,0,2,0,1,,,,,,,,,,,,,,,,,,,,,,,,,,,,,,,,,,,,,,,,,,,,,,,,
,,5a348ea750833c0001ee9550,2022-09-08_14h08.22.145,CGTgamblingSpanTasks,2022.2.1,Win32,74.96251874,,,,,,,,,,,,,,,,,,,,,,,,,,,,,,,,,,,,,,,,,,,,,,,,,,,,,,,,,,,,,,,,,,,,,,,,,,,,,,,,,,"[4,7,5,1,6]",3,0,3,0,1,,,,,,,,,,,,,,,,,,,,,,,,,,,,,,,,,,,,,,,,,,,,,,,,
,,5a348ea750833c0001ee9550,2022-09-08_14h08.22.145,CGTgamblingSpanTasks,2022.2.1,Win32,74.96251874,,,,,,,,,,,,,,,,,,,,,,,,,,,,,,,,,,,,,,,,,,,,,,,,,,,,,,,,,,,,,,,,,,,,,,,,,,,,,,,,,,"[4,7,5,1,6]",4,0,4,0,1,,,,,,,,,,,,,,,,,,,,,,,,,,,,,,,,,,,,,,,,,,,,,,,,
,,5a348ea750833c0001ee9550,2022-09-08_14h08.22.145,CGTgamblingSpanTasks,2022.2.1,Win32,74.96251874,,,,,,,,,,,,,,,,,,,,,,,,,,,,,,,,,,,,,,,,,,,,,,,,,,,,,,,,,,,,,,,1,,,,,,,,,,,,,,,,,,,,,,,,,47516,0.032407407,-0.425,1,0,0,cont_button,0,2,2,2,1,3,,,,,,,,,,,,,,,,,,,,,,,,,,,,,,,,,,,
,,5a348ea750833c0001ee9550,2022-09-08_14h08.22.145,CGTgamblingSpanTasks,2022.2.1,Win32,74.96251874,,,,,,,,,,,,,,,,,,,,,,,,,,,,,,,,,,,,,,,,,,,,,,,,,,,,,,,,,,,,,,,,,,,,,,,,,,,,,,,,,,"[1,9,7,3,5,2]",0,0,0,0,1,,,,,,,,,,,,,,,,,,,,,,,,,,,,,,,,,,,,,,,,,,,,,,,,
,,5a348ea750833c0001ee9550,2022-09-08_14h08.22.145,CGTgamblingSpanTasks,2022.2.1,Win32,74.96251874,,,,,,,,,,,,,,,,,,,,,,,,,,,,,,,,,,,,,,,,,,,,,,,,,,,,,,,,,,,,,,,,,,,,,,,,,,,,,,,,,,"[1,9,7,3,5,2]",1,0,1,0,1,,,,,,,,,,,,,,,,,,,,,,,,,,,,,,,,,,,,,,,,,,,,,,,,
,,5a348ea750833c0001ee9550,2022-09-08_14h08.22.145,CGTgamblingSpanTasks,2022.2.1,Win32,74.96251874,,,,,,,,,,,,,,,,,,,,,,,,,,,,,,,,,,,,,,,,,,,,,,,,,,,,,,,,,,,,,,,,,,,,,,,,,,,,,,,,,,"[1,9,7,3,5,2]",2,0,2,0,1,,,,,,,,,,,,,,,,,,,,,,,,,,,,,,,,,,,,,,,,,,,,,,,,
,,5a348ea750833c0001ee9550,2022-09-08_14h08.22.145,CGTgamblingSpanTasks,2022.2.1,Win32,74.96251874,,,,,,,,,,,,,,,,,,,,,,,,,,,,,,,,,,,,,,,,,,,,,,,,,,,,,,,,,,,,,,,,,,,,,,,,,,,,,,,,,,"[1,9,7,3,5,2]",3,0,3,0,1,,,,,,,,,,,,,,,,,,,,,,,,,,,,,,,,,,,,,,,,,,,,,,,,
,,5a348ea750833c0001ee9550,2022-09-08_14h08.22.145,CGTgamblingSpanTasks,2022.2.1,Win32,74.96251874,,,,,,,,,,,,,,,,,,,,,,,,,,,,,,,,,,,,,,,,,,,,,,,,,,,,,,,,,,,,,,,,,,,,,,,,,,,,,,,,,,"[1,9,7,3,5,2]",4,0,4,0,1,,,,,,,,,,,,,,,,,,,,,,,,,,,,,,,,,,,,,,,,,,,,,,,,
,,5a348ea750833c0001ee9550,2022-09-08_14h08.22.145,CGTgamblingSpanTasks,2022.2.1,Win32,74.96251874,,,,,,,,,,,,,,,,,,,,,,,,,,,,,,,,,,,,,,,,,,,,,,,,,,,,,,,,,,,,,,,,,,,,,,,,,,,,,,,,,,"[1,9,7,3,5,2]",5,0,5,0,1,,,,,,,,,,,,,,,,,,,,,,,,,,,,,,,,,,,,,,,,,,,,,,,,
,,5a348ea750833c0001ee9550,2022-09-08_14h08.22.145,CGTgamblingSpanTasks,2022.2.1,Win32,74.96251874,,,,,,,,,,,,,,,,,,,,,,,,,,,,,,,,,,,,,,,,,,,,,,,,,,,,,,,,,,,,,,,1,,,,,,,,,,,,,,,,,,,,,,,,,197352,0.02037037,-0.402777778,1,0,0,cont_button,0,3,3,3,1,4,,,,,,,,,,,,,,,,,,,,,,,,,,,,,,,,,,,
,,5a348ea750833c0001ee9550,2022-09-08_14h08.22.145,CGTgamblingSpanTasks,2022.2.1,Win32,74.96251874,,,,,,,,,,,,,,,,,,,,,,,,,,,,,,,,,,,,,,,,,,,,,,,,,,,,,,,,,,,,,,,,,,,,,,,,,,,,,,,,,,"[9,7,5,8,6,3,1]",0,0,0,0,1,,,,,,,,,,,,,,,,,,,,,,,,,,,,,,,,,,,,,,,,,,,,,,,,
,,5a348ea750833c0001ee9550,2022-09-08_14h08.22.145,CGTgamblingSpanTasks,2022.2.1,Win32,74.96251874,,,,,,,,,,,,,,,,,,,,,,,,,,,,,,,,,,,,,,,,,,,,,,,,,,,,,,,,,,,,,,,,,,,,,,,,,,,,,,,,,,"[9,7,5,8,6,3,1]",1,0,1,0,1,,,,,,,,,,,,,,,,,,,,,,,,,,,,,,,,,,,,,,,,,,,,,,,,
,,5a348ea750833c0001ee9550,2022-09-08_14h08.22.145,CGTgamblingSpanTasks,2022.2.1,Win32,74.96251874,,,,,,,,,,,,,,,,,,,,,,,,,,,,,,,,,,,,,,,,,,,,,,,,,,,,,,,,,,,,,,,,,,,,,,,,,,,,,,,,,,"[9,7,5,8,6,3,1]",2,0,2,0,1,,,,,,,,,,,,,,,,,,,,,,,,,,,,,,,,,,,,,,,,,,,,,,,,
,,5a348ea750833c0001ee9550,2022-09-08_14h08.22.145,CGTgamblingSpanTasks,2022.2.1,Win32,74.96251874,,,,,,,,,,,,,,,,,,,,,,,,,,,,,,,,,,,,,,,,,,,,,,,,,,,,,,,,,,,,,,,,,,,,,,,,,,,,,,,,,,"[9,7,5,8,6,3,1]",3,0,3,0,1,,,,,,,,,,,,,,,,,,,,,,,,,,,,,,,,,,,,,,,,,,,,,,,,
,,5a348ea750833c0001ee9550,2022-09-08_14h08.22.145,CGTgamblingSpanTasks,2022.2.1,Win32,74.96251874,,,,,,,,,,,,,,,,,,,,,,,,,,,,,,,,,,,,,,,,,,,,,,,,,,,,,,,,,,,,,,,,,,,,,,,,,,,,,,,,,,"[9,7,5,8,6,3,1]",4,0,4,0,1,,,,,,,,,,,,,,,,,,,,,,,,,,,,,,,,,,,,,,,,,,,,,,,,
,,5a348ea750833c0001ee9550,2022-09-08_14h08.22.145,CGTgamblingSpanTasks,2022.2.1,Win32,74.96251874,,,,,,,,,,,,,,,,,,,,,,,,,,,,,,,,,,,,,,,,,,,,,,,,,,,,,,,,,,,,,,,,,,,,,,,,,,,,,,,,,,"[9,7,5,8,6,3,1]",5,0,5,0,1,,,,,,,,,,,,,,,,,,,,,,,,,,,,,,,,,,,,,,,,,,,,,,,,
,,5a348ea750833c0001ee9550,2022-09-08_14h08.22.145,CGTgamblingSpanTasks,2022.2.1,Win32,74.96251874,,,,,,,,,,,,,,,,,,,,,,,,,,,,,,,,,,,,,,,,,,,,,,,,,,,,,,,,,,,,,,,,,,,,,,,,,,,,,,,,,,"[9,7,5,8,6,3,1]",6,0,6,0,1,,,,,,,,,,,,,,,,,,,,,,,,,,,,,,,,,,,,,,,,,,,,,,,,
,,5a348ea750833c0001ee9550,2022-09-08_14h08.22.145,CGTgamblingSpanTasks,2022.2.1,Win32,74.96251874,,,,,,,,,,,,,,,,,,,,,,,,,,,,,,,,,,,,,,,,,,,,,,,,,,,,,,,,,,,,,,,1,,,,,,,,,,,,,,,,,,,,,,,,,9758631,-0.025,-0.424074074,1,0,0,cont_button,0,4,4,4,1,5,,,,,,,,,,,,,,,,,,,,,,,,,,,,,,,,,,,
,,5a348ea750833c0001ee9550,2022-09-08_14h08.22.145,CGTgamblingSpanTasks,2022.2.1,Win32,74.96251874,,,,,,,,,,,,,,,,,,,,,,,,,,,,,,,,,,,,,,,,,,,,,,,,,,,,,,,,,,,,,,,,,,,,,,,,,,,,,,,,,,"[1,2,5,7,8,6,3,9]",0,0,0,0,1,,,,,,,,,,,,,,,,,,,,,,,,,,,,,,,,,,,,,,,,,,,,,,,,
,,5a348ea750833c0001ee9550,2022-09-08_14h08.22.145,CGTgamblingSpanTasks,2022.2.1,Win32,74.96251874,,,,,,,,,,,,,,,,,,,,,,,,,,,,,,,,,,,,,,,,,,,,,,,,,,,,,,,,,,,,,,,,,,,,,,,,,,,,,,,,,,"[1,2,5,7,8,6,3,9]",1,0,1,0,1,,,,,,,,,,,,,,,,,,,,,,,,,,,,,,,,,,,,,,,,,,,,,,,,
,,5a348ea750833c0001ee9550,2022-09-08_14h08.22.145,CGTgamblingSpanTasks,2022.2.1,Win32,74.96251874,,,,,,,,,,,,,,,,,,,,,,,,,,,,,,,,,,,,,,,,,,,,,,,,,,,,,,,,,,,,,,,,,,,,,,,,,,,,,,,,,,"[1,2,5,7,8,6,3,9]",2,0,2,0,1,,,,,,,,,,,,,,,,,,,,,,,,,,,,,,,,,,,,,,,,,,,,,,,,
,,5a348ea750833c0001ee9550,2022-09-08_14h08.22.145,CGTgamblingSpanTasks,2022.2.1,Win32,74.96251874,,,,,,,,,,,,,,,,,,,,,,,,,,,,,,,,,,,,,,,,,,,,,,,,,,,,,,,,,,,,,,,,,,,,,,,,,,,,,,,,,,"[1,2,5,7,8,6,3,9]",3,0,3,0,1,,,,,,,,,,,,,,,,,,,,,,,,,,,,,,,,,,,,,,,,,,,,,,,,
,,5a348ea750833c0001ee9550,2022-09-08_14h08.22.145,CGTgamblingSpanTasks,2022.2.1,Win32,74.96251874,,,,,,,,,,,,,,,,,,,,,,,,,,,,,,,,,,,,,,,,,,,,,,,,,,,,,,,,,,,,,,,,,,,,,,,,,,,,,,,,,,"[1,2,5,7,8,6,3,9]",4,0,4,0,1,,,,,,,,,,,,,,,,,,,,,,,,,,,,,,,,,,,,,,,,,,,,,,,,
,,5a348ea750833c0001ee9550,2022-09-08_14h08.22.145,CGTgamblingSpanTasks,2022.2.1,Win32,74.96251874,,,,,,,,,,,,,,,,,,,,,,,,,,,,,,,,,,,,,,,,,,,,,,,,,,,,,,,,,,,,,,,,,,,,,,,,,,,,,,,,,,"[1,2,5,7,8,6,3,9]",5,0,5,0,1,,,,,,,,,,,,,,,,,,,,,,,,,,,,,,,,,,,,,,,,,,,,,,,,
,,5a348ea750833c0001ee9550,2022-09-08_14h08.22.145,CGTgamblingSpanTasks,2022.2.1,Win32,74.96251874,,,,,,,,,,,,,,,,,,,,,,,,,,,,,,,,,,,,,,,,,,,,,,,,,,,,,,,,,,,,,,,,,,,,,,,,,,,,,,,,,,"[1,2,5,7,8,6,3,9]",6,0,6,0,1,,,,,,,,,,,,,,,,,,,,,,,,,,,,,,,,,,,,,,,,,,,,,,,,
,,5a348ea750833c0001ee9550,2022-09-08_14h08.22.145,CGTgamblingSpanTasks,2022.2.1,Win32,74.96251874,,,,,,,,,,,,,,,,,,,,,,,,,,,,,,,,,,,,,,,,,,,,,,,,,,,,,,,,,,,,,,,,,,,,,,,,,,,,,,,,,,"[1,2,5,7,8,6,3,9]",7,0,7,0,1,,,,,,,,,,,,,,,,,,,,,,,,,,,,,,,,,,,,,,,,,,,,,,,,
,,5a348ea750833c0001ee9550,2022-09-08_14h08.22.145,CGTgamblingSpanTasks,2022.2.1,Win32,74.96251874,,,,,,,,,,,,,,,,,,,,,,,,,,,,,,,,,,,,,,,,,,,,,,,,,,,,,,,,,,,,,,,1,,,,,,,,,,,,,,,,,,,,,,,,,12578639,-0.013888889,-0.374074074,1,0,0,cont_button,0,5,5,5,1,6,,,,,,,,,,,,,,,,,,,,,,,,,,,,,,,,,,,
,,5a348ea750833c0001ee9550,2022-09-08_14h08.22.145,CGTgamblingSpanTasks,2022.2.1,Win32,74.96251874,,,,,,,,,,,,,,,,,,,,,,,,,,,,,,,,,,,,,,,,,,,,,,,,,,,,,,,,,,,,,,,,,,,,,,,,,,,,,,,,,,"[6,2,9,8,4,1,5,7,3]",0,0,0,0,1,,,,,,,,,,,,,,,,,,,,,,,,,,,,,,,,,,,,,,,,,,,,,,,,
,,5a348ea750833c0001ee9550,2022-09-08_14h08.22.145,CGTgamblingSpanTasks,2022.2.1,Win32,74.96251874,,,,,,,,,,,,,,,,,,,,,,,,,,,,,,,,,,,,,,,,,,,,,,,,,,,,,,,,,,,,,,,,,,,,,,,,,,,,,,,,,,"[6,2,9,8,4,1,5,7,3]",1,0,1,0,1,,,,,,,,,,,,,,,,,,,,,,,,,,,,,,,,,,,,,,,,,,,,,,,,
,,5a348ea750833c0001ee9550,2022-09-08_14h08.22.145,CGTgamblingSpanTasks,2022.2.1,Win32,74.96251874,,,,,,,,,,,,,,,,,,,,,,,,,,,,,,,,,,,,,,,,,,,,,,,,,,,,,,,,,,,,,,,,,,,,,,,,,,,,,,,,,,"[6,2,9,8,4,1,5,7,3]",2,0,2,0,1,,,,,,,,,,,,,,,,,,,,,,,,,,,,,,,,,,,,,,,,,,,,,,,,
,,5a348ea750833c0001ee9550,2022-09-08_14h08.22.145,CGTgamblingSpanTasks,2022.2.1,Win32,74.96251874,,,,,,,,,,,,,,,,,,,,,,,,,,,,,,,,,,,,,,,,,,,,,,,,,,,,,,,,,,,,,,,,,,,,,,,,,,,,,,,,,,"[6,2,9,8,4,1,5,7,3]",3,0,3,0,1,,,,,,,,,,,,,,,,,,,,,,,,,,,,,,,,,,,,,,,,,,,,,,,,
,,5a348ea750833c0001ee9550,2022-09-08_14h08.22.145,CGTgamblingSpanTasks,2022.2.1,Win32,74.96251874,,,,,,,,,,,,,,,,,,,,,,,,,,,,,,,,,,,,,,,,,,,,,,,,,,,,,,,,,,,,,,,,,,,,,,,,,,,,,,,,,,"[6,2,9,8,4,1,5,7,3]",4,0,4,0,1,,,,,,,,,,,,,,,,,,,,,,,,,,,,,,,,,,,,,,,,,,,,,,,,
,,5a348ea750833c0001ee9550,2022-09-08_14h08.22.145,CGTgamblingSpanTasks,2022.2.1,Win32,74.96251874,,,,,,,,,,,,,,,,,,,,,,,,,,,,,,,,,,,,,,,,,,,,,,,,,,,,,,,,,,,,,,,,,,,,,,,,,,,,,,,,,,"[6,2,9,8,4,1,5,7,3]",5,0,5,0,1,,,,,,,,,,,,,,,,,,,,,,,,,,,,,,,,,,,,,,,,,,,,,,,,
,,5a348ea750833c0001ee9550,2022-09-08_14h08.22.145,CGTgamblingSpanTasks,2022.2.1,Win32,74.96251874,,,,,,,,,,,,,,,,,,,,,,,,,,,,,,,,,,,,,,,,,,,,,,,,,,,,,,,,,,,,,,,,,,,,,,,,,,,,,,,,,,"[6,2,9,8,4,1,5,7,3]",6,0,6,0,1,,,,,,,,,,,,,,,,,,,,,,,,,,,,,,,,,,,,,,,,,,,,,,,,
,,5a348ea750833c0001ee9550,2022-09-08_14h08.22.145,CGTgamblingSpanTasks,2022.2.1,Win32,74.96251874,,,,,,,,,,,,,,,,,,,,,,,,,,,,,,,,,,,,,,,,,,,,,,,,,,,,,,,,,,,,,,,,,,,,,,,,,,,,,,,,,,"[6,2,9,8,4,1,5,7,3]",7,0,7,0,1,,,,,,,,,,,,,,,,,,,,,,,,,,,,,,,,,,,,,,,,,,,,,,,,
,,5a348ea750833c0001ee9550,2022-09-08_14h08.22.145,CGTgamblingSpanTasks,2022.2.1,Win32,74.96251874,,,,,,,,,,,,,,,,,,,,,,,,,,,,,,,,,,,,,,,,,,,,,,,,,,,,,,,,,,,,,,,,,,,,,,,,,,,,,,,,,,"[6,2,9,8,4,1,5,7,3]",8,0,8,0,1,,,,,,,,,,,,,,,,,,,,,,,,,,,,,,,,,,,,,,,,,,,,,,,,
,,5a348ea750833c0001ee9550,2022-09-08_14h08.22.145,CGTgamblingSpanTasks,2022.2.1,Win32,74.96251874,,,,,,,,,,,,,,,,,,,,,,,,,,,,,,,,,,,,,,,,,,,,,,,,,,,,,,,,,,,,,,,0,,,,,,,,,,,,,,,,,,,,,,,,,6537853,-0.02037037,-0.388888889,1,0,0,cont_button,0,6,6,6,1,7,,,,,,,,,,,,,,,,,,,,,,,,,,,,,,,,,,,
,,5a348ea750833c0001ee9550,2022-09-08_14h08.22.145,CGTgamblingSpanTasks,2022.2.1,Win32,74.96251874,,,,,,,,,,,,,,,,,,,,,,,,,,,,,,,,,,,,,,,,,,,,,,,,,,,,,,,,,,,,,,,,,,,,,,,,,,,,,,,,,,"[3,8,5,9,2,1,6,7,4]",0,0,0,0,1,,,,,,,,,,,,,,,,,,,,,,,,,,,,,,,,,,,,,,,,,,,,,,,,
,,5a348ea750833c0001ee9550,2022-09-08_14h08.22.145,CGTgamblingSpanTasks,2022.2.1,Win32,74.96251874,,,,,,,,,,,,,,,,,,,,,,,,,,,,,,,,,,,,,,,,,,,,,,,,,,,,,,,,,,,,,,,,,,,,,,,,,,,,,,,,,,"[3,8,5,9,2,1,6,7,4]",1,0,1,0,1,,,,,,,,,,,,,,,,,,,,,,,,,,,,,,,,,,,,,,,,,,,,,,,,
,,5a348ea750833c0001ee9550,2022-09-08_14h08.22.145,CGTgamblingSpanTasks,2022.2.1,Win32,74.96251874,,,,,,,,,,,,,,,,,,,,,,,,,,,,,,,,,,,,,,,,,,,,,,,,,,,,,,,,,,,,,,,,,,,,,,,,,,,,,,,,,,"[3,8,5,9,2,1,6,7,4]",2,0,2,0,1,,,,,,,,,,,,,,,,,,,,,,,,,,,,,,,,,,,,,,,,,,,,,,,,
,,5a348ea750833c0001ee9550,2022-09-08_14h08.22.145,CGTgamblingSpanTasks,2022.2.1,Win32,74.96251874,,,,,,,,,,,,,,,,,,,,,,,,,,,,,,,,,,,,,,,,,,,,,,,,,,,,,,,,,,,,,,,,,,,,,,,,,,,,,,,,,,"[3,8,5,9,2,1,6,7,4]",3,0,3,0,1,,,,,,,,,,,,,,,,,,,,,,,,,,,,,,,,,,,,,,,,,,,,,,,,
,,5a348ea750833c0001ee9550,2022-09-08_14h08.22.145,CGTgamblingSpanTasks,2022.2.1,Win32,74.96251874,,,,,,,,,,,,,,,,,,,,,,,,,,,,,,,,,,,,,,,,,,,,,,,,,,,,,,,,,,,,,,,,,,,,,,,,,,,,,,,,,,"[3,8,5,9,2,1,6,7,4]",4,0,4,0,1,,,,,,,,,,,,,,,,,,,,,,,,,,,,,,,,,,,,,,,,,,,,,,,,
,,5a348ea750833c0001ee9550,2022-09-08_14h08.22.145,CGTgamblingSpanTasks,2022.2.1,Win32,74.96251874,,,,,,,,,,,,,,,,,,,,,,,,,,,,,,,,,,,,,,,,,,,,,,,,,,,,,,,,,,,,,,,,,,,,,,,,,,,,,,,,,,"[3,8,5,9,2,1,6,7,4]",5,0,5,0,1,,,,,,,,,,,,,,,,,,,,,,,,,,,,,,,,,,,,,,,,,,,,,,,,
,,5a348ea750833c0001ee9550,2022-09-08_14h08.22.145,CGTgamblingSpanTasks,2022.2.1,Win32,74.96251874,,,,,,,,,,,,,,,,,,,,,,,,,,,,,,,,,,,,,,,,,,,,,,,,,,,,,,,,,,,,,,,,,,,,,,,,,,,,,,,,,,"[3,8,5,9,2,1,6,7,4]",6,0,6,0,1,,,,,,,,,,,,,,,,,,,,,,,,,,,,,,,,,,,,,,,,,,,,,,,,
,,5a348ea750833c0001ee9550,2022-09-08_14h08.22.145,CGTgamblingSpanTasks,2022.2.1,Win32,74.96251874,,,,,,,,,,,,,,,,,,,,,,,,,,,,,,,,,,,,,,,,,,,,,,,,,,,,,,,,,,,,,,,,,,,,,,,,,,,,,,,,,,"[3,8,5,9,2,1,6,7,4]",7,0,7,0,1,,,,,,,,,,,,,,,,,,,,,,,,,,,,,,,,,,,,,,,,,,,,,,,,
,,5a348ea750833c0001ee9550,2022-09-08_14h08.22.145,CGTgamblingSpanTasks,2022.2.1,Win32,74.96251874,,,,,,,,,,,,,,,,,,,,,,,,,,,,,,,,,,,,,,,,,,,,,,,,,,,,,,,,,,,,,,,,,,,,,,,,,,,,,,,,,,"[3,8,5,9,2,1,6,7,4]",8,0,8,0,1,,,,,,,,,,,,,,,,,,,,,,,,,,,,,,,,,,,,,,,,,,,,,,,,
,,5a348ea750833c0001ee9550,2022-09-08_14h08.22.145,CGTgamblingSpanTasks,2022.2.1,Win32,74.96251874,,,,,,,,,,,,,,,,,,,,,,,,,,,,,,,,,,,,,,,,,,,,,,,,,,,,,,,,,,,,,,,0,,,,,,,,,,,,,,,,,,,,,,,,,38957624,-0.019444444,-0.406481481,1,0,0,cont_button,0,7,7,7,1,8,,,,,,,,,,,,,,,,,,,,,,,,,,,,,,,,,,,
,,5a348ea750833c0001ee9550,2022-09-08_14h08.22.145,CGTgamblingSpanTasks,2022.2.1,Win32,74.96251874,,,,,,,,,,,,,,,,,,,,,,,,,,,,,,,,,,,,,,,,,,,,,,,,,,,,,,,,,,,,,,,,,,,,,,,,,,,,,,,,,,"[6,3,4,8,1,5,7,9]",0,0,0,0,1,,,,,,,,,,,,,,,,,,,,,,,,,,,,,,,,,,,,,,,,,,,,,,,,
,,5a348ea750833c0001ee9550,2022-09-08_14h08.22.145,CGTgamblingSpanTasks,2022.2.1,Win32,74.96251874,,,,,,,,,,,,,,,,,,,,,,,,,,,,,,,,,,,,,,,,,,,,,,,,,,,,,,,,,,,,,,,,,,,,,,,,,,,,,,,,,,"[6,3,4,8,1,5,7,9]",1,0,1,0,1,,,,,,,,,,,,,,,,,,,,,,,,,,,,,,,,,,,,,,,,,,,,,,,,
,,5a348ea750833c0001ee9550,2022-09-08_14h08.22.145,CGTgamblingSpanTasks,2022.2.1,Win32,74.96251874,,,,,,,,,,,,,,,,,,,,,,,,,,,,,,,,,,,,,,,,,,,,,,,,,,,,,,,,,,,,,,,,,,,,,,,,,,,,,,,,,,"[6,3,4,8,1,5,7,9]",2,0,2,0,1,,,,,,,,,,,,,,,,,,,,,,,,,,,,,,,,,,,,,,,,,,,,,,,,
,,5a348ea750833c0001ee9550,2022-09-08_14h08.22.145,CGTgamblingSpanTasks,2022.2.1,Win32,74.96251874,,,,,,,,,,,,,,,,,,,,,,,,,,,,,,,,,,,,,,,,,,,,,,,,,,,,,,,,,,,,,,,,,,,,,,,,,,,,,,,,,,"[6,3,4,8,1,5,7,9]",3,0,3,0,1,,,,,,,,,,,,,,,,,,,,,,,,,,,,,,,,,,,,,,,,,,,,,,,,
,,5a348ea750833c0001ee9550,2022-09-08_14h08.22.145,CGTgamblingSpanTasks,2022.2.1,Win32,74.96251874,,,,,,,,,,,,,,,,,,,,,,,,,,,,,,,,,,,,,,,,,,,,,,,,,,,,,,,,,,,,,,,,,,,,,,,,,,,,,,,,,,"[6,3,4,8,1,5,7,9]",4,0,4,0,1,,,,,,,,,,,,,,,,,,,,,,,,,,,,,,,,,,,,,,,,,,,,,,,,
,,5a348ea750833c0001ee9550,2022-09-08_14h08.22.145,CGTgamblingSpanTasks,2022.2.1,Win32,74.96251874,,,,,,,,,,,,,,,,,,,,,,,,,,,,,,,,,,,,,,,,,,,,,,,,,,,,,,,,,,,,,,,,,,,,,,,,,,,,,,,,,,"[6,3,4,8,1,5,7,9]",5,0,5,0,1,,,,,,,,,,,,,,,,,,,,,,,,,,,,,,,,,,,,,,,,,,,,,,,,
,,5a348ea750833c0001ee9550,2022-09-08_14h08.22.145,CGTgamblingSpanTasks,2022.2.1,Win32,74.96251874,,,,,,,,,,,,,,,,,,,,,,,,,,,,,,,,,,,,,,,,,,,,,,,,,,,,,,,,,,,,,,,,,,,,,,,,,,,,,,,,,,"[6,3,4,8,1,5,7,9]",6,0,6,0,1,,,,,,,,,,,,,,,,,,,,,,,,,,,,,,,,,,,,,,,,,,,,,,,,
,,5a348ea750833c0001ee9550,2022-09-08_14h08.22.145,CGTgamblingSpanTasks,2022.2.1,Win32,74.96251874,,,,,,,,,,,,,,,,,,,,,,,,,,,,,,,,,,,,,,,,,,,,,,,,,,,,,,,,,,,,,,,,,,,,,,,,,,,,,,,,,,"[6,3,4,8,1,5,7,9]",7,0,7,0,1,,,,,,,,,,,,,,,,,,,,,,,,,,,,,,,,,,,,,,,,,,,,,,,,
,,5a348ea750833c0001ee9550,2022-09-08_14h08.22.145,CGTgamblingSpanTasks,2022.2.1,Win32,74.96251874,,,,,,,,,,,,,,,,,,,,,,,,,,,,,,,,,,,,,,,,,,,,,,,,,,,,,,,,,,,,,,,0,,,,,,,,,,,,,,,,,,,,,,,,,1357689,-0.02037037,-0.393518519,1,0,0,cont_button,0,8,8,8,1,9,,,,,,,,,,,,,,,,,,,,,,,,,,,,,,,,,,,
,,5a348ea750833c0001ee9550,2022-09-08_14h08.22.145,CGTgamblingSpanTasks,2022.2.1,Win32,74.96251874,,,,,,,,,,,,,,,,,,,,,,,,,,,,,,,,,,,,,,,,,,,,,,,,,,,,,,,,,,,,,,,,,,,,,,,,,,,,,,,,,,"[4,2,1,8,9,7,5,3]",0,0,0,0,1,,,,,,,,,,,,,,,,,,,,,,,,,,,,,,,,,,,,,,,,,,,,,,,,
,,5a348ea750833c0001ee9550,2022-09-08_14h08.22.145,CGTgamblingSpanTasks,2022.2.1,Win32,74.96251874,,,,,,,,,,,,,,,,,,,,,,,,,,,,,,,,,,,,,,,,,,,,,,,,,,,,,,,,,,,,,,,,,,,,,,,,,,,,,,,,,,"[4,2,1,8,9,7,5,3]",1,0,1,0,1,,,,,,,,,,,,,,,,,,,,,,,,,,,,,,,,,,,,,,,,,,,,,,,,
,,5a348ea750833c0001ee9550,2022-09-08_14h08.22.145,CGTgamblingSpanTasks,2022.2.1,Win32,74.96251874,,,,,,,,,,,,,,,,,,,,,,,,,,,,,,,,,,,,,,,,,,,,,,,,,,,,,,,,,,,,,,,,,,,,,,,,,,,,,,,,,,"[4,2,1,8,9,7,5,3]",2,0,2,0,1,,,,,,,,,,,,,,,,,,,,,,,,,,,,,,,,,,,,,,,,,,,,,,,,
,,5a348ea750833c0001ee9550,2022-09-08_14h08.22.145,CGTgamblingSpanTasks,2022.2.1,Win32,74.96251874,,,,,,,,,,,,,,,,,,,,,,,,,,,,,,,,,,,,,,,,,,,,,,,,,,,,,,,,,,,,,,,,,,,,,,,,,,,,,,,,,,"[4,2,1,8,9,7,5,3]",3,0,3,0,1,,,,,,,,,,,,,,,,,,,,,,,,,,,,,,,,,,,,,,,,,,,,,,,,
,,5a348ea750833c0001ee9550,2022-09-08_14h08.22.145,CGTgamblingSpanTasks,2022.2.1,Win32,74.96251874,,,,,,,,,,,,,,,,,,,,,,,,,,,,,,,,,,,,,,,,,,,,,,,,,,,,,,,,,,,,,,,,,,,,,,,,,,,,,,,,,,"[4,2,1,8,9,7,5,3]",4,0,4,0,1,,,,,,,,,,,,,,,,,,,,,,,,,,,,,,,,,,,,,,,,,,,,,,,,
,,5a348ea750833c0001ee9550,2022-09-08_14h08.22.145,CGTgamblingSpanTasks,2022.2.1,Win32,74.96251874,,,,,,,,,,,,,,,,,,,,,,,,,,,,,,,,,,,,,,,,,,,,,,,,,,,,,,,,,,,,,,,,,,,,,,,,,,,,,,,,,,"[4,2,1,8,9,7,5,3]",5,0,5,0,1,,,,,,,,,,,,,,,,,,,,,,,,,,,,,,,,,,,,,,,,,,,,,,,,
,,5a348ea750833c0001ee9550,2022-09-08_14h08.22.145,CGTgamblingSpanTasks,2022.2.1,Win32,74.96251874,,,,,,,,,,,,,,,,,,,,,,,,,,,,,,,,,,,,,,,,,,,,,,,,,,,,,,,,,,,,,,,,,,,,,,,,,,,,,,,,,,"[4,2,1,8,9,7,5,3]",6,0,6,0,1,,,,,,,,,,,,,,,,,,,,,,,,,,,,,,,,,,,,,,,,,,,,,,,,
,,5a348ea750833c0001ee9550,2022-09-08_14h08.22.145,CGTgamblingSpanTasks,2022.2.1,Win32,74.96251874,,,,,,,,,,,,,,,,,,,,,,,,,,,,,,,,,,,,,,,,,,,,,,,,,,,,,,,,,,,,,,,,,,,,,,,,,,,,,,,,,,"[4,2,1,8,9,7,5,3]",7,0,7,0,1,,,,,,,,,,,,,,,,,,,,,,,,,,,,,,,,,,,,,,,,,,,,,,,,
,,5a348ea750833c0001ee9550,2022-09-08_14h08.22.145,CGTgamblingSpanTasks,2022.2.1,Win32,74.96251874,,,,,,,,,,,,,,,,,,,,,,,,,,,,,,,,,,,,,,,,,,,,,,,,,,,,,,,,,,,,,,,0,,,,,,,,,,,,,,,,,,,,,,,,,2597853,-0.017592593,-0.402777778,1,0,0,cont_button,0,9,9,9,1,10,,,,,,,,,,,,,,,,,,,,,,,,,,,,,,,,,,,
,,5a348ea750833c0001ee9550,2022-09-08_14h08.22.145,CGTgamblingSpanTasks,2022.2.1,Win32,74.96251874,,,,,,,,,,,,,,,,,,,,,,,,,,,,,,,,,,,,,,,,,,,,,,,,,,,,,,,,,,,,,,,,,,,,,,,,,,,,,,,,,,"[1,3,8,9,4,2,6]",0,0,0,0,1,,,,,,,,,,,,,,,,,,,,,,,,,,,,,,,,,,,,,,,,,,,,,,,,
,,5a348ea750833c0001ee9550,2022-09-08_14h08.22.145,CGTgamblingSpanTasks,2022.2.1,Win32,74.96251874,,,,,,,,,,,,,,,,,,,,,,,,,,,,,,,,,,,,,,,,,,,,,,,,,,,,,,,,,,,,,,,,,,,,,,,,,,,,,,,,,,"[1,3,8,9,4,2,6]",1,0,1,0,1,,,,,,,,,,,,,,,,,,,,,,,,,,,,,,,,,,,,,,,,,,,,,,,,
,,5a348ea750833c0001ee9550,2022-09-08_14h08.22.145,CGTgamblingSpanTasks,2022.2.1,Win32,74.96251874,,,,,,,,,,,,,,,,,,,,,,,,,,,,,,,,,,,,,,,,,,,,,,,,,,,,,,,,,,,,,,,,,,,,,,,,,,,,,,,,,,"[1,3,8,9,4,2,6]",2,0,2,0,1,,,,,,,,,,,,,,,,,,,,,,,,,,,,,,,,,,,,,,,,,,,,,,,,
,,5a348ea750833c0001ee9550,2022-09-08_14h08.22.145,CGTgamblingSpanTasks,2022.2.1,Win32,74.96251874,,,,,,,,,,,,,,,,,,,,,,,,,,,,,,,,,,,,,,,,,,,,,,,,,,,,,,,,,,,,,,,,,,,,,,,,,,,,,,,,,,"[1,3,8,9,4,2,6]",3,0,3,0,1,,,,,,,,,,,,,,,,,,,,,,,,,,,,,,,,,,,,,,,,,,,,,,,,
,,5a348ea750833c0001ee9550,2022-09-08_14h08.22.145,CGTgamblingSpanTasks,2022.2.1,Win32,74.96251874,,,,,,,,,,,,,,,,,,,,,,,,,,,,,,,,,,,,,,,,,,,,,,,,,,,,,,,,,,,,,,,,,,,,,,,,,,,,,,,,,,"[1,3,8,9,4,2,6]",4,0,4,0,1,,,,,,,,,,,,,,,,,,,,,,,,,,,,,,,,,,,,,,,,,,,,,,,,
,,5a348ea750833c0001ee9550,2022-09-08_14h08.22.145,CGTgamblingSpanTasks,2022.2.1,Win32,74.96251874,,,,,,,,,,,,,,,,,,,,,,,,,,,,,,,,,,,,,,,,,,,,,,,,,,,,,,,,,,,,,,,,,,,,,,,,,,,,,,,,,,"[1,3,8,9,4,2,6]",5,0,5,0,1,,,,,,,,,,,,,,,,,,,,,,,,,,,,,,,,,,,,,,,,,,,,,,,,
,,5a348ea750833c0001ee9550,2022-09-08_14h08.22.145,CGTgamblingSpanTasks,2022.2.1,Win32,74.96251874,,,,,,,,,,,,,,,,,,,,,,,,,,,,,,,,,,,,,,,,,,,,,,,,,,,,,,,,,,,,,,,,,,,,,,,,,,,,,,,,,,"[1,3,8,9,4,2,6]",6,0,6,0,1,,,,,,,,,,,,,,,,,,,,,,,,,,,,,,,,,,,,,,,,,,,,,,,,
,,5a348ea750833c0001ee9550,2022-09-08_14h08.22.145,CGTgamblingSpanTasks,2022.2.1,Win32,74.96251874,,,,,,,,,,,,,,,,,,,,,,,,,,,,,,,,,,,,,,,,,,,,,,,,,,,,,,,,,,,,,,,0,,,,,,,,,,,,,,,,,,,,,,,,,1384926,-0.016666667,-0.388888889,1,0,0,cont_button,0,10,10,10,1,11,,,,,,,,,,,,,,,,,,,,,,,,,,,,,,,,,,,
,,5a348ea750833c0001ee9550,2022-09-08_14h08.22.145,CGTgamblingSpanTasks,2022.2.1,Win32,74.96251874,,,,,,,,,,,,,,,,,,,,,,,,,,,,,,,,,,,,,,,,,,,,,,,,,,,,,,,,,,,,,,,,,,,,,,,,,,,,,,,,,,"[7,6,2,4,3,1,8]",0,0,0,0,1,,,,,,,,,,,,,,,,,,,,,,,,,,,,,,,,,,,,,,,,,,,,,,,,
,,5a348ea750833c0001ee9550,2022-09-08_14h08.22.145,CGTgamblingSpanTasks,2022.2.1,Win32,74.96251874,,,,,,,,,,,,,,,,,,,,,,,,,,,,,,,,,,,,,,,,,,,,,,,,,,,,,,,,,,,,,,,,,,,,,,,,,,,,,,,,,,"[7,6,2,4,3,1,8]",1,0,1,0,1,,,,,,,,,,,,,,,,,,,,,,,,,,,,,,,,,,,,,,,,,,,,,,,,
,,5a348ea750833c0001ee9550,2022-09-08_14h08.22.145,CGTgamblingSpanTasks,2022.2.1,Win32,74.96251874,,,,,,,,,,,,,,,,,,,,,,,,,,,,,,,,,,,,,,,,,,,,,,,,,,,,,,,,,,,,,,,,,,,,,,,,,,,,,,,,,,"[7,6,2,4,3,1,8]",2,0,2,0,1,,,,,,,,,,,,,,,,,,,,,,,,,,,,,,,,,,,,,,,,,,,,,,,,
,,5a348ea750833c0001ee9550,2022-09-08_14h08.22.145,CGTgamblingSpanTasks,2022.2.1,Win32,74.96251874,,,,,,,,,,,,,,,,,,,,,,,,,,,,,,,,,,,,,,,,,,,,,,,,,,,,,,,,,,,,,,,,,,,,,,,,,,,,,,,,,,"[7,6,2,4,3,1,8]",3,0,3,0,1,,,,,,,,,,,,,,,,,,,,,,,,,,,,,,,,,,,,,,,,,,,,,,,,
,,5a348ea750833c0001ee9550,2022-09-08_14h08.22.145,CGTgamblingSpanTasks,2022.2.1,Win32,74.96251874,,,,,,,,,,,,,,,,,,,,,,,,,,,,,,,,,,,,,,,,,,,,,,,,,,,,,,,,,,,,,,,,,,,,,,,,,,,,,,,,,,"[7,6,2,4,3,1,8]",4,0,4,0,1,,,,,,,,,,,,,,,,,,,,,,,,,,,,,,,,,,,,,,,,,,,,,,,,
,,5a348ea750833c0001ee9550,2022-09-08_14h08.22.145,CGTgamblingSpanTasks,2022.2.1,Win32,74.96251874,,,,,,,,,,,,,,,,,,,,,,,,,,,,,,,,,,,,,,,,,,,,,,,,,,,,,,,,,,,,,,,,,,,,,,,,,,,,,,,,,,"[7,6,2,4,3,1,8]",5,0,5,0,1,,,,,,,,,,,,,,,,,,,,,,,,,,,,,,,,,,,,,,,,,,,,,,,,
,,5a348ea750833c0001ee9550,2022-09-08_14h08.22.145,CGTgamblingSpanTasks,2022.2.1,Win32,74.96251874,,,,,,,,,,,,,,,,,,,,,,,,,,,,,,,,,,,,,,,,,,,,,,,,,,,,,,,,,,,,,,,,,,,,,,,,,,,,,,,,,,"[7,6,2,4,3,1,8]",6,0,6,0,1,,,,,,,,,,,,,,,,,,,,,,,,,,,,,,,,,,,,,,,,,,,,,,,,
,,5a348ea750833c0001ee9550,2022-09-08_14h08.22.145,CGTgamblingSpanTasks,2022.2.1,Win32,74.96251874,,,,,,,,,,,,,,,,,,,,,,,,,,,,,,,,,,,,,,,,,,,,,,,,,,,,,,,,,,,,,,,0,,,,,,,,,,,,,,,,,,,,,,,,,7632418,0.006481481,-0.396296296,1,0,0,cont_button,0,11,11,11,1,12,,,,,,,,,,,,,,,,,,,,,,,,,,,,,,,,,,,
,,5a348ea750833c0001ee9550,2022-09-08_14h08.22.145,CGTgamblingSpanTasks,2022.2.1,Win32,74.96251874,,,,,,,,,,,,,,,,,,,,,,,,,,,,,,,,,,,,,,,,,,,,,,,,,,,,,,,,,,,,,,,,,,,,,,,,,,,,,,,,,,"[2,5,8,1,3,9]",0,0,0,0,1,,,,,,,,,,,,,,,,,,,,,,,,,,,,,,,,,,,,,,,,,,,,,,,,
,,5a348ea750833c0001ee9550,2022-09-08_14h08.22.145,CGTgamblingSpanTasks,2022.2.1,Win32,74.96251874,,,,,,,,,,,,,,,,,,,,,,,,,,,,,,,,,,,,,,,,,,,,,,,,,,,,,,,,,,,,,,,,,,,,,,,,,,,,,,,,,,"[2,5,8,1,3,9]",1,0,1,0,1,,,,,,,,,,,,,,,,,,,,,,,,,,,,,,,,,,,,,,,,,,,,,,,,
,,5a348ea750833c0001ee9550,2022-09-08_14h08.22.145,CGTgamblingSpanTasks,2022.2.1,Win32,74.96251874,,,,,,,,,,,,,,,,,,,,,,,,,,,,,,,,,,,,,,,,,,,,,,,,,,,,,,,,,,,,,,,,,,,,,,,,,,,,,,,,,,"[2,5,8,1,3,9]",2,0,2,0,1,,,,,,,,,,,,,,,,,,,,,,,,,,,,,,,,,,,,,,,,,,,,,,,,
,,5a348ea750833c0001ee9550,2022-09-08_14h08.22.145,CGTgamblingSpanTasks,2022.2.1,Win32,74.96251874,,,,,,,,,,,,,,,,,,,,,,,,,,,,,,,,,,,,,,,,,,,,,,,,,,,,,,,,,,,,,,,,,,,,,,,,,,,,,,,,,,"[2,5,8,1,3,9]",3,0,3,0,1,,,,,,,,,,,,,,,,,,,,,,,,,,,,,,,,,,,,,,,,,,,,,,,,
,,5a348ea750833c0001ee9550,2022-09-08_14h08.22.145,CGTgamblingSpanTasks,2022.2.1,Win32,74.96251874,,,,,,,,,,,,,,,,,,,,,,,,,,,,,,,,,,,,,,,,,,,,,,,,,,,,,,,,,,,,,,,,,,,,,,,,,,,,,,,,,,"[2,5,8,1,3,9]",4,0,4,0,1,,,,,,,,,,,,,,,,,,,,,,,,,,,,,,,,,,,,,,,,,,,,,,,,
,,5a348ea750833c0001ee9550,2022-09-08_14h08.22.145,CGTgamblingSpanTasks,2022.2.1,Win32,74.96251874,,,,,,,,,,,,,,,,,,,,,,,,,,,,,,,,,,,,,,,,,,,,,,,,,,,,,,,,,,,,,,,,,,,,,,,,,,,,,,,,,,"[2,5,8,1,3,9]",5,0,5,0,1,,,,,,,,,,,,,,,,,,,,,,,,,,,,,,,,,,,,,,,,,,,,,,,,
,,5a348ea750833c0001ee9550,2022-09-08_14h08.22.145,CGTgamblingSpanTasks,2022.2.1,Win32,74.96251874,,,,,,,,,,,,,,,,,,,,,,,,,,,,,,,,,,,,,,,,,,,,,,,,,,,,,,,,,,,,,,,0,,,,,,,,,,,,,,,,,,,,,,,,,215389,0.007407407,-0.394444444,1,0,0,cont_button,0,12,12,12,1,13,,,,,,,,,,,,,,,,,,,,,,,,,,,,,,,,,,,
,,5a348ea750833c0001ee9550,2022-09-08_14h08.22.145,CGTgamblingSpanTasks,2022.2.1,Win32,74.96251874,,,,,,,,,,,,,,,,,,,,,,,,,,,,,,,,,,,,,,,,,,,,,,,,,,,,,,,,,,,,,,,,,,,,,,,,,,,,,,,,,,"[1,6,9,8,4,2]",0,0,0,0,1,,,,,,,,,,,,,,,,,,,,,,,,,,,,,,,,,,,,,,,,,,,,,,,,
,,5a348ea750833c0001ee9550,2022-09-08_14h08.22.145,CGTgamblingSpanTasks,2022.2.1,Win32,74.96251874,,,,,,,,,,,,,,,,,,,,,,,,,,,,,,,,,,,,,,,,,,,,,,,,,,,,,,,,,,,,,,,,,,,,,,,,,,,,,,,,,,"[1,6,9,8,4,2]",1,0,1,0,1,,,,,,,,,,,,,,,,,,,,,,,,,,,,,,,,,,,,,,,,,,,,,,,,
,,5a348ea750833c0001ee9550,2022-09-08_14h08.22.145,CGTgamblingSpanTasks,2022.2.1,Win32,74.96251874,,,,,,,,,,,,,,,,,,,,,,,,,,,,,,,,,,,,,,,,,,,,,,,,,,,,,,,,,,,,,,,,,,,,,,,,,,,,,,,,,,"[1,6,9,8,4,2]",2,0,2,0,1,,,,,,,,,,,,,,,,,,,,,,,,,,,,,,,,,,,,,,,,,,,,,,,,
,,5a348ea750833c0001ee9550,2022-09-08_14h08.22.145,CGTgamblingSpanTasks,2022.2.1,Win32,74.96251874,,,,,,,,,,,,,,,,,,,,,,,,,,,,,,,,,,,,,,,,,,,,,,,,,,,,,,,,,,,,,,,,,,,,,,,,,,,,,,,,,,"[1,6,9,8,4,2]",3,0,3,0,1,,,,,,,,,,,,,,,,,,,,,,,,,,,,,,,,,,,,,,,,,,,,,,,,
,,5a348ea750833c0001ee9550,2022-09-08_14h08.22.145,CGTgamblingSpanTasks,2022.2.1,Win32,74.96251874,,,,,,,,,,,,,,,,,,,,,,,,,,,,,,,,,,,,,,,,,,,,,,,,,,,,,,,,,,,,,,,,,,,,,,,,,,,,,,,,,,"[1,6,9,8,4,2]",4,0,4,0,1,,,,,,,,,,,,,,,,,,,,,,,,,,,,,,,,,,,,,,,,,,,,,,,,
,,5a348ea750833c0001ee9550,2022-09-08_14h08.22.145,CGTgamblingSpanTasks,2022.2.1,Win32,74.96251874,,,,,,,,,,,,,,,,,,,,,,,,,,,,,,,,,,,,,,,,,,,,,,,,,,,,,,,,,,,,,,,,,,,,,,,,,,,,,,,,,,"[1,6,9,8,4,2]",5,0,5,0,1,,,,,,,,,,,,,,,,,,,,,,,,,,,,,,,,,,,,,,,,,,,,,,,,
,,5a348ea750833c0001ee9550,2022-09-08_14h08.22.145,CGTgamblingSpanTasks,2022.2.1,Win32,74.96251874,,,,,,,,,,,,,,,,,,,,,,,,,,,,,,,,,,,,,,,,,,,,,,,,,,,,,,,,,,,,,,,0,,,,,,,,,,,,,,,,,,,,,,,,,1695842,0.007407407,-0.394444444,1,0,0,cont_button,0,13,13,13,1,14,,,,,,,,,,,,,,,,,,,,,,,,,,,,,,,,,,,
,,5a348ea750833c0001ee9550,2022-09-08_14h08.22.145,CGTgamblingSpanTasks,2022.2.1,Win32,74.96251874,,,,,,,,,,,,,,,,,,,,,,,,,,,,,,,,,,,,,,,,,,,,,,,,,,,,,,,,,,,,,,,,,,,,,,,,,,,,,,,,,,,,,,,,,,,,,,,,,,,,,return,2.131,,,,,,,,,,,,,,,,,,,,,,,,,,,,,,,,,
,,5a348ea750833c0001ee9550,2022-09-08_14h08.22.145,CGTgamblingSpanTasks,2022.2.1,Win32,74.96251874,,,,,,,,,,,,,,,,,,,,,,,,,,,,,,,,,,,,,,,,,,,,,,,,,,,,,,,,,,,,,,,,,,,,,,,,,,,,,,,,,,,,,,,,,,,,,,,,,,,,,,,return,8.638,,,,,,,,,,,,,,,,,,,,,,,,,,,,,,,
,,5a348ea750833c0001ee9550,2022-09-08_14h08.22.145,CGTgamblingSpanTasks,2022.2.1,Win32,74.96251874,,,,,,,,,,,,,,,,,,,,,,,,,,,,,,,,,,,,,,,,,,,,,,,,,,,,,,,,,,,,,,,1,,,,,,,,,,,,3,342,24,2,42,,,,,,,,,,,,,,,,,,,,,,,,,,42,0.007407407,-0.394444444,1,0,0,cont_buttonPractice_2,0,0,0,0,1,,,,,,,,,,,,,,,,,,,
,,5a348ea750833c0001ee9550,2022-09-08_14h08.22.145,CGTgamblingSpanTasks,2022.2.1,Win32,74.96251874,,,,,,,,,,,,,,,,,,,,,,,,,,,,,,,,,,,,,,,,,,,,,,,,,,,,,,,,,,,,,,,1,,,,,,,,,,,,3,937,73,2,37,,,,,,,,,,,,,,,,,,,,,,,,,,37,0.007407407,-0.394444444,1,0,0,cont_buttonPractice_2,0,1,1,1,1,,,,,,,,,,,,,,,,,,,
,,5a348ea750833c0001ee9550,2022-09-08_14h08.22.145,CGTgamblingSpanTasks,2022.2.1,Win32,74.96251874,,,,,,,,,,,,,,,,,,,,,,,,,,,,,,,,,,,,,,,,,,,,,,,,,,,,,,,,,,,,,,,,,,,,,,,,,,,,,,,,,,,,,,,,,,,,,,,,,,,,,,,,,,,,,,,,,,,,,return,5.438,,,,,,,,,,,,,,,,,
,,5a348ea750833c0001ee9550,2022-09-08_14h08.22.145,CGTgamblingSpanTasks,2022.2.1,Win32,74.96251874,,,,,,,,,,,,,,,,,,,,,,,,,,,,,,,,,,,,,,,,,,,,,,,,,,,,,,,,,,,,,,,,,,,,,,,,,,,,,,,,,,"[6,9]",,,,,,,,,,,,,,,,,,,,,,,,,,,,,,,,,,,,,0,0,0,0,1,,,,,,,,,,,,
,,5a348ea750833c0001ee9550,2022-09-08_14h08.22.145,CGTgamblingSpanTasks,2022.2.1,Win32,74.96251874,,,,,,,,,,,,,,,,,,,,,,,,,,,,,,,,,,,,,,,,,,,,,,,,,,,,,,,,,,,,,,,,,,,,,,,,,,,,,,,,,,"[6,9]",,,,,,,,,,,,,,,,,,,,,,,,,,,,,,,,,,,,,1,0,1,0,1,,,,,,,,,,,,
,,5a348ea750833c0001ee9550,2022-09-08_14h08.22.145,CGTgamblingSpanTasks,2022.2.1,Win32,74.96251874,,,,,,,,,,,,,,,,,,,,,,,,,,,,,,,,,,,,,,,,,,,,,,,,,,,,,,,,,,,,,,,1,,,,,,,,,,,,,,,,,,,,,,,,,,,,,,,,,,,,,1,,,,,,,,,,,,,,,,,,,,,,,,96,0.007407407,-0.394444444,1,0,0,cont_buttonBS,0,0,0,0,1
,,5a348ea750833c0001ee9550,2022-09-08_14h08.22.145,CGTgamblingSpanTasks,2022.2.1,Win32,74.96251874,,,,,,,,,,,,,,,,,,,,,,,,,,,,,,,,,,,,,,,,,,,,,,,,,,,,,,,,,,,,,,,,,,,,,,,,,,,,,,,,,,"[4,3,1]",,,,,,,,,,,,,,,,,,,,,,,,,,,,,,,,,,,,,0,0,0,0,1,,,,,,,,,,,,
,,5a348ea750833c0001ee9550,2022-09-08_14h08.22.145,CGTgamblingSpanTasks,2022.2.1,Win32,74.96251874,,,,,,,,,,,,,,,,,,,,,,,,,,,,,,,,,,,,,,,,,,,,,,,,,,,,,,,,,,,,,,,,,,,,,,,,,,,,,,,,,,"[4,3,1]",,,,,,,,,,,,,,,,,,,,,,,,,,,,,,,,,,,,,1,0,1,0,1,,,,,,,,,,,,
,,5a348ea750833c0001ee9550,2022-09-08_14h08.22.145,CGTgamblingSpanTasks,2022.2.1,Win32,74.96251874,,,,,,,,,,,,,,,,,,,,,,,,,,,,,,,,,,,,,,,,,,,,,,,,,,,,,,,,,,,,,,,,,,,,,,,,,,,,,,,,,,"[4,3,1]",,,,,,,,,,,,,,,,,,,,,,,,,,,,,,,,,,,,,2,0,2,0,1,,,,,,,,,,,,
,,5a348ea750833c0001ee9550,2022-09-08_14h08.22.145,CGTgamblingSpanTasks,2022.2.1,Win32,74.96251874,,,,,,,,,,,,,,,,,,,,,,,,,,,,,,,,,,,,,,,,,,,,,,,,,,,,,,,,,,,,,,,1,,,,,,,,,,,,,,,,,,,,,,,,,,,,,,,,,,,,,2,,,,,,,,,,,,,,,,,,,,,,,,134,0.009259259,-0.396296296,1,0,0,cont_buttonBS,0,1,1,1,1
,,5a348ea750833c0001ee9550,2022-09-08_14h08.22.145,CGTgamblingSpanTasks,2022.2.1,Win32,74.96251874,,,,,,,,,,,,,,,,,,,,,,,,,,,,,,,,,,,,,,,,,,,,,,,,,,,,,,,,,,,,,,,,,,,,,,,,,,,,,,,,,,"[9,2,1,5]",,,,,,,,,,,,,,,,,,,,,,,,,,,,,,,,,,,,,0,0,0,0,1,,,,,,,,,,,,
,,5a348ea750833c0001ee9550,2022-09-08_14h08.22.145,CGTgamblingSpanTasks,2022.2.1,Win32,74.96251874,,,,,,,,,,,,,,,,,,,,,,,,,,,,,,,,,,,,,,,,,,,,,,,,,,,,,,,,,,,,,,,,,,,,,,,,,,,,,,,,,,"[9,2,1,5]",,,,,,,,,,,,,,,,,,,,,,,,,,,,,,,,,,,,,1,0,1,0,1,,,,,,,,,,,,
,,5a348ea750833c0001ee9550,2022-09-08_14h08.22.145,CGTgamblingSpanTasks,2022.2.1,Win32,74.96251874,,,,,,,,,,,,,,,,,,,,,,,,,,,,,,,,,,,,,,,,,,,,,,,,,,,,,,,,,,,,,,,,,,,,,,,,,,,,,,,,,,"[9,2,1,5]",,,,,,,,,,,,,,,,,,,,,,,,,,,,,,,,,,,,,2,0,2,0,1,,,,,,,,,,,,
,,5a348ea750833c0001ee9550,2022-09-08_14h08.22.145,CGTgamblingSpanTasks,2022.2.1,Win32,74.96251874,,,,,,,,,,,,,,,,,,,,,,,,,,,,,,,,,,,,,,,,,,,,,,,,,,,,,,,,,,,,,,,,,,,,,,,,,,,,,,,,,,"[9,2,1,5]",,,,,,,,,,,,,,,,,,,,,,,,,,,,,,,,,,,,,3,0,3,0,1,,,,,,,,,,,,
,,5a348ea750833c0001ee9550,2022-09-08_14h08.22.145,CGTgamblingSpanTasks,2022.2.1,Win32,74.96251874,,,,,,,,,,,,,,,,,,,,,,,,,,,,,,,,,,,,,,,,,,,,,,,,,,,,,,,,,,,,,,,1,,,,,,,,,,,,,,,,,,,,,,,,,,,,,,,,,,,,,3,,,,,,,,,,,,,,,,,,,,,,,,5129,0.009259259,-0.396296296,1,0,0,cont_buttonBS,0,2,2,2,1
,,5a348ea750833c0001ee9550,2022-09-08_14h08.22.145,CGTgamblingSpanTasks,2022.2.1,Win32,74.96251874,,,,,,,,,,,,,,,,,,,,,,,,,,,,,,,,,,,,,,,,,,,,,,,,,,,,,,,,,,,,,,,,,,,,,,,,,,,,,,,,,,"[2,5,3,1,8]",,,,,,,,,,,,,,,,,,,,,,,,,,,,,,,,,,,,,0,0,0,0,1,,,,,,,,,,,,
,,5a348ea750833c0001ee9550,2022-09-08_14h08.22.145,CGTgamblingSpanTasks,2022.2.1,Win32,74.96251874,,,,,,,,,,,,,,,,,,,,,,,,,,,,,,,,,,,,,,,,,,,,,,,,,,,,,,,,,,,,,,,,,,,,,,,,,,,,,,,,,,"[2,5,3,1,8]",,,,,,,,,,,,,,,,,,,,,,,,,,,,,,,,,,,,,1,0,1,0,1,,,,,,,,,,,,
,,5a348ea750833c0001ee9550,2022-09-08_14h08.22.145,CGTgamblingSpanTasks,2022.2.1,Win32,74.96251874,,,,,,,,,,,,,,,,,,,,,,,,,,,,,,,,,,,,,,,,,,,,,,,,,,,,,,,,,,,,,,,,,,,,,,,,,,,,,,,,,,"[2,5,3,1,8]",,,,,,,,,,,,,,,,,,,,,,,,,,,,,,,,,,,,,2,0,2,0,1,,,,,,,,,,,,
,,5a348ea750833c0001ee9550,2022-09-08_14h08.22.145,CGTgamblingSpanTasks,2022.2.1,Win32,74.96251874,,,,,,,,,,,,,,,,,,,,,,,,,,,,,,,,,,,,,,,,,,,,,,,,,,,,,,,,,,,,,,,,,,,,,,,,,,,,,,,,,,"[2,5,3,1,8]",,,,,,,,,,,,,,,,,,,,,,,,,,,,,,,,,,,,,3,0,3,0,1,,,,,,,,,,,,
,,5a348ea750833c0001ee9550,2022-09-08_14h08.22.145,CGTgamblingSpanTasks,2022.2.1,Win32,74.96251874,,,,,,,,,,,,,,,,,,,,,,,,,,,,,,,,,,,,,,,,,,,,,,,,,,,,,,,,,,,,,,,,,,,,,,,,,,,,,,,,,,"[2,5,3,1,8]",,,,,,,,,,,,,,,,,,,,,,,,,,,,,,,,,,,,,4,0,4,0,1,,,,,,,,,,,,
,,5a348ea750833c0001ee9550,2022-09-08_14h08.22.145,CGTgamblingSpanTasks,2022.2.1,Win32,74.96251874,,,,,,,,,,,,,,,,,,,,,,,,,,,,,,,,,,,,,,,,,,,,,,,,,,,,,,,,,,,,,,,0,,,,,,,,,,,,,,,,,,,,,,,,,,,,,,,,,,,,,4,,,,,,,,,,,,,,,,,,,,,,,,8215,0.009259259,-0.396296296,1,0,0,cont_buttonBS,0,3,3,3,1
,,5a348ea750833c0001ee9550,2022-09-08_14h08.22.145,CGTgamblingSpanTasks,2022.2.1,Win32,74.96251874,,,,,,,,,,,,,,,,,,,,,,,,,,,,,,,,,,,,,,,,,,,,,,,,,,,,,,,,,,,,,,,,,,,,,,,,,,,,,,,,,,"[2,4,7,9,1]",,,,,,,,,,,,,,,,,,,,,,,,,,,,,,,,,,,,,0,0,0,0,1,,,,,,,,,,,,
,,5a348ea750833c0001ee9550,2022-09-08_14h08.22.145,CGTgamblingSpanTasks,2022.2.1,Win32,74.96251874,,,,,,,,,,,,,,,,,,,,,,,,,,,,,,,,,,,,,,,,,,,,,,,,,,,,,,,,,,,,,,,,,,,,,,,,,,,,,,,,,,"[2,4,7,9,1]",,,,,,,,,,,,,,,,,,,,,,,,,,,,,,,,,,,,,1,0,1,0,1,,,,,,,,,,,,
,,5a348ea750833c0001ee9550,2022-09-08_14h08.22.145,CGTgamblingSpanTasks,2022.2.1,Win32,74.96251874,,,,,,,,,,,,,,,,,,,,,,,,,,,,,,,,,,,,,,,,,,,,,,,,,,,,,,,,,,,,,,,,,,,,,,,,,,,,,,,,,,"[2,4,7,9,1]",,,,,,,,,,,,,,,,,,,,,,,,,,,,,,,,,,,,,2,0,2,0,1,,,,,,,,,,,,
,,5a348ea750833c0001ee9550,2022-09-08_14h08.22.145,CGTgamblingSpanTasks,2022.2.1,Win32,74.96251874,,,,,,,,,,,,,,,,,,,,,,,,,,,,,,,,,,,,,,,,,,,,,,,,,,,,,,,,,,,,,,,,,,,,,,,,,,,,,,,,,,"[2,4,7,9,1]",,,,,,,,,,,,,,,,,,,,,,,,,,,,,,,,,,,,,3,0,3,0,1,,,,,,,,,,,,
,,5a348ea750833c0001ee9550,2022-09-08_14h08.22.145,CGTgamblingSpanTasks,2022.2.1,Win32,74.96251874,,,,,,,,,,,,,,,,,,,,,,,,,,,,,,,,,,,,,,,,,,,,,,,,,,,,,,,,,,,,,,,,,,,,,,,,,,,,,,,,,,"[2,4,7,9,1]",,,,,,,,,,,,,,,,,,,,,,,,,,,,,,,,,,,,,4,0,4,0,1,,,,,,,,,,,,
,,5a348ea750833c0001ee9550,2022-09-08_14h08.22.145,CGTgamblingSpanTasks,2022.2.1,Win32,74.96251874,,,,,,,,,,,,,,,,,,,,,,,,,,,,,,,,,,,,,,,,,,,,,,,,,,,,,,,,,,,,,,,0,,,,,,,,,,,,,,,,,,,,,,,,,,,,,,,,,,,,,5,,,,,,,,,,,,,,,,,,,,,,,,19524,0.009259259,-0.396296296,1,0,0,cont_buttonBS,0,4,4,4,1
,,5a348ea750833c0001ee9550,2022-09-08_14h08.22.145,CGTgamblingSpanTasks,2022.2.1,Win32,74.96251874,,,,,,,,,,,,,,,,,,,,,,,,,,,,,,,,,,,,,,,,,,,,,,,,,,,,,,,,,,,,,,,,,,,,,,,,,,,,,,,,,,"[8,4,7,6]",,,,,,,,,,,,,,,,,,,,,,,,,,,,,,,,,,,,,0,0,0,0,1,,,,,,,,,,,,
,,5a348ea750833c0001ee9550,2022-09-08_14h08.22.145,CGTgamblingSpanTasks,2022.2.1,Win32,74.96251874,,,,,,,,,,,,,,,,,,,,,,,,,,,,,,,,,,,,,,,,,,,,,,,,,,,,,,,,,,,,,,,,,,,,,,,,,,,,,,,,,,"[8,4,7,6]",,,,,,,,,,,,,,,,,,,,,,,,,,,,,,,,,,,,,1,0,1,0,1,,,,,,,,,,,,
,,5a348ea750833c0001ee9550,2022-09-08_14h08.22.145,CGTgamblingSpanTasks,2022.2.1,Win32,74.96251874,,,,,,,,,,,,,,,,,,,,,,,,,,,,,,,,,,,,,,,,,,,,,,,,,,,,,,,,,,,,,,,,,,,,,,,,,,,,,,,,,,"[8,4,7,6]",,,,,,,,,,,,,,,,,,,,,,,,,,,,,,,,,,,,,2,0,2,0,1,,,,,,,,,,,,
,,5a348ea750833c0001ee9550,2022-09-08_14h08.22.145,CGTgamblingSpanTasks,2022.2.1,Win32,74.96251874,,,,,,,,,,,,,,,,,,,,,,,,,,,,,,,,,,,,,,,,,,,,,,,,,,,,,,,,,,,,,,,,,,,,,,,,,,,,,,,,,,"[8,4,7,6]",,,,,,,,,,,,,,,,,,,,,,,,,,,,,,,,,,,,,3,0,3,0,1,,,,,,,,,,,,
,,5a348ea750833c0001ee9550,2022-09-08_14h08.22.145,CGTgamblingSpanTasks,2022.2.1,Win32,74.96251874,,,,,,,,,,,,,,,,,,,,,,,,,,,,,,,,,,,,,,,,,,,,,,,,,,,,,,,,,,,,,,,0,,,,,,,,,,,,,,,,,,,,,,,,,,,,,,,,,,,,,6,,,,,,,,,,,,,,,,,,,,,,,,9874,0.005555556,-0.40462963,1,0,0,cont_buttonBS,0,5,5,5,1
,,5a348ea750833c0001ee9550,2022-09-08_14h08.22.145,CGTgamblingSpanTasks,2022.2.1,Win32,74.96251874,,,,,,,,,,,,,,,,,,,,,,,,,,,,,,,,,,,,,,,,,,,,,,,,,,,,,,,,,,,,,,,,,,,,,,,,,,,,,,,,,,"[1,2,4,3]",,,,,,,,,,,,,,,,,,,,,,,,,,,,,,,,,,,,,0,0,0,0,1,,,,,,,,,,,,
,,5a348ea750833c0001ee9550,2022-09-08_14h08.22.145,CGTgamblingSpanTasks,2022.2.1,Win32,74.96251874,,,,,,,,,,,,,,,,,,,,,,,,,,,,,,,,,,,,,,,,,,,,,,,,,,,,,,,,,,,,,,,,,,,,,,,,,,,,,,,,,,"[1,2,4,3]",,,,,,,,,,,,,,,,,,,,,,,,,,,,,,,,,,,,,1,0,1,0,1,,,,,,,,,,,,
,,5a348ea750833c0001ee9550,2022-09-08_14h08.22.145,CGTgamblingSpanTasks,2022.2.1,Win32,74.96251874,,,,,,,,,,,,,,,,,,,,,,,,,,,,,,,,,,,,,,,,,,,,,,,,,,,,,,,,,,,,,,,,,,,,,,,,,,,,,,,,,,"[1,2,4,3]",,,,,,,,,,,,,,,,,,,,,,,,,,,,,,,,,,,,,2,0,2,0,1,,,,,,,,,,,,
,,5a348ea750833c0001ee9550,2022-09-08_14h08.22.145,CGTgamblingSpanTasks,2022.2.1,Win32,74.96251874,,,,,,,,,,,,,,,,,,,,,,,,,,,,,,,,,,,,,,,,,,,,,,,,,,,,,,,,,,,,,,,,,,,,,,,,,,,,,,,,,,"[1,2,4,3]",,,,,,,,,,,,,,,,,,,,,,,,,,,,,,,,,,,,,3,0,3,0,1,,,,,,,,,,,,
,,5a348ea750833c0001ee9550,2022-09-08_14h08.22.145,CGTgamblingSpanTasks,2022.2.1,Win32,74.96251874,,,,,,,,,,,,,,,,,,,,,,,,,,,,,,,,,,,,,,,,,,,,,,,,,,,,,,,,,,,,,,,1,,,,,,,,,,,,,,,,,,,,,,,,,,,,,,,,,,,,,7,,,,,,,,,,,,,,,,,,,,,,,,3421,0.003703704,-0.410185185,1,0,0,cont_buttonBS,0,6,6,6,1
,,5a348ea750833c0001ee9550,2022-09-08_14h08.22.145,CGTgamblingSpanTasks,2022.2.1,Win32,74.96251874,,,,,,,,,,,,,,,,,,,,,,,,,,,,,,,,,,,,,,,,,,,,,,,,,,,,,,,,,,,,,,,,,,,,,,,,,,,,,,,,,,"[2,9,6,1,5]",,,,,,,,,,,,,,,,,,,,,,,,,,,,,,,,,,,,,0,0,0,0,1,,,,,,,,,,,,
,,5a348ea750833c0001ee9550,2022-09-08_14h08.22.145,CGTgamblingSpanTasks,2022.2.1,Win32,74.96251874,,,,,,,,,,,,,,,,,,,,,,,,,,,,,,,,,,,,,,,,,,,,,,,,,,,,,,,,,,,,,,,,,,,,,,,,,,,,,,,,,,"[2,9,6,1,5]",,,,,,,,,,,,,,,,,,,,,,,,,,,,,,,,,,,,,1,0,1,0,1,,,,,,,,,,,,
,,5a348ea750833c0001ee9550,2022-09-08_14h08.22.145,CGTgamblingSpanTasks,2022.2.1,Win32,74.96251874,,,,,,,,,,,,,,,,,,,,,,,,,,,,,,,,,,,,,,,,,,,,,,,,,,,,,,,,,,,,,,,,,,,,,,,,,,,,,,,,,,"[2,9,6,1,5]",,,,,,,,,,,,,,,,,,,,,,,,,,,,,,,,,,,,,2,0,2,0,1,,,,,,,,,,,,
,,5a348ea750833c0001ee9550,2022-09-08_14h08.22.145,CGTgamblingSpanTasks,2022.2.1,Win32,74.96251874,,,,,,,,,,,,,,,,,,,,,,,,,,,,,,,,,,,,,,,,,,,,,,,,,,,,,,,,,,,,,,,,,,,,,,,,,,,,,,,,,,"[2,9,6,1,5]",,,,,,,,,,,,,,,,,,,,,,,,,,,,,,,,,,,,,3,0,3,0,1,,,,,,,,,,,,
,,5a348ea750833c0001ee9550,2022-09-08_14h08.22.145,CGTgamblingSpanTasks,2022.2.1,Win32,74.96251874,,,,,,,,,,,,,,,,,,,,,,,,,,,,,,,,,,,,,,,,,,,,,,,,,,,,,,,,,,,,,,,,,,,,,,,,,,,,,,,,,,"[2,9,6,1,5]",,,,,,,,,,,,,,,,,,,,,,,,,,,,,,,,,,,,,4,0,4,0,1,,,,,,,,,,,,
,,5a348ea750833c0001ee9550,2022-09-08_14h08.22.145,CGTgamblingSpanTasks,2022.2.1,Win32,74.96251874,,,,,,,,,,,,,,,,,,,,,,,,,,,,,,,,,,,,,,,,,,,,,,,,,,,,,,,,,,,,,,,0,,,,,,,,,,,,,,,,,,,,,,,,,,,,,,,,,,,,,8,,,,,,,,,,,,,,,,,,,,,,,,5124,-0.000925926,-0.409259259,1,0,0,cont_buttonBS,0,7,7,7,1
,,5a348ea750833c0001ee9550,2022-09-08_14h08.22.145,CGTgamblingSpanTasks,2022.2.1,Win32,74.96251874,,,,,,,,,,,,,,,,,,,,,,,,,,,,,,,,,,,,,,,,,,,,,,,,,,,,,,,,,,,,,,,,,,,,,,,,,,,,,,,,,,"[7,3,9,1,5]",,,,,,,,,,,,,,,,,,,,,,,,,,,,,,,,,,,,,0,0,0,0,1,,,,,,,,,,,,
,,5a348ea750833c0001ee9550,2022-09-08_14h08.22.145,CGTgamblingSpanTasks,2022.2.1,Win32,74.96251874,,,,,,,,,,,,,,,,,,,,,,,,,,,,,,,,,,,,,,,,,,,,,,,,,,,,,,,,,,,,,,,,,,,,,,,,,,,,,,,,,,"[7,3,9,1,5]",,,,,,,,,,,,,,,,,,,,,,,,,,,,,,,,,,,,,1,0,1,0,1,,,,,,,,,,,,
,,5a348ea750833c0001ee9550,2022-09-08_14h08.22.145,CGTgamblingSpanTasks,2022.2.1,Win32,74.96251874,,,,,,,,,,,,,,,,,,,,,,,,,,,,,,,,,,,,,,,,,,,,,,,,,,,,,,,,,,,,,,,,,,,,,,,,,,,,,,,,,,"[7,3,9,1,5]",,,,,,,,,,,,,,,,,,,,,,,,,,,,,,,,,,,,,2,0,2,0,1,,,,,,,,,,,,
,,5a348ea750833c0001ee9550,2022-09-08_14h08.22.145,CGTgamblingSpanTasks,2022.2.1,Win32,74.96251874,,,,,,,,,,,,,,,,,,,,,,,,,,,,,,,,,,,,,,,,,,,,,,,,,,,,,,,,,,,,,,,,,,,,,,,,,,,,,,,,,,"[7,3,9,1,5]",,,,,,,,,,,,,,,,,,,,,,,,,,,,,,,,,,,,,3,0,3,0,1,,,,,,,,,,,,
,,5a348ea750833c0001ee9550,2022-09-08_14h08.22.145,CGTgamblingSpanTasks,2022.2.1,Win32,74.96251874,,,,,,,,,,,,,,,,,,,,,,,,,,,,,,,,,,,,,,,,,,,,,,,,,,,,,,,,,,,,,,,,,,,,,,,,,,,,,,,,,,"[7,3,9,1,5]",,,,,,,,,,,,,,,,,,,,,,,,,,,,,,,,,,,,,4,0,4,0,1,,,,,,,,,,,,
,,5a348ea750833c0001ee9550,2022-09-08_14h08.22.145,CGTgamblingSpanTasks,2022.2.1,Win32,74.96251874,,,,,,,,,,,,,,,,,,,,,,,,,,,,,,,,,,,,,,,,,,,,,,,,,,,,,,,,,,,,,,,0,,,,,,,,,,,,,,,,,,,,,,,,,,,,,,,,,,,,,9,,,,,,,,,,,,,,,,,,,,,,,,59636,0.003703704,-0.42037037,1,0,0,cont_buttonBS,0,8,8,8,1
,,5a348ea750833c0001ee9550,2022-09-08_14h08.22.145,CGTgamblingSpanTasks,2022.2.1,Win32,74.96251874,,,,,,,,,,,,,,,,,,,,,,,,,,,,,,,,,,,,,,,,,,,,,,,,,,,,,,,,,,,,,,,,,,,,,,,,,,,,,,,,,,"[7,6,2,5]",,,,,,,,,,,,,,,,,,,,,,,,,,,,,,,,,,,,,0,0,0,0,1,,,,,,,,,,,,
,,5a348ea750833c0001ee9550,2022-09-08_14h08.22.145,CGTgamblingSpanTasks,2022.2.1,Win32,74.96251874,,,,,,,,,,,,,,,,,,,,,,,,,,,,,,,,,,,,,,,,,,,,,,,,,,,,,,,,,,,,,,,,,,,,,,,,,,,,,,,,,,"[7,6,2,5]",,,,,,,,,,,,,,,,,,,,,,,,,,,,,,,,,,,,,1,0,1,0,1,,,,,,,,,,,,
,,5a348ea750833c0001ee9550,2022-09-08_14h08.22.145,CGTgamblingSpanTasks,2022.2.1,Win32,74.96251874,,,,,,,,,,,,,,,,,,,,,,,,,,,,,,,,,,,,,,,,,,,,,,,,,,,,,,,,,,,,,,,,,,,,,,,,,,,,,,,,,,"[7,6,2,5]",,,,,,,,,,,,,,,,,,,,,,,,,,,,,,,,,,,,,2,0,2,0,1,,,,,,,,,,,,
