initITIstatic,initITIdynamic,participant,date,expName,psychopyVersion,OS,frameRate,inst1.keys,inst1.rt,startPracResp.keys,startPracResp.rt,choice1.keys,choice1.rt,outcome,extraITI,trials.thisRepN,trials.thisTrialN,trials.thisN,trials.thisIndex,trials.ran,riskyGain,riskyLoss,alternative,isi,iti,loc,postPractResp.keys,postPractResp.rt,realloc,realChoice.keys,realChoice.rt,outcomes,choices,actualITI,init ITI,staticRDM.thisRepN,staticRDM.thisTrialN,staticRDM.thisN,staticRDM.thisIndex,staticRDM.ran,riskyoption1,riskyoption2,safeoption,ischecktrial,dynamicChoiceSetName,dynamicChoiceSetPath,bestRho,bestMu,trials_2.thisRepN,trials_2.thisTrialN,trials_2.thisN,trials_2.thisIndex,trials_2.ran,key_resp.keys,key_resp.rt,dynamicRDM.thisRepN,dynamicRDM.thisTrialN,dynamicRDM.thisN,dynamicRDM.thisIndex,dynamicRDM.ran,choiceP,easy0difficult1,stopBreak.keys,stopBreak.rt,movealong.keys,movealong.rt,startPractice.keys,startPractice.rt,textboxPractice.text,correct,mousePractice.x,mousePractice.y,mousePractice.leftButton,mousePractice.midButton,mousePractice.rightButton,mousePractice.clicked_name,trialFSPractice.thisRepN,trialFSPractice.thisTrialN,trialFSPractice.thisN,trialFSPractice.thisIndex,trialFSPractice.ran,digitSpanForward,digits,digitsReverse,digitSpanReverse,digitsReverseCorrAnswer,startFSreal.keys,startFSreal.rt,digitsForTrial,digitLoop.thisRepN,digitLoop.thisTrialN,digitLoop.thisN,digitLoop.thisIndex,digitLoop.ran,textbox.text,mouse_3.x,mouse_3.y,mouse_3.leftButton,mouse_3.midButton,mouse_3.rightButton,mouse_3.clicked_name,trialsFS.thisRepN,trialsFS.thisTrialN,trialsFS.thisN,trialsFS.thisIndex,trialsFS.ran,trialNumber,moveToBS.keys,moveToBS.rt,startBSprac.keys,startBSprac.rt,textboxPractice_2.text,mousePractice_2.x,mousePractice_2.y,mousePractice_2.leftButton,mousePractice_2.midButton,mousePractice_2.rightButton,mousePractice_2.clicked_name,trialsPracticeBS.thisRepN,trialsPracticeBS.thisTrialN,trialsPracticeBS.thisN,trialsPracticeBS.thisIndex,trialsPracticeBS.ran,startBSreal.keys,startBSreal.rt,digitLoopBS.thisRepN,digitLoopBS.thisTrialN,digitLoopBS.thisN,digitLoopBS.thisIndex,digitLoopBS.ran,textboxBS.text,mouseBS.x,mouseBS.y,mouseBS.leftButton,mouseBS.midButton,mouseBS.rightButton,mouseBS.clicked_name,trialsBS.thisRepN,trialsBS.thisTrialN,trialsBS.thisN,trialsBS.thisIndex,trialsBS.ran
"[1.5,1,1.5,1,1,1,1.5,1.5,1.5,1,1.5,1.5,1,1.5,1.5,1,1,1.5,1.5,1.5,1.5,1,1.5,1,1,1,1.5,1,1.5,1.5,1,1.5,1,1.5,1,1.5,1,1.5,1,1,1,1.5,1,1.5,1.5,1,1,1,1.5,1]","[1.5,1.5,1.5,1.5,1,1,1.5,1.5,1.5,1,1.5,1,1,1,1,1.5,1,1.5,1.5,1,1,1,1,1,1,1.5,1,1,1,1,1.5,1,1,1.5,1.5,1,1.5,1.5,1.5,1.5,1.5,1.5,1.5,1.5,1.5,1,1,1.5,1.5,1.5,1,1,1.5,1.5,1,1,1,1.5,1,1.5,1.5,1.5,1.5,1,1,1,1,1,1,1,1.5,1,1.5,1.5,1,1,1.5,1.5,1,1,1.5,1.5,1.5,1.5,1.5,1,1.5,1,1,1.5,1.5,1.5,1.5,1.5,1,1,1,1.5,1.5,1.5,1,1,1,1.5,1.5,1,1,1,1.5,1.5,1,1,1,1.5,1,1,1.5,1.5,1,1]",60c2b5411e6268b10e6625d6,2022-09-08_12h38.06.720,CGTgamblingSpanTasks,2022.2.1,MacIntel,30.3030303,,,,,,,,,,,,,,,,,,,,,,,,,,,,,,,,,,,,,,,,,,,,,,,,,,,,,,,,,,,,,,,,,,,,,,,,,,,,,,,,,,,,,,,,,,,,,,,,,,,,,,,,,,,,,,,,,,,,,,,,,,,,,,,,,,,,,,,
,,60c2b5411e6268b10e6625d6,2022-09-08_12h38.06.720,CGTgamblingSpanTasks,2022.2.1,MacIntel,30.3030303,return,3.033,,,,,,,,,,,,,,,,,,,,,,,,,,,,,,,,,,,,,,,,,,,,,,,,,,,,,,,,,,,,,,,,,,,,,,,,,,,,,,,,,,,,,,,,,,,,,,,,,,,,,,,,,,,,,,,,,,,,,,,,,,,,,,,,,,,,,
,,60c2b5411e6268b10e6625d6,2022-09-08_12h38.06.720,CGTgamblingSpanTasks,2022.2.1,MacIntel,30.3030303,,,v,1.404,,,,,,,,,,,,,,,,,,,,,,,,,,,,,,,,,,,,,,,,,,,,,,,,,,,,,,,,,,,,,,,,,,,,,,,,,,,,,,,,,,,,,,,,,,,,,,,,,,,,,,,,,,,,,,,,,,,,,,,,,,,,,,,,,,,
,,60c2b5411e6268b10e6625d6,2022-09-08_12h38.06.720,CGTgamblingSpanTasks,2022.2.1,MacIntel,30.3030303,,,,,n,2.437,9.45,1.563,0,0,0,0,1,18.23,0,9.45,2,1,1,,,,,,,,,,,,,,,,,,,,,,,,,,,,,,,,,,,,,,,,,,,,,,,,,,,,,,,,,,,,,,,,,,,,,,,,,,,,,,,,,,,,,,,,,,,,,,,,,,,,,,,,,,,,,,,,,,,,
,,60c2b5411e6268b10e6625d6,2022-09-08_12h38.06.720,CGTgamblingSpanTasks,2022.2.1,MacIntel,30.3030303,,,,,v,1.298,53.27,2.702,0,1,1,1,1,53.27,0,35.16,1,1.5,1,,,,,,,,,,,,,,,,,,,,,,,,,,,,,,,,,,,,,,,,,,,,,,,,,,,,,,,,,,,,,,,,,,,,,,,,,,,,,,,,,,,,,,,,,,,,,,,,,,,,,,,,,,,,,,,,,,,,
,,60c2b5411e6268b10e6625d6,2022-09-08_12h38.06.720,CGTgamblingSpanTasks,2022.2.1,MacIntel,30.3030303,,,,,n,1.953,0,2.047,0,2,2,2,1,8.27,0,1.15,1,1.5,2,,,,,,,,,,,,,,,,,,,,,,,,,,,,,,,,,,,,,,,,,,,,,,,,,,,,,,,,,,,,,,,,,,,,,,,,,,,,,,,,,,,,,,,,,,,,,,,,,,,,,,,,,,,,,,,,,,,,
,,60c2b5411e6268b10e6625d6,2022-09-08_12h38.06.720,CGTgamblingSpanTasks,2022.2.1,MacIntel,30.3030303,,,,,n,1.954,40.41,2.046,0,3,3,3,1,45.88,0,40.41,3,1,1,,,,,,,,,,,,,,,,,,,,,,,,,,,,,,,,,,,,,,,,,,,,,,,,,,,,,,,,,,,,,,,,,,,,,,,,,,,,,,,,,,,,,,,,,,,,,,,,,,,,,,,,,,,,,,,,,,,,
,,60c2b5411e6268b10e6625d6,2022-09-08_12h38.06.720,CGTgamblingSpanTasks,2022.2.1,MacIntel,30.3030303,,,,,v,2.264,11.96,1.736,0,4,4,4,1,21.56,0,11.96,1,1.5,2,,,,,,,,,,,,,,,,,,,,,,,,,,,,,,,,,,,,,,,,,,,,,,,,,,,,,,,,,,,,,,,,,,,,,,,,,,,,,,,,,,,,,,,,,,,,,,,,,,,,,,,,,,,,,,,,,,,,
,,60c2b5411e6268b10e6625d6,2022-09-08_12h38.06.720,CGTgamblingSpanTasks,2022.2.1,MacIntel,30.3030303,,,,,,,,,,,,,,,,,,,,n,2.277,,,,,,,,,,,,,,,,,,,,,,,,,,,,,,,,,,,,,,,,,,,,,,,,,,,,,,,,,,,,,,,,,,,,,,,,,,,,,,,,,,,,,,,,,,,,,,,,,,,,,,,,,,,,,,,,,,
,,60c2b5411e6268b10e6625d6,2022-09-08_12h38.06.720,CGTgamblingSpanTasks,2022.2.1,MacIntel,30.3030303,,,,,,,,1.906,,,,,,,,,,,,,,2,v,2.094,10.15,0,3.406,1.5,0,0,0,33,1,15.7,0,10.15,0,,,,,,,,,,,,,,,,,,,,,,,,,,,,,,,,,,,,,,,,,,,,,,,,,,,,,,,,,,,,,,,,,,,,,,,,,,,,,,,,,,,,,,,,,,,,,,,,,,
,,60c2b5411e6268b10e6625d6,2022-09-08_12h38.06.720,CGTgamblingSpanTasks,2022.2.1,MacIntel,30.3030303,,,,,,,,2.048,,,,,,,,,,,,,,1,n,1.952,8.07,0,3.048,1,0,1,1,11,1,19.86,0,8.07,0,,,,,,,,,,,,,,,,,,,,,,,,,,,,,,,,,,,,,,,,,,,,,,,,,,,,,,,,,,,,,,,,,,,,,,,,,,,,,,,,,,,,,,,,,,,,,,,,,,
,,60c2b5411e6268b10e6625d6,2022-09-08_12h38.06.720,CGTgamblingSpanTasks,2022.2.1,MacIntel,30.3030303,,,,,,,,2.737,,,,,,,,,,,,,,1,n,1.263,6.53,0,4.237,1.5,0,2,2,28,1,10.95,0,6.53,0,,,,,,,,,,,,,,,,,,,,,,,,,,,,,,,,,,,,,,,,,,,,,,,,,,,,,,,,,,,,,,,,,,,,,,,,,,,,,,,,,,,,,,,,,,,,,,,,,,
,,60c2b5411e6268b10e6625d6,2022-09-08_12h38.06.720,CGTgamblingSpanTasks,2022.2.1,MacIntel,30.3030303,,,,,,,,1.911,,,,,,,,,,,,,,1,v,2.089,0,1,2.911,1,0,3,3,8,1,13.94,0,5.03,0,,,,,,,,,,,,,,,,,,,,,,,,,,,,,,,,,,,,,,,,,,,,,,,,,,,,,,,,,,,,,,,,,,,,,,,,,,,,,,,,,,,,,,,,,,,,,,,,,,
,,60c2b5411e6268b10e6625d6,2022-09-08_12h38.06.720,CGTgamblingSpanTasks,2022.2.1,MacIntel,30.3030303,,,,,,,,1.834,,,,,,,,,,,,,,2,v,2.166,6.19,0,2.834,1,0,4,4,22,1,11.62,0,6.19,0,,,,,,,,,,,,,,,,,,,,,,,,,,,,,,,,,,,,,,,,,,,,,,,,,,,,,,,,,,,,,,,,,,,,,,,,,,,,,,,,,,,,,,,,,,,,,,,,,,
,,60c2b5411e6268b10e6625d6,2022-09-08_12h38.06.720,CGTgamblingSpanTasks,2022.2.1,MacIntel,30.3030303,,,,,,,,1.786,,,,,,,,,,,,,,2,v,2.214,5.66,0,2.786,1,0,5,5,14,1,12.68,0,5.66,0,,,,,,,,,,,,,,,,,,,,,,,,,,,,,,,,,,,,,,,,,,,,,,,,,,,,,,,,,,,,,,,,,,,,,,,,,,,,,,,,,,,,,,,,,,,,,,,,,,
,,60c2b5411e6268b10e6625d6,2022-09-08_12h38.06.720,CGTgamblingSpanTasks,2022.2.1,MacIntel,30.3030303,,,,,,,,2.312,,,,,,,,,,,,,,2,n,1.688,0,1,3.812,1.5,0,6,6,17,1,18.33,0,8.84,0,,,,,,,,,,,,,,,,,,,,,,,,,,,,,,,,,,,,,,,,,,,,,,,,,,,,,,,,,,,,,,,,,,,,,,,,,,,,,,,,,,,,,,,,,,,,,,,,,,
,,60c2b5411e6268b10e6625d6,2022-09-08_12h38.06.720,CGTgamblingSpanTasks,2022.2.1,MacIntel,30.3030303,,,,,,,,3.012,,,,,,,,,,,,,,2,v,0.988,6.4,0,4.512,1.5,0,7,7,26,1,11.2,0,6.4,0,,,,,,,,,,,,,,,,,,,,,,,,,,,,,,,,,,,,,,,,,,,,,,,,,,,,,,,,,,,,,,,,,,,,,,,,,,,,,,,,,,,,,,,,,,,,,,,,,,
,,60c2b5411e6268b10e6625d6,2022-09-08_12h38.06.720,CGTgamblingSpanTasks,2022.2.1,MacIntel,30.3030303,,,,,,,,2.734,,,,,,,,,,,,,,2,v,1.266,9.03,0,4.234,1.5,0,8,8,19,1,17.94,0,9.03,0,,,,,,,,,,,,,,,,,,,,,,,,,,,,,,,,,,,,,,,,,,,,,,,,,,,,,,,,,,,,,,,,,,,,,,,,,,,,,,,,,,,,,,,,,,,,,,,,,,
,,60c2b5411e6268b10e6625d6,2022-09-08_12h38.06.720,CGTgamblingSpanTasks,2022.2.1,MacIntel,30.3030303,,,,,,,,2.916,,,,,,,,,,,,,,2,v,1.084,10.27,0,3.916,1,0,9,9,35,1,15.47,0,10.27,0,,,,,,,,,,,,,,,,,,,,,,,,,,,,,,,,,,,,,,,,,,,,,,,,,,,,,,,,,,,,,,,,,,,,,,,,,,,,,,,,,,,,,,,,,,,,,,,,,,
,,60c2b5411e6268b10e6625d6,2022-09-08_12h38.06.720,CGTgamblingSpanTasks,2022.2.1,MacIntel,30.3030303,,,,,,,,2.639,,,,,,,,,,,,,,2,n,1.361,21.32,1,4.139,1.5,0,10,10,7,1,21.32,0,7.34,0,,,,,,,,,,,,,,,,,,,,,,,,,,,,,,,,,,,,,,,,,,,,,,,,,,,,,,,,,,,,,,,,,,,,,,,,,,,,,,,,,,,,,,,,,,,,,,,,,,
,,60c2b5411e6268b10e6625d6,2022-09-08_12h38.06.720,CGTgamblingSpanTasks,2022.2.1,MacIntel,30.3030303,,,,,,,,1.976,,,,,,,,,,,,,,1,n,2.024,10.46,0,3.476,1.5,0,11,11,39,1,15.09,0,10.46,0,,,,,,,,,,,,,,,,,,,,,,,,,,,,,,,,,,,,,,,,,,,,,,,,,,,,,,,,,,,,,,,,,,,,,,,,,,,,,,,,,,,,,,,,,,,,,,,,,,
,,60c2b5411e6268b10e6625d6,2022-09-08_12h38.06.720,CGTgamblingSpanTasks,2022.2.1,MacIntel,30.3030303,,,,,,,,1.644,,,,,,,,,,,,,,1,n,2.356,6.88,0,2.644,1,0,12,12,36,1,10.24,0,6.88,0,,,,,,,,,,,,,,,,,,,,,,,,,,,,,,,,,,,,,,,,,,,,,,,,,,,,,,,,,,,,,,,,,,,,,,,,,,,,,,,,,,,,,,,,,,,,,,,,,,
,,60c2b5411e6268b10e6625d6,2022-09-08_12h38.06.720,CGTgamblingSpanTasks,2022.2.1,MacIntel,30.3030303,,,,,,,,2.282,,,,,,,,,,,,,,1,v,1.718,7.73,1,3.782,1.5,0,13,13,44,1,13.1,7.73,4.68,1,,,,,,,,,,,,,,,,,,,,,,,,,,,,,,,,,,,,,,,,,,,,,,,,,,,,,,,,,,,,,,,,,,,,,,,,,,,,,,,,,,,,,,,,,,,,,,,,,,
,,60c2b5411e6268b10e6625d6,2022-09-08_12h38.06.720,CGTgamblingSpanTasks,2022.2.1,MacIntel,30.3030303,,,,,,,,2.155,,,,,,,,,,,,,,1,v,1.845,0,1,3.655,1.5,0,14,14,1,1,28.21,0,3.89,0,,,,,,,,,,,,,,,,,,,,,,,,,,,,,,,,,,,,,,,,,,,,,,,,,,,,,,,,,,,,,,,,,,,,,,,,,,,,,,,,,,,,,,,,,,,,,,,,,,
,,60c2b5411e6268b10e6625d6,2022-09-08_12h38.06.720,CGTgamblingSpanTasks,2022.2.1,MacIntel,30.3030303,,,,,,,,0.956,,,,,,,,,,,,,,2,v,3.044,5.27,0,1.956,1,0,15,15,10,1,13.45,0,5.27,0,,,,,,,,,,,,,,,,,,,,,,,,,,,,,,,,,,,,,,,,,,,,,,,,,,,,,,,,,,,,,,,,,,,,,,,,,,,,,,,,,,,,,,,,,,,,,,,,,,
,,60c2b5411e6268b10e6625d6,2022-09-08_12h38.06.720,CGTgamblingSpanTasks,2022.2.1,MacIntel,30.3030303,,,,,,,,2.145,,,,,,,,,,,,,,1,n,1.855,5.48,0,3.145,1,0,16,16,12,1,13.04,0,5.48,0,,,,,,,,,,,,,,,,,,,,,,,,,,,,,,,,,,,,,,,,,,,,,,,,,,,,,,,,,,,,,,,,,,,,,,,,,,,,,,,,,,,,,,,,,,,,,,,,,,
,,60c2b5411e6268b10e6625d6,2022-09-08_12h38.06.720,CGTgamblingSpanTasks,2022.2.1,MacIntel,30.3030303,,,,,,,,1.878,,,,,,,,,,,,,,2,v,2.122,3.13,0,3.378,1.5,0,17,17,2,1,17.73,0,3.13,0,,,,,,,,,,,,,,,,,,,,,,,,,,,,,,,,,,,,,,,,,,,,,,,,,,,,,,,,,,,,,,,,,,,,,,,,,,,,,,,,,,,,,,,,,,,,,,,,,,
,,60c2b5411e6268b10e6625d6,2022-09-08_12h38.06.720,CGTgamblingSpanTasks,2022.2.1,MacIntel,30.3030303,,,,,,,,1.947,,,,,,,,,,,,,,2,v,2.053,6.29,0,3.447,1.5,0,18,18,24,1,11.43,0,6.29,0,,,,,,,,,,,,,,,,,,,,,,,,,,,,,,,,,,,,,,,,,,,,,,,,,,,,,,,,,,,,,,,,,,,,,,,,,,,,,,,,,,,,,,,,,,,,,,,,,,
,,60c2b5411e6268b10e6625d6,2022-09-08_12h38.06.720,CGTgamblingSpanTasks,2022.2.1,MacIntel,30.3030303,,,,,,,,2.813,,,,,,,,,,,,,,2,v,1.187,6.08,0,4.313,1.5,0,19,19,20,1,11.84,0,6.08,0,,,,,,,,,,,,,,,,,,,,,,,,,,,,,,,,,,,,,,,,,,,,,,,,,,,,,,,,,,,,,,,,,,,,,,,,,,,,,,,,,,,,,,,,,,,,,,,,,,
,,60c2b5411e6268b10e6625d6,2022-09-08_12h38.06.720,CGTgamblingSpanTasks,2022.2.1,MacIntel,30.3030303,,,,,,,,2.549,,,,,,,,,,,,,,2,n,1.451,0,1,4.049,1.5,0,20,20,9,1,20.53,0,7.73,0,,,,,,,,,,,,,,,,,,,,,,,,,,,,,,,,,,,,,,,,,,,,,,,,,,,,,,,,,,,,,,,,,,,,,,,,,,,,,,,,,,,,,,,,,,,,,,,,,,
,,60c2b5411e6268b10e6625d6,2022-09-08_12h38.06.720,CGTgamblingSpanTasks,2022.2.1,MacIntel,30.3030303,,,,,,,,2.268,,,,,,,,,,,,,,2,v,1.732,5.96,0,3.268,1,0,21,21,18,1,12.08,0,5.96,0,,,,,,,,,,,,,,,,,,,,,,,,,,,,,,,,,,,,,,,,,,,,,,,,,,,,,,,,,,,,,,,,,,,,,,,,,,,,,,,,,,,,,,,,,,,,,,,,,,
,,60c2b5411e6268b10e6625d6,2022-09-08_12h38.06.720,CGTgamblingSpanTasks,2022.2.1,MacIntel,30.3030303,,,,,,,,2.079,,,,,,,,,,,,,,1,n,1.921,10.68,0,3.579,1.5,0,22,22,48,1,10.68,0,10.68,1,,,,,,,,,,,,,,,,,,,,,,,,,,,,,,,,,,,,,,,,,,,,,,,,,,,,,,,,,,,,,,,,,,,,,,,,,,,,,,,,,,,,,,,,,,,,,,,,,,
,,60c2b5411e6268b10e6625d6,2022-09-08_12h38.06.720,CGTgamblingSpanTasks,2022.2.1,MacIntel,30.3030303,,,,,,,,2.247,,,,,,,,,,,,,,2,n,1.753,22.97,1,3.247,1,0,23,23,5,1,22.97,0,6.51,0,,,,,,,,,,,,,,,,,,,,,,,,,,,,,,,,,,,,,,,,,,,,,,,,,,,,,,,,,,,,,,,,,,,,,,,,,,,,,,,,,,,,,,,,,,,,,,,,,,
,,60c2b5411e6268b10e6625d6,2022-09-08_12h38.06.720,CGTgamblingSpanTasks,2022.2.1,MacIntel,30.3030303,,,,,,,,2.807,,,,,,,,,,,,,,2,v,1.193,9.2,0,3.807,1,0,24,24,21,1,17.59,0,9.2,0,,,,,,,,,,,,,,,,,,,,,,,,,,,,,,,,,,,,,,,,,,,,,,,,,,,,,,,,,,,,,,,,,,,,,,,,,,,,,,,,,,,,,,,,,,,,,,,,,,
,,60c2b5411e6268b10e6625d6,2022-09-08_12h38.06.720,CGTgamblingSpanTasks,2022.2.1,MacIntel,30.3030303,,,,,,,,1.877,,,,,,,,,,,,,,2,v,2.123,9.92,0,2.877,1,0,25,25,49,1,6.79,0,9.92,1,,,,,,,,,,,,,,,,,,,,,,,,,,,,,,,,,,,,,,,,,,,,,,,,,,,,,,,,,,,,,,,,,,,,,,,,,,,,,,,,,,,,,,,,,,,,,,,,,,
,,60c2b5411e6268b10e6625d6,2022-09-08_12h38.06.720,CGTgamblingSpanTasks,2022.2.1,MacIntel,30.3030303,,,,,,,,2.444,,,,,,,,,,,,,,1,n,1.556,10.02,0,3.944,1.5,0,26,26,31,1,15.96,0,10.02,0,,,,,,,,,,,,,,,,,,,,,,,,,,,,,,,,,,,,,,,,,,,,,,,,,,,,,,,,,,,,,,,,,,,,,,,,,,,,,,,,,,,,,,,,,,,,,,,,,,
,,60c2b5411e6268b10e6625d6,2022-09-08_12h38.06.720,CGTgamblingSpanTasks,2022.2.1,MacIntel,30.3030303,,,,,,,,1.68,,,,,,,,,,,,,,1,n,2.32,9.7,0,2.68,1,0,27,27,27,1,16.6,0,9.7,0,,,,,,,,,,,,,,,,,,,,,,,,,,,,,,,,,,,,,,,,,,,,,,,,,,,,,,,,,,,,,,,,,,,,,,,,,,,,,,,,,,,,,,,,,,,,,,,,,,
,,60c2b5411e6268b10e6625d6,2022-09-08_12h38.06.720,CGTgamblingSpanTasks,2022.2.1,MacIntel,30.3030303,,,,,,,,0.946,,,,,,,,,,,,,,2,n,3.054,0,1,2.446,1.5,0,28,28,40,1,10.35,0,0,1,,,,,,,,,,,,,,,,,,,,,,,,,,,,,,,,,,,,,,,,,,,,,,,,,,,,,,,,,,,,,,,,,,,,,,,,,,,,,,,,,,,,,,,,,,,,,,,,,,
,,60c2b5411e6268b10e6625d6,2022-09-08_12h38.06.720,CGTgamblingSpanTasks,2022.2.1,MacIntel,30.3030303,,,,,,,,2.278,,,,,,,,,,,,,,1,v,1.722,0,1,3.778,1.5,0,29,29,6,1,14.72,0,4.64,0,,,,,,,,,,,,,,,,,,,,,,,,,,,,,,,,,,,,,,,,,,,,,,,,,,,,,,,,,,,,,,,,,,,,,,,,,,,,,,,,,,,,,,,,,,,,,,,,,,
,,60c2b5411e6268b10e6625d6,2022-09-08_12h38.06.720,CGTgamblingSpanTasks,2022.2.1,MacIntel,30.3030303,,,,,,,,2.446,,,,,,,,,,,,,,2,n,1.554,0,1,3.446,1,0,30,30,3,1,25.2,0,5.4,0,,,,,,,,,,,,,,,,,,,,,,,,,,,,,,,,,,,,,,,,,,,,,,,,,,,,,,,,,,,,,,,,,,,,,,,,,,,,,,,,,,,,,,,,,,,,,,,,,,
,,60c2b5411e6268b10e6625d6,2022-09-08_12h38.06.720,CGTgamblingSpanTasks,2022.2.1,MacIntel,30.3030303,,,,,,,,2.078,,,,,,,,,,,,,,2,v,1.922,7.55,0,3.578,1.5,0,31,31,45,1,0,0,7.55,1,,,,,,,,,,,,,,,,,,,,,,,,,,,,,,,,,,,,,,,,,,,,,,,,,,,,,,,,,,,,,,,,,,,,,,,,,,,,,,,,,,,,,,,,,,,,,,,,,,
,,60c2b5411e6268b10e6625d6,2022-09-08_12h38.06.720,CGTgamblingSpanTasks,2022.2.1,MacIntel,30.3030303,,,,,,,,2.409,,,,,,,,,,,,,,1,n,1.591,9.87,0,3.409,1,0,32,32,29,1,16.26,0,9.87,0,,,,,,,,,,,,,,,,,,,,,,,,,,,,,,,,,,,,,,,,,,,,,,,,,,,,,,,,,,,,,,,,,,,,,,,,,,,,,,,,,,,,,,,,,,,,,,,,,,
,,60c2b5411e6268b10e6625d6,2022-09-08_12h38.06.720,CGTgamblingSpanTasks,2022.2.1,MacIntel,30.3030303,,,,,,,,2.444,,,,,,,,,,,,,,1,v,1.556,0,1,3.944,1.5,0,33,33,0,1,20.03,0,1.99,0,,,,,,,,,,,,,,,,,,,,,,,,,,,,,,,,,,,,,,,,,,,,,,,,,,,,,,,,,,,,,,,,,,,,,,,,,,,,,,,,,,,,,,,,,,,,,,,,,,
,,60c2b5411e6268b10e6625d6,2022-09-08_12h38.06.720,CGTgamblingSpanTasks,2022.2.1,MacIntel,30.3030303,,,,,,,,1.977,,,,,,,,,,,,,,1,v,2.023,0,1,2.977,1,0,34,34,4,1,16,0,4,0,,,,,,,,,,,,,,,,,,,,,,,,,,,,,,,,,,,,,,,,,,,,,,,,,,,,,,,,,,,,,,,,,,,,,,,,,,,,,,,,,,,,,,,,,,,,,,,,,,
,,60c2b5411e6268b10e6625d6,2022-09-08_12h38.06.720,CGTgamblingSpanTasks,2022.2.1,MacIntel,30.3030303,,,,,,,,2.357,,,,,,,,,,,,,,1,n,1.643,6.73,0,3.857,1.5,0,35,35,32,1,10.55,0,6.73,0,,,,,,,,,,,,,,,,,,,,,,,,,,,,,,,,,,,,,,,,,,,,,,,,,,,,,,,,,,,,,,,,,,,,,,,,,,,,,,,,,,,,,,,,,,,,,,,,,,
,,60c2b5411e6268b10e6625d6,2022-09-08_12h38.06.720,CGTgamblingSpanTasks,2022.2.1,MacIntel,30.3030303,,,,,,,,2.609,,,,,,,,,,,,,,2,v,1.391,8.36,0,3.609,1,0,36,36,13,1,19.28,0,8.36,0,,,,,,,,,,,,,,,,,,,,,,,,,,,,,,,,,,,,,,,,,,,,,,,,,,,,,,,,,,,,,,,,,,,,,,,,,,,,,,,,,,,,,,,,,,,,,,,,,,
,,60c2b5411e6268b10e6625d6,2022-09-08_12h38.06.720,CGTgamblingSpanTasks,2022.2.1,MacIntel,30.3030303,,,,,,,,2.479,,,,,,,,,,,,,,2,v,1.521,9.5,0,3.979,1.5,0,37,37,25,1,17,0,9.5,0,,,,,,,,,,,,,,,,,,,,,,,,,,,,,,,,,,,,,,,,,,,,,,,,,,,,,,,,,,,,,,,,,,,,,,,,,,,,,,,,,,,,,,,,,,,,,,,,,,
,,60c2b5411e6268b10e6625d6,2022-09-08_12h38.06.720,CGTgamblingSpanTasks,2022.2.1,MacIntel,30.3030303,,,,,,,,1.757,,,,,,,,,,,,,,2,v,2.243,6.81,0,2.757,1,0,38,38,34,1,10.39,0,6.81,0,,,,,,,,,,,,,,,,,,,,,,,,,,,,,,,,,,,,,,,,,,,,,,,,,,,,,,,,,,,,,,,,,,,,,,,,,,,,,,,,,,,,,,,,,,,,,,,,,,
,,60c2b5411e6268b10e6625d6,2022-09-08_12h38.06.720,CGTgamblingSpanTasks,2022.2.1,MacIntel,30.3030303,,,,,,,,1.902,,,,,,,,,,,,,,1,n,2.098,5.82,0,2.902,1,0,39,39,16,1,12.36,0,5.82,0,,,,,,,,,,,,,,,,,,,,,,,,,,,,,,,,,,,,,,,,,,,,,,,,,,,,,,,,,,,,,,,,,,,,,,,,,,,,,,,,,,,,,,,,,,,,,,,,,,
,,60c2b5411e6268b10e6625d6,2022-09-08_12h38.06.720,CGTgamblingSpanTasks,2022.2.1,MacIntel,30.3030303,,,,,,,,2.502,,,,,,,,,,,,,,1,n,1.498,10.25,0,3.502,1,0,40,40,46,1,0,0,10.25,1,,,,,,,,,,,,,,,,,,,,,,,,,,,,,,,,,,,,,,,,,,,,,,,,,,,,,,,,,,,,,,,,,,,,,,,,,,,,,,,,,,,,,,,,,,,,,,,,,,
,,60c2b5411e6268b10e6625d6,2022-09-08_12h38.06.720,CGTgamblingSpanTasks,2022.2.1,MacIntel,30.3030303,,,,,,,,2.677,,,,,,,,,,,,,,2,v,1.323,6.63,0,4.177,1.5,0,41,41,30,1,10.73,0,6.63,0,,,,,,,,,,,,,,,,,,,,,,,,,,,,,,,,,,,,,,,,,,,,,,,,,,,,,,,,,,,,,,,,,,,,,,,,,,,,,,,,,,,,,,,,,,,,,,,,,,
,,60c2b5411e6268b10e6625d6,2022-09-08_12h38.06.720,CGTgamblingSpanTasks,2022.2.1,MacIntel,30.3030303,,,,,,,,1.717,,,,,,,,,,,,,,2,n,2.283,16.11,1,2.717,1,0,42,42,43,1,16.11,6.99,6.99,1,,,,,,,,,,,,,,,,,,,,,,,,,,,,,,,,,,,,,,,,,,,,,,,,,,,,,,,,,,,,,,,,,,,,,,,,,,,,,,,,,,,,,,,,,,,,,,,,,,
,,60c2b5411e6268b10e6625d6,2022-09-08_12h38.06.720,CGTgamblingSpanTasks,2022.2.1,MacIntel,30.3030303,,,,,,,,2.25,,,,,,,,,,,,,,1,n,1.75,8.61,0,3.75,1.5,0,43,43,15,1,18.77,0,8.61,0,,,,,,,,,,,,,,,,,,,,,,,,,,,,,,,,,,,,,,,,,,,,,,,,,,,,,,,,,,,,,,,,,,,,,,,,,,,,,,,,,,,,,,,,,,,,,,,,,,
,,60c2b5411e6268b10e6625d6,2022-09-08_12h38.06.720,CGTgamblingSpanTasks,2022.2.1,MacIntel,30.3030303,,,,,,,,2.8,,,,,,,,,,,,,,1,n,1.2,10.37,0,4.3,1.5,0,44,44,37,1,15.27,0,10.37,0,,,,,,,,,,,,,,,,,,,,,,,,,,,,,,,,,,,,,,,,,,,,,,,,,,,,,,,,,,,,,,,,,,,,,,,,,,,,,,,,,,,,,,,,,,,,,,,,,,
,,60c2b5411e6268b10e6625d6,2022-09-08_12h38.06.720,CGTgamblingSpanTasks,2022.2.1,MacIntel,30.3030303,,,,,,,,2.542,,,,,,,,,,,,,,2,n,1.458,19.86,1,3.542,1,0,45,45,42,1,19.86,0,0,1,,,,,,,,,,,,,,,,,,,,,,,,,,,,,,,,,,,,,,,,,,,,,,,,,,,,,,,,,,,,,,,,,,,,,,,,,,,,,,,,,,,,,,,,,,,,,,,,,,
,,60c2b5411e6268b10e6625d6,2022-09-08_12h38.06.720,CGTgamblingSpanTasks,2022.2.1,MacIntel,30.3030303,,,,,,,,2.622,,,,,,,,,,,,,,1,n,1.378,6.94,0,3.622,1,0,46,46,38,1,10.12,0,6.94,0,,,,,,,,,,,,,,,,,,,,,,,,,,,,,,,,,,,,,,,,,,,,,,,,,,,,,,,,,,,,,,,,,,,,,,,,,,,,,,,,,,,,,,,,,,,,,,,,,,
,,60c2b5411e6268b10e6625d6,2022-09-08_12h38.06.720,CGTgamblingSpanTasks,2022.2.1,MacIntel,30.3030303,,,,,,,,2.878,,,,,,,,,,,,,,1,n,1.122,9.36,0,3.878,1,0,47,47,23,1,17.28,0,9.36,0,,,,,,,,,,,,,,,,,,,,,,,,,,,,,,,,,,,,,,,,,,,,,,,,,,,,,,,,,,,,,,,,,,,,,,,,,,,,,,,,,,,,,,,,,,,,,,,,,,
,,60c2b5411e6268b10e6625d6,2022-09-08_12h38.06.720,CGTgamblingSpanTasks,2022.2.1,MacIntel,30.3030303,,,,,,,,2.48,,,,,,,,,,,,,,2,v,1.52,3.13,0,3.98,1.5,0,48,48,47,1,0,0,3.13,1,,,,,,,,,,,,,,,,,,,,,,,,,,,,,,,,,,,,,,,,,,,,,,,,,,,,,,,,,,,,,,,,,,,,,,,,,,,,,,,,,,,,,,,,,,,,,,,,,,
,,60c2b5411e6268b10e6625d6,2022-09-08_12h38.06.720,CGTgamblingSpanTasks,2022.2.1,MacIntel,30.3030303,,,,,,,,2.743,,,,,,,,,,,,,,2,n,1.257,14.26,1,3.743,1,0,49,49,41,1,14.26,0,0,1,,,,,,,,,,,,,,,,,,,,,,,,,,,,,,,,,,,,,,,,,,,,,,,,,,,,,,,,,,,,,,,,,,,,,,,,,,,,,,,,,,,,,,,,,,,,,,,,,,
,,60c2b5411e6268b10e6625d6,2022-09-08_12h38.06.720,CGTgamblingSpanTasks,2022.2.1,MacIntel,30.3030303,,,,,,,,,,,,,,,,,,,,,,,,,,,,,,,,,,,,,,bespoke_choiceset_rhoInd039_muInd052.csv,bespoke_choicesets/bespoke_choiceset_rhoInd039_muInd052.csv,39,52,0,0,0,0,1,,,,,,,,,,,,,,,,,,,,,,,,,,,,,,,,,,,,,,,,,,,,,,,,,,,,,,,,,,,,,,,,,,,,,,,,,,,,,,,,,,,,,,,,,
,,60c2b5411e6268b10e6625d6,2022-09-08_12h38.06.720,CGTgamblingSpanTasks,2022.2.1,MacIntel,30.3030303,,,,,,,,,,,,,,,,,,,,,,,,,,,,,,,,,,,,,,,,,,,,,,,,,,,,,,,,,,,,,,,,,,,,,,,,,,,,,,,,,,,,,,,,,,,,,,,,,,,,,,,,,,,,,,,,,,,,,,,,,,,,,,,,,,,,,,,
,,60c2b5411e6268b10e6625d6,2022-09-08_12h38.06.720,CGTgamblingSpanTasks,2022.2.1,MacIntel,30.3030303,,,,,,,,,,,,,,,,,,,,,,,,,,,,,,,,,,,,,,,,,,,,,,,n,13.648,,,,,,,,,,,,,,,,,,,,,,,,,,,,,,,,,,,,,,,,,,,,,,,,,,,,,,,,,,,,,,,,,,,,,,,,,,,,,,,,,,,,,,,
,,60c2b5411e6268b10e6625d6,2022-09-08_12h38.06.720,CGTgamblingSpanTasks,2022.2.1,MacIntel,30.3030303,,,,,,,,1.12,,,,,,,,,,,,,,1,v,2.88,0,1,2.62,1.5,,,,,,13.96521039,0,1.591282699,,,,,,,,,,,,,0,0,0,49,1,0.462956344,1,,,,,,,,,,,,,,,,,,,,,,,,,,,,,,,,,,,,,,,,,,,,,,,,,,,,,,,,,,,,,,,,,,,,,,,,,,,,,,,,
,,60c2b5411e6268b10e6625d6,2022-09-08_12h38.06.720,CGTgamblingSpanTasks,2022.2.1,MacIntel,30.3030303,,,,,,,,2.309,,,,,,,,,,,,,,2,v,1.691,10.41201161,0,3.809,1.5,,,,,,6.307062696,0,10.41201161,,,,,,,,,,,,,0,1,1,23,1,0.018187109,0,,,,,,,,,,,,,,,,,,,,,,,,,,,,,,,,,,,,,,,,,,,,,,,,,,,,,,,,,,,,,,,,,,,,,,,,,,,,,,,,
,,60c2b5411e6268b10e6625d6,2022-09-08_12h38.06.720,CGTgamblingSpanTasks,2022.2.1,MacIntel,30.3030303,,,,,,,,2.009,,,,,,,,,,,,,,2,n,1.991,0,1,3.509,1.5,,,,,,24.66627941,0,2.765426402,,,,,,,,,,,,,0,2,2,24,1,0.467360588,1,,,,,,,,,,,,,,,,,,,,,,,,,,,,,,,,,,,,,,,,,,,,,,,,,,,,,,,,,,,,,,,,,,,,,,,,,,,,,,,,
,,60c2b5411e6268b10e6625d6,2022-09-08_12h38.06.720,CGTgamblingSpanTasks,2022.2.1,MacIntel,30.3030303,,,,,,,,2.31,,,,,,,,,,,,,,2,n,1.69,17.23907308,1,3.81,1.5,,,,,,17.23907308,0,2.055848574,,,,,,,,,,,,,0,3,3,66,1,0.450504458,1,,,,,,,,,,,,,,,,,,,,,,,,,,,,,,,,,,,,,,,,,,,,,,,,,,,,,,,,,,,,,,,,,,,,,,,,,,,,,,,,
,,60c2b5411e6268b10e6625d6,2022-09-08_12h38.06.720,CGTgamblingSpanTasks,2022.2.1,MacIntel,30.3030303,,,,,,,,2.808,,,,,,,,,,,,,,1,n,1.192,10.3417501,0,3.808,1,,,,,,15.21435748,0,10.3417501,,,,,,,,,,,,,0,4,4,72,1,0.060969226,0,,,,,,,,,,,,,,,,,,,,,,,,,,,,,,,,,,,,,,,,,,,,,,,,,,,,,,,,,,,,,,,,,,,,,,,,,,,,,,,,
,,60c2b5411e6268b10e6625d6,2022-09-08_12h38.06.720,CGTgamblingSpanTasks,2022.2.1,MacIntel,30.3030303,,,,,,,,2.342,,,,,,,,,,,,,,2,n,1.658,21.2188881,1,3.342,1,,,,,,21.2188881,0,2.067660742,,,,,,,,,,,,,0,5,5,107,1,0.50470775,1,,,,,,,,,,,,,,,,,,,,,,,,,,,,,,,,,,,,,,,,,,,,,,,,,,,,,,,,,,,,,,,,,,,,,,,,,,,,,,,,
,,60c2b5411e6268b10e6625d6,2022-09-08_12h38.06.720,CGTgamblingSpanTasks,2022.2.1,MacIntel,30.3030303,,,,,,,,2.443,,,,,,,,,,,,,,1,v,1.557,0,1,3.943,1.5,,,,,,9.012590634,0,1.002188111,,,,,,,,,,,,,0,6,6,12,1,0.46958041,1,,,,,,,,,,,,,,,,,,,,,,,,,,,,,,,,,,,,,,,,,,,,,,,,,,,,,,,,,,,,,,,,,,,,,,,,,,,,,,,,
,,60c2b5411e6268b10e6625d6,2022-09-08_12h38.06.720,CGTgamblingSpanTasks,2022.2.1,MacIntel,30.3030303,,,,,,,,2.241,,,,,,,,,,,,,,2,n,1.759,27.39221343,1,3.741,1.5,,,,,,27.39221343,0,2.743407746,,,,,,,,,,,,,0,7,7,47,1,0.49752044,1,,,,,,,,,,,,,,,,,,,,,,,,,,,,,,,,,,,,,,,,,,,,,,,,,,,,,,,,,,,,,,,,,,,,,,,,,,,,,,,,
,,60c2b5411e6268b10e6625d6,2022-09-08_12h38.06.720,CGTgamblingSpanTasks,2022.2.1,MacIntel,30.3030303,,,,,,,,2.376,,,,,,,,,,,,,,1,n,1.624,5.683635938,0,3.876,1.5,,,,,,4.941039335,0,5.683635938,,,,,,,,,,,,,0,8,8,9,1,0.025481984,0,,,,,,,,,,,,,,,,,,,,,,,,,,,,,,,,,,,,,,,,,,,,,,,,,,,,,,,,,,,,,,,,,,,,,,,,,,,,,,,,
,,60c2b5411e6268b10e6625d6,2022-09-08_12h38.06.720,CGTgamblingSpanTasks,2022.2.1,MacIntel,30.3030303,,,,,,,,2.574,,,,,,,,,,,,,,1,v,1.426,17.4320197,1,3.574,1,,,,,,17.4320197,0,1.448620949,,,,,,,,,,,,,0,9,9,30,1,0.545178213,1,,,,,,,,,,,,,,,,,,,,,,,,,,,,,,,,,,,,,,,,,,,,,,,,,,,,,,,,,,,,,,,,,,,,,,,,,,,,,,,,
,,60c2b5411e6268b10e6625d6,2022-09-08_12h38.06.720,CGTgamblingSpanTasks,2022.2.1,MacIntel,30.3030303,,,,,,,,2.269,,,,,,,,,,,,,,2,n,1.731,0,1,3.769,1.5,,,,,,28.9323758,0,2.893007023,,,,,,,,,,,,,0,10,10,11,1,0.497943321,1,,,,,,,,,,,,,,,,,,,,,,,,,,,,,,,,,,,,,,,,,,,,,,,,,,,,,,,,,,,,,,,,,,,,,,,,,,,,,,,,
,,60c2b5411e6268b10e6625d6,2022-09-08_12h38.06.720,CGTgamblingSpanTasks,2022.2.1,MacIntel,30.3030303,,,,,,,,2.604,,,,,,,,,,,,,,1,v,1.396,19.36415485,1,3.604,1,,,,,,19.36415485,0,1.966229494,,,,,,,,,,,,,0,11,11,96,1,0.493893111,1,,,,,,,,,,,,,,,,,,,,,,,,,,,,,,,,,,,,,,,,,,,,,,,,,,,,,,,,,,,,,,,,,,,,,,,,,,,,,,,,
,,60c2b5411e6268b10e6625d6,2022-09-08_12h38.06.720,CGTgamblingSpanTasks,2022.2.1,MacIntel,30.3030303,,,,,,,,1.809,,,,,,,,,,,,,,2,v,2.191,6.091504705,0,2.809,1,,,,,,6.662965216,0,6.091504705,,,,,,,,,,,,,0,12,12,102,1,0.035087099,0,,,,,,,,,,,,,,,,,,,,,,,,,,,,,,,,,,,,,,,,,,,,,,,,,,,,,,,,,,,,,,,,,,,,,,,,,,,,,,,,
,,60c2b5411e6268b10e6625d6,2022-09-08_12h38.06.720,CGTgamblingSpanTasks,2022.2.1,MacIntel,30.3030303,,,,,,,,2.242,,,,,,,,,,,,,,1,v,1.758,27.7711693,1,3.242,1,,,,,,27.7711693,0,2.320849632,,,,,,,,,,,,,0,13,13,94,1,0.543786368,1,,,,,,,,,,,,,,,,,,,,,,,,,,,,,,,,,,,,,,,,,,,,,,,,,,,,,,,,,,,,,,,,,,,,,,,,,,,,,,,,
,,60c2b5411e6268b10e6625d6,2022-09-08_12h38.06.720,CGTgamblingSpanTasks,2022.2.1,MacIntel,30.3030303,,,,,,,,2.202,,,,,,,,,,,,,,1,v,1.798,0,1,3.202,1,,,,,,23.24777057,0,2.003482335,,,,,,,,,,,,,0,14,14,59,1,0.536135174,1,,,,,,,,,,,,,,,,,,,,,,,,,,,,,,,,,,,,,,,,,,,,,,,,,,,,,,,,,,,,,,,,,,,,,,,,,,,,,,,,
,,60c2b5411e6268b10e6625d6,2022-09-08_12h38.06.720,CGTgamblingSpanTasks,2022.2.1,MacIntel,30.3030303,,,,,,,,1.612,,,,,,,,,,,,,,1,v,2.388,27.53810185,1,3.112,1.5,,,,,,27.53810185,0,0.097022401,,,,,,,,,,,,,0,15,15,50,1,0.901515865,0,,,,,,,,,,,,,,,,,,,,,,,,,,,,,,,,,,,,,,,,,,,,,,,,,,,,,,,,,,,,,,,,,,,,,,,,,,,,,,,,
,,60c2b5411e6268b10e6625d6,2022-09-08_12h38.06.720,CGTgamblingSpanTasks,2022.2.1,MacIntel,30.3030303,,,,,,,,1.775,,,,,,,,,,,,,,2,n,2.225,0,1,2.775,1,,,,,,27.94544945,0,2.32030209,,,,,,,,,,,,,0,16,16,115,1,0.545390564,1,,,,,,,,,,,,,,,,,,,,,,,,,,,,,,,,,,,,,,,,,,,,,,,,,,,,,,,,,,,,,,,,,,,,,,,,,,,,,,,,
,,60c2b5411e6268b10e6625d6,2022-09-08_12h38.06.720,CGTgamblingSpanTasks,2022.2.1,MacIntel,30.3030303,,,,,,,,2.334,,,,,,,,,,,,,,1,v,1.666,22.72923833,1,3.834,1.5,,,,,,22.72923833,0,0.067170781,,,,,,,,,,,,,0,17,17,86,1,0.907226703,0,,,,,,,,,,,,,,,,,,,,,,,,,,,,,,,,,,,,,,,,,,,,,,,,,,,,,,,,,,,,,,,,,,,,,,,,,,,,,,,,
,,60c2b5411e6268b10e6625d6,2022-09-08_12h38.06.720,CGTgamblingSpanTasks,2022.2.1,MacIntel,30.3030303,,,,,,,,2.143,,,,,,,,,,,,,,2,v,1.857,8.579385201,0,3.643,1.5,,,,,,14.11762686,0,8.579385201,,,,,,,,,,,,,0,18,18,60,1,0.073886959,0,,,,,,,,,,,,,,,,,,,,,,,,,,,,,,,,,,,,,,,,,,,,,,,,,,,,,,,,,,,,,,,,,,,,,,,,,,,,,,,,
,,60c2b5411e6268b10e6625d6,2022-09-08_12h38.06.720,CGTgamblingSpanTasks,2022.2.1,MacIntel,30.3030303,,,,,,,,2.442,,,,,,,,,,,,,,2,n,1.558,0,1,3.442,1,,,,,,19.68065872,0,1.843597162,,,,,,,,,,,,,0,19,19,80,1,0.514941058,1,,,,,,,,,,,,,,,,,,,,,,,,,,,,,,,,,,,,,,,,,,,,,,,,,,,,,,,,,,,,,,,,,,,,,,,,,,,,,,,,
,,60c2b5411e6268b10e6625d6,2022-09-08_12h38.06.720,CGTgamblingSpanTasks,2022.2.1,MacIntel,30.3030303,,,,,,,,2.374,,,,,,,,,,,,,,1,v,1.626,0,1,3.374,1,,,,,,25.65316415,0,0.079652925,,,,,,,,,,,,,0,20,20,109,1,0.90568168,0,,,,,,,,,,,,,,,,,,,,,,,,,,,,,,,,,,,,,,,,,,,,,,,,,,,,,,,,,,,,,,,,,,,,,,,,,,,,,,,,
,,60c2b5411e6268b10e6625d6,2022-09-08_12h38.06.720,CGTgamblingSpanTasks,2022.2.1,MacIntel,30.3030303,,,,,,,,2.008,,,,,,,,,,,,,,2,v,1.992,11.35147481,0,3.008,1,,,,,,17.67865084,0,11.35147481,,,,,,,,,,,,,0,21,21,91,1,0.067304606,0,,,,,,,,,,,,,,,,,,,,,,,,,,,,,,,,,,,,,,,,,,,,,,,,,,,,,,,,,,,,,,,,,,,,,,,,,,,,,,,,
,,60c2b5411e6268b10e6625d6,2022-09-08_12h38.06.720,CGTgamblingSpanTasks,2022.2.1,MacIntel,30.3030303,,,,,,,,2.587,,,,,,,,,,,,,,2,n,1.413,0,1,3.587,1,,,,,,28.94627214,0,2.701896413,,,,,,,,,,,,,0,22,22,111,1,0.515860759,1,,,,,,,,,,,,,,,,,,,,,,,,,,,,,,,,,,,,,,,,,,,,,,,,,,,,,,,,,,,,,,,,,,,,,,,,,,,,,,,,
,,60c2b5411e6268b10e6625d6,2022-09-08_12h38.06.720,CGTgamblingSpanTasks,2022.2.1,MacIntel,30.3030303,,,,,,,,2.008,,,,,,,,,,,,,,1,v,1.992,0,1,3.008,1,,,,,,17.85020524,0,2.058701084,,,,,,,,,,,,,0,23,23,25,1,0.459662216,1,,,,,,,,,,,,,,,,,,,,,,,,,,,,,,,,,,,,,,,,,,,,,,,,,,,,,,,,,,,,,,,,,,,,,,,,,,,,,,,,
,,60c2b5411e6268b10e6625d6,2022-09-08_12h38.06.720,CGTgamblingSpanTasks,2022.2.1,MacIntel,30.3030303,,,,,,,,2.038,,,,,,,,,,,,,,2,v,1.962,2.485985001,0,3.038,1,,,,,,23.4214135,0,2.485985001,,,,,,,,,,,,,0,24,24,81,1,0.482105905,1,,,,,,,,,,,,,,,,,,,,,,,,,,,,,,,,,,,,,,,,,,,,,,,,,,,,,,,,,,,,,,,,,,,,,,,,,,,,,,,,
,,60c2b5411e6268b10e6625d6,2022-09-08_12h38.06.720,CGTgamblingSpanTasks,2022.2.1,MacIntel,30.3030303,,,,,,,,2.609,,,,,,,,,,,,,,2,n,1.391,22.86604061,1,4.109,1.5,,,,,,22.86604061,0,2.293289792,,,,,,,,,,,,,0,25,25,51,1,0.49715382,1,,,,,,,,,,,,,,,,,,,,,,,,,,,,,,,,,,,,,,,,,,,,,,,,,,,,,,,,,,,,,,,,,,,,,,,,,,,,,,,,
,,60c2b5411e6268b10e6625d6,2022-09-08_12h38.06.720,CGTgamblingSpanTasks,2022.2.1,MacIntel,30.3030303,,,,,,,,2.448,,,,,,,,,,,,,,2,n,1.552,27.76752685,1,3.448,1,,,,,,27.76752685,0,0.083968035,,,,,,,,,,,,,0,26,26,13,1,0.906513967,0,,,,,,,,,,,,,,,,,,,,,,,,,,,,,,,,,,,,,,,,,,,,,,,,,,,,,,,,,,,,,,,,,,,,,,,,,,,,,,,,
,,60c2b5411e6268b10e6625d6,2022-09-08_12h38.06.720,CGTgamblingSpanTasks,2022.2.1,MacIntel,30.3030303,,,,,,,,2.276,,,,,,,,,,,,,,1,n,1.724,4.462262453,0,3.276,1,,,,,,0.192759042,0,4.462262453,,,,,,,,,,,,,0,27,27,52,1,0.003553223,0,,,,,,,,,,,,,,,,,,,,,,,,,,,,,,,,,,,,,,,,,,,,,,,,,,,,,,,,,,,,,,,,,,,,,,,,,,,,,,,,
,,60c2b5411e6268b10e6625d6,2022-09-08_12h38.06.720,CGTgamblingSpanTasks,2022.2.1,MacIntel,30.3030303,,,,,,,,2.342,,,,,,,,,,,,,,2,n,1.658,0,1,3.342,1,,,,,,26.36733703,0,2.201057101,,,,,,,,,,,,,0,28,28,90,1,0.544064207,1,,,,,,,,,,,,,,,,,,,,,,,,,,,,,,,,,,,,,,,,,,,,,,,,,,,,,,,,,,,,,,,,,,,,,,,,,,,,,,,,
,,60c2b5411e6268b10e6625d6,2022-09-08_12h38.06.720,CGTgamblingSpanTasks,2022.2.1,MacIntel,30.3030303,,,,,,,,2.636,,,,,,,,,,,,,,2,v,1.364,10.31611309,0,3.636,1,,,,,,19.30622782,0,10.31611309,,,,,,,,,,,,,0,29,29,1,1,0.091105656,0,,,,,,,,,,,,,,,,,,,,,,,,,,,,,,,,,,,,,,,,,,,,,,,,,,,,,,,,,,,,,,,,,,,,,,,,,,,,,,,,
,,60c2b5411e6268b10e6625d6,2022-09-08_12h38.06.720,CGTgamblingSpanTasks,2022.2.1,MacIntel,30.3030303,,,,,,,,2.176,,,,,,,,,,,,,,1,n,1.824,6.781500919,0,3.676,1.5,,,,,,8.363821911,0,6.781500919,,,,,,,,,,,,,0,30,30,61,1,0.044227959,0,,,,,,,,,,,,,,,,,,,,,,,,,,,,,,,,,,,,,,,,,,,,,,,,,,,,,,,,,,,,,,,,,,,,,,,,,,,,,,,,
,,60c2b5411e6268b10e6625d6,2022-09-08_12h38.06.720,CGTgamblingSpanTasks,2022.2.1,MacIntel,30.3030303,,,,,,,,2.534,,,,,,,,,,,,,,2,n,1.466,21.16780451,1,3.534,1,,,,,,21.16780451,0,2.469465385,,,,,,,,,,,,,0,31,31,32,1,0.456531699,1,,,,,,,,,,,,,,,,,,,,,,,,,,,,,,,,,,,,,,,,,,,,,,,,,,,,,,,,,,,,,,,,,,,,,,,,,,,,,,,,
,,60c2b5411e6268b10e6625d6,2022-09-08_12h38.06.720,CGTgamblingSpanTasks,2022.2.1,MacIntel,30.3030303,,,,,,,,2.043,,,,,,,,,,,,,,1,n,1.957,7.50753835,0,3.043,1,,,,,,2.231316635,0,7.50753835,,,,,,,,,,,,,0,32,32,29,1,0.010273427,0,,,,,,,,,,,,,,,,,,,,,,,,,,,,,,,,,,,,,,,,,,,,,,,,,,,,,,,,,,,,,,,,,,,,,,,,,,,,,,,,
,,60c2b5411e6268b10e6625d6,2022-09-08_12h38.06.720,CGTgamblingSpanTasks,2022.2.1,MacIntel,30.3030303,,,,,,,,2.4,,,,,,,,,,,,,,1,n,1.6,9.936178001,0,3.9,1.5,,,,,,19.58698544,0,9.936178001,,,,,,,,,,,,,0,33,33,77,1,0.098812204,0,,,,,,,,,,,,,,,,,,,,,,,,,,,,,,,,,,,,,,,,,,,,,,,,,,,,,,,,,,,,,,,,,,,,,,,,,,,,,,,,
,,60c2b5411e6268b10e6625d6,2022-09-08_12h38.06.720,CGTgamblingSpanTasks,2022.2.1,MacIntel,30.3030303,,,,,,,,2.542,,,,,,,,,,,,,,1,v,1.458,28.13634754,1,4.042,1.5,,,,,,28.13634754,0,2.532806323,,,,,,,,,,,,,0,34,34,28,1,0.525136524,1,,,,,,,,,,,,,,,,,,,,,,,,,,,,,,,,,,,,,,,,,,,,,,,,,,,,,,,,,,,,,,,,,,,,,,,,,,,,,,,,
,,60c2b5411e6268b10e6625d6,2022-09-08_12h38.06.720,CGTgamblingSpanTasks,2022.2.1,MacIntel,30.3030303,,,,,,,,2.543,,,,,,,,,,,,,,2,n,1.457,0,1,3.543,1,,,,,,27.60724521,0,0.088432325,,,,,,,,,,,,,0,35,35,17,1,0.904684186,0,,,,,,,,,,,,,,,,,,,,,,,,,,,,,,,,,,,,,,,,,,,,,,,,,,,,,,,,,,,,,,,,,,,,,,,,,,,,,,,,
,,60c2b5411e6268b10e6625d6,2022-09-08_12h38.06.720,CGTgamblingSpanTasks,2022.2.1,MacIntel,30.3030303,,,,,,,,2.109,,,,,,,,,,,,,,1,v,1.891,0,1,3.609,1.5,,,,,,21.46599803,0,0.059789256,,,,,,,,,,,,,0,36,36,8,1,0.909019081,0,,,,,,,,,,,,,,,,,,,,,,,,,,,,,,,,,,,,,,,,,,,,,,,,,,,,,,,,,,,,,,,,,,,,,,,,,,,,,,,,
,,60c2b5411e6268b10e6625d6,2022-09-08_12h38.06.720,CGTgamblingSpanTasks,2022.2.1,MacIntel,30.3030303,,,,,,,,1.476,,,,,,,,,,,,,,1,v,2.524,0,1,2.976,1.5,,,,,,27.93093084,0,0.050207531,,,,,,,,,,,,,0,37,37,83,1,0.920505936,0,,,,,,,,,,,,,,,,,,,,,,,,,,,,,,,,,,,,,,,,,,,,,,,,,,,,,,,,,,,,,,,,,,,,,,,,,,,,,,,,
,,60c2b5411e6268b10e6625d6,2022-09-08_12h38.06.720,CGTgamblingSpanTasks,2022.2.1,MacIntel,30.3030303,,,,,,,,1.501,,,,,,,,,,,,,,1,v,2.499,7.066129113,1,3.001,1.5,,,,,,7.066129113,0,0.585581699,,,,,,,,,,,,,0,38,38,19,1,0.545860632,1,,,,,,,,,,,,,,,,,,,,,,,,,,,,,,,,,,,,,,,,,,,,,,,,,,,,,,,,,,,,,,,,,,,,,,,,,,,,,,,,
,,60c2b5411e6268b10e6625d6,2022-09-08_12h38.06.720,CGTgamblingSpanTasks,2022.2.1,MacIntel,30.3030303,,,,,,,,2.081,,,,,,,,,,,,,,1,v,1.919,13.4287264,1,3.581,1.5,,,,,,13.4287264,0,1.317368801,,,,,,,,,,,,,0,39,39,100,1,0.502953125,1,,,,,,,,,,,,,,,,,,,,,,,,,,,,,,,,,,,,,,,,,,,,,,,,,,,,,,,,,,,,,,,,,,,,,,,,,,,,,,,,
,,60c2b5411e6268b10e6625d6,2022-09-08_12h38.06.720,CGTgamblingSpanTasks,2022.2.1,MacIntel,30.3030303,,,,,,,,2.41,,,,,,,,,,,,,,2,n,1.59,27.38828234,1,3.91,1.5,,,,,,27.38828234,0,0.0639233,,,,,,,,,,,,,0,40,40,43,1,0.914010176,0,,,,,,,,,,,,,,,,,,,,,,,,,,,,,,,,,,,,,,,,,,,,,,,,,,,,,,,,,,,,,,,,,,,,,,,,,,,,,,,,
,,60c2b5411e6268b10e6625d6,2022-09-08_12h38.06.720,CGTgamblingSpanTasks,2022.2.1,MacIntel,30.3030303,,,,,,,,2.469,,,,,,,,,,,,,,2,n,1.531,20.5726842,1,3.969,1.5,,,,,,20.5726842,0,0.073558523,,,,,,,,,,,,,0,41,41,26,1,0.901008565,0,,,,,,,,,,,,,,,,,,,,,,,,,,,,,,,,,,,,,,,,,,,,,,,,,,,,,,,,,,,,,,,,,,,,,,,,,,,,,,,,
,,60c2b5411e6268b10e6625d6,2022-09-08_12h38.06.720,CGTgamblingSpanTasks,2022.2.1,MacIntel,30.3030303,,,,,,,,2.813,,,,,,,,,,,,,,1,v,1.187,0,1,4.313,1.5,,,,,,29.76099779,0,0.095763086,,,,,,,,,,,,,0,42,42,35,1,0.904537896,0,,,,,,,,,,,,,,,,,,,,,,,,,,,,,,,,,,,,,,,,,,,,,,,,,,,,,,,,,,,,,,,,,,,,,,,,,,,,,,,,
,,60c2b5411e6268b10e6625d6,2022-09-08_12h38.06.720,CGTgamblingSpanTasks,2022.2.1,MacIntel,30.3030303,,,,,,,,2.176,,,,,,,,,,,,,,1,n,1.824,4.904872644,0,3.676,1.5,,,,,,4.698775357,0,4.904872644,,,,,,,,,,,,,0,43,43,75,1,0.028064484,0,,,,,,,,,,,,,,,,,,,,,,,,,,,,,,,,,,,,,,,,,,,,,,,,,,,,,,,,,,,,,,,,,,,,,,,,,,,,,,,,
,,60c2b5411e6268b10e6625d6,2022-09-08_12h38.06.720,CGTgamblingSpanTasks,2022.2.1,MacIntel,30.3030303,,,,,,,,2.142,,,,,,,,,,,,,,2,n,1.858,22.0050376,1,3.642,1.5,,,,,,22.0050376,0,2.257683666,,,,,,,,,,,,,0,44,44,4,1,0.491147312,1,,,,,,,,,,,,,,,,,,,,,,,,,,,,,,,,,,,,,,,,,,,,,,,,,,,,,,,,,,,,,,,,,,,,,,,,,,,,,,,,
,,60c2b5411e6268b10e6625d6,2022-09-08_12h38.06.720,CGTgamblingSpanTasks,2022.2.1,MacIntel,30.3030303,,,,,,,,2.009,,,,,,,,,,,,,,1,n,1.991,11.6744431,0,3.009,1,,,,,,10.43004651,0,11.6744431,,,,,,,,,,,,,0,45,45,15,1,0.026176489,0,,,,,,,,,,,,,,,,,,,,,,,,,,,,,,,,,,,,,,,,,,,,,,,,,,,,,,,,,,,,,,,,,,,,,,,,,,,,,,,,
,,60c2b5411e6268b10e6625d6,2022-09-08_12h38.06.720,CGTgamblingSpanTasks,2022.2.1,MacIntel,30.3030303,,,,,,,,2.51,,,,,,,,,,,,,,1,v,1.49,22.62475578,1,3.51,1,,,,,,22.62475578,0,2.397643354,,,,,,,,,,,,,0,46,46,93,1,0.482527609,1,,,,,,,,,,,,,,,,,,,,,,,,,,,,,,,,,,,,,,,,,,,,,,,,,,,,,,,,,,,,,,,,,,,,,,,,,,,,,,,,
,,60c2b5411e6268b10e6625d6,2022-09-08_12h38.06.720,CGTgamblingSpanTasks,2022.2.1,MacIntel,30.3030303,,,,,,,,2.304,,,,,,,,,,,,,,1,n,1.696,6.833409611,0,3.804,1.5,,,,,,6.325091157,0,6.833409611,,,,,,,,,,,,,0,47,47,58,1,0.027113638,0,,,,,,,,,,,,,,,,,,,,,,,,,,,,,,,,,,,,,,,,,,,,,,,,,,,,,,,,,,,,,,,,,,,,,,,,,,,,,,,,
,,60c2b5411e6268b10e6625d6,2022-09-08_12h38.06.720,CGTgamblingSpanTasks,2022.2.1,MacIntel,30.3030303,,,,,,,,2.678,,,,,,,,,,,,,,1,v,1.322,28.33977875,1,4.178,1.5,,,,,,28.33977875,0,2.768313633,,,,,,,,,,,,,0,48,48,116,1,0.50406901,1,,,,,,,,,,,,,,,,,,,,,,,,,,,,,,,,,,,,,,,,,,,,,,,,,,,,,,,,,,,,,,,,,,,,,,,,,,,,,,,,
,,60c2b5411e6268b10e6625d6,2022-09-08_12h38.06.720,CGTgamblingSpanTasks,2022.2.1,MacIntel,30.3030303,,,,,,,,2.482,,,,,,,,,,,,,,2,n,1.518,21.39646914,1,3.982,1.5,,,,,,21.39646914,0,0.072474078,,,,,,,,,,,,,0,49,49,3,1,0.902848133,0,,,,,,,,,,,,,,,,,,,,,,,,,,,,,,,,,,,,,,,,,,,,,,,,,,,,,,,,,,,,,,,,,,,,,,,,,,,,,,,,
,,60c2b5411e6268b10e6625d6,2022-09-08_12h38.06.720,CGTgamblingSpanTasks,2022.2.1,MacIntel,30.3030303,,,,,,,,1.642,,,,,,,,,,,,,,1,v,2.358,0,1,2.642,1,,,,,,8.217594828,0,0.951019374,,,,,,,,,,,,,0,50,50,87,1,0.458722936,1,,,,,,,,,,,,,,,,,,,,,,,,,,,,,,,,,,,,,,,,,,,,,,,,,,,,,,,,,,,,,,,,,,,,,,,,,,,,,,,,
,,60c2b5411e6268b10e6625d6,2022-09-08_12h38.06.720,CGTgamblingSpanTasks,2022.2.1,MacIntel,30.3030303,,,,,,,,2.344,,,,,,,,,,,,,,1,n,1.656,11.93550497,0,3.344,1,,,,,,14.20587264,0,11.93550497,,,,,,,,,,,,,0,51,51,21,1,0.041340301,0,,,,,,,,,,,,,,,,,,,,,,,,,,,,,,,,,,,,,,,,,,,,,,,,,,,,,,,,,,,,,,,,,,,,,,,,,,,,,,,,
,,60c2b5411e6268b10e6625d6,2022-09-08_12h38.06.720,CGTgamblingSpanTasks,2022.2.1,MacIntel,30.3030303,,,,,,,,2.342,,,,,,,,,,,,,,2,n,1.658,24.479109,1,3.842,1.5,,,,,,24.479109,0,0.089582697,,,,,,,,,,,,,0,52,52,89,1,0.900200232,0,,,,,,,,,,,,,,,,,,,,,,,,,,,,,,,,,,,,,,,,,,,,,,,,,,,,,,,,,,,,,,,,,,,,,,,,,,,,,,,,
,,60c2b5411e6268b10e6625d6,2022-09-08_12h38.06.720,CGTgamblingSpanTasks,2022.2.1,MacIntel,30.3030303,,,,,,,,0.874,,,,,,,,,,,,,,2,n,3.126,0,1,2.374,1.5,,,,,,14.3363647,0,1.396635362,,,,,,,,,,,,,0,53,53,78,1,0.504775474,1,,,,,,,,,,,,,,,,,,,,,,,,,,,,,,,,,,,,,,,,,,,,,,,,,,,,,,,,,,,,,,,,,,,,,,,,,,,,,,,,
,,60c2b5411e6268b10e6625d6,2022-09-08_12h38.06.720,CGTgamblingSpanTasks,2022.2.1,MacIntel,30.3030303,,,,,,,,2.675,,,,,,,,,,,,,,1,v,1.325,27.77179191,1,3.675,1,,,,,,27.77179191,0,0.074524436,,,,,,,,,,,,,0,54,54,99,1,0.910114387,0,,,,,,,,,,,,,,,,,,,,,,,,,,,,,,,,,,,,,,,,,,,,,,,,,,,,,,,,,,,,,,,,,,,,,,,,,,,,,,,,
,,60c2b5411e6268b10e6625d6,2022-09-08_12h38.06.720,CGTgamblingSpanTasks,2022.2.1,MacIntel,30.3030303,,,,,,,,2.643,,,,,,,,,,,,,,1,v,1.357,0,1,3.643,1,,,,,,29.75778644,0,2.810531415,,,,,,,,,,,,,0,55,55,113,1,0.512824233,1,,,,,,,,,,,,,,,,,,,,,,,,,,,,,,,,,,,,,,,,,,,,,,,,,,,,,,,,,,,,,,,,,,,,,,,,,,,,,,,,
,,60c2b5411e6268b10e6625d6,2022-09-08_12h38.06.720,CGTgamblingSpanTasks,2022.2.1,MacIntel,30.3030303,,,,,,,,1.508,,,,,,,,,,,,,,1,v,2.492,0,1,2.508,1,,,,,,15.43649625,0,1.65459324,,,,,,,,,,,,,0,56,56,33,1,0.479480163,1,,,,,,,,,,,,,,,,,,,,,,,,,,,,,,,,,,,,,,,,,,,,,,,,,,,,,,,,,,,,,,,,,,,,,,,,,,,,,,,,
,,60c2b5411e6268b10e6625d6,2022-09-08_12h38.06.720,CGTgamblingSpanTasks,2022.2.1,MacIntel,30.3030303,,,,,,,,2.41,,,,,,,,,,,,,,1,n,1.59,11.42134125,0,3.91,1.5,,,,,,12.9904115,0,11.42134125,,,,,,,,,,,,,0,57,57,118,1,0.037876033,0,,,,,,,,,,,,,,,,,,,,,,,,,,,,,,,,,,,,,,,,,,,,,,,,,,,,,,,,,,,,,,,,,,,,,,,,,,,,,,,,
,,60c2b5411e6268b10e6625d6,2022-09-08_12h38.06.720,CGTgamblingSpanTasks,2022.2.1,MacIntel,30.3030303,,,,,,,,2.576,,,,,,,,,,,,,,1,v,1.424,28.68598705,1,3.576,1,,,,,,28.68598705,0,0.050674956,,,,,,,,,,,,,0,58,58,62,1,0.920905497,0,,,,,,,,,,,,,,,,,,,,,,,,,,,,,,,,,,,,,,,,,,,,,,,,,,,,,,,,,,,,,,,,,,,,,,,,,,,,,,,,
,,60c2b5411e6268b10e6625d6,2022-09-08_12h38.06.720,CGTgamblingSpanTasks,2022.2.1,MacIntel,30.3030303,,,,,,,,2.642,,,,,,,,,,,,,,1,v,1.358,0,1,4.142,1.5,,,,,,29.30724159,0,3.247012935,,,,,,,,,,,,,0,59,59,71,1,0.470571125,1,,,,,,,,,,,,,,,,,,,,,,,,,,,,,,,,,,,,,,,,,,,,,,,,,,,,,,,,,,,,,,,,,,,,,,,,,,,,,,,,
,,60c2b5411e6268b10e6625d6,2022-09-08_12h38.06.720,CGTgamblingSpanTasks,2022.2.1,MacIntel,30.3030303,,,,,,,,1.969,,,,,,,,,,,,,,2,n,2.031,0,1,3.469,1.5,,,,,,7.534278541,0,0.747140182,,,,,,,,,,,,,0,60,60,37,1,0.50012466,1,,,,,,,,,,,,,,,,,,,,,,,,,,,,,,,,,,,,,,,,,,,,,,,,,,,,,,,,,,,,,,,,,,,,,,,,,,,,,,,,
,,60c2b5411e6268b10e6625d6,2022-09-08_12h38.06.720,CGTgamblingSpanTasks,2022.2.1,MacIntel,30.3030303,,,,,,,,2.178,,,,,,,,,,,,,,2,v,1.822,11.39288827,0,3.678,1.5,,,,,,20.97851654,0,11.39288827,,,,,,,,,,,,,0,61,61,2,1,0.088791079,0,,,,,,,,,,,,,,,,,,,,,,,,,,,,,,,,,,,,,,,,,,,,,,,,,,,,,,,,,,,,,,,,,,,,,,,,,,,,,,,,
,,60c2b5411e6268b10e6625d6,2022-09-08_12h38.06.720,CGTgamblingSpanTasks,2022.2.1,MacIntel,30.3030303,,,,,,,,2.456,,,,,,,,,,,,,,2,v,1.544,11.61882862,0,3.956,1.5,,,,,,4.022743614,0,11.61882862,,,,,,,,,,,,,0,62,62,38,1,0.011499376,0,,,,,,,,,,,,,,,,,,,,,,,,,,,,,,,,,,,,,,,,,,,,,,,,,,,,,,,,,,,,,,,,,,,,,,,,,,,,,,,,
,,60c2b5411e6268b10e6625d6,2022-09-08_12h38.06.720,CGTgamblingSpanTasks,2022.2.1,MacIntel,30.3030303,,,,,,,,1.58,,,,,,,,,,,,,,2,n,2.42,11.08143071,1,2.58,1,,,,,,11.08143071,0,1.207538756,,,,,,,,,,,,,0,63,63,84,1,0.475047453,1,,,,,,,,,,,,,,,,,,,,,,,,,,,,,,,,,,,,,,,,,,,,,,,,,,,,,,,,,,,,,,,,,,,,,,,,,,,,,,,,
,,60c2b5411e6268b10e6625d6,2022-09-08_12h38.06.720,CGTgamblingSpanTasks,2022.2.1,MacIntel,30.3030303,,,,,,,,2.709,,,,,,,,,,,,,,2,v,1.291,8.512335864,0,3.709,1,,,,,,10.05300841,0,8.512335864,,,,,,,,,,,,,0,64,64,74,1,0.040729225,0,,,,,,,,,,,,,,,,,,,,,,,,,,,,,,,,,,,,,,,,,,,,,,,,,,,,,,,,,,,,,,,,,,,,,,,,,,,,,,,,
,,60c2b5411e6268b10e6625d6,2022-09-08_12h38.06.720,CGTgamblingSpanTasks,2022.2.1,MacIntel,30.3030303,,,,,,,,2.627,,,,,,,,,,,,,,1,v,1.373,0,1,3.627,1,,,,,,24.57684014,0,0.061756244,,,,,,,,,,,,,0,65,65,68,1,0.911988903,0,,,,,,,,,,,,,,,,,,,,,,,,,,,,,,,,,,,,,,,,,,,,,,,,,,,,,,,,,,,,,,,,,,,,,,,,,,,,,,,,
,,60c2b5411e6268b10e6625d6,2022-09-08_12h38.06.720,CGTgamblingSpanTasks,2022.2.1,MacIntel,30.3030303,,,,,,,,2.712,,,,,,,,,,,,,,2,n,1.288,0,1,3.712,1,,,,,,28.18900855,0,0.05384276,,,,,,,,,,,,,0,66,66,55,1,0.919081308,0,,,,,,,,,,,,,,,,,,,,,,,,,,,,,,,,,,,,,,,,,,,,,,,,,,,,,,,,,,,,,,,,,,,,,,,,,,,,,,,,
,,60c2b5411e6268b10e6625d6,2022-09-08_12h38.06.720,CGTgamblingSpanTasks,2022.2.1,MacIntel,30.3030303,,,,,,,,2.078,,,,,,,,,,,,,,1,v,1.922,25.54604005,1,3.078,1,,,,,,25.54604005,0,0.088845411,,,,,,,,,,,,,0,67,67,79,1,0.901957831,0,,,,,,,,,,,,,,,,,,,,,,,,,,,,,,,,,,,,,,,,,,,,,,,,,,,,,,,,,,,,,,,,,,,,,,,,,,,,,,,,
,,60c2b5411e6268b10e6625d6,2022-09-08_12h38.06.720,CGTgamblingSpanTasks,2022.2.1,MacIntel,30.3030303,,,,,,,,2,,,,,,,,,,,,,,2,n,2,25.76582409,1,3,1,,,,,,25.76582409,0,2.393193076,,,,,,,,,,,,,0,68,68,46,1,0.517129855,1,,,,,,,,,,,,,,,,,,,,,,,,,,,,,,,,,,,,,,,,,,,,,,,,,,,,,,,,,,,,,,,,,,,,,,,,,,,,,,,,
,,60c2b5411e6268b10e6625d6,2022-09-08_12h38.06.720,CGTgamblingSpanTasks,2022.2.1,MacIntel,30.3030303,,,,,,,,1.876,,,,,,,,,,,,,,2,n,2.124,18.20422443,1,2.876,1,,,,,,18.20422443,0,1.635040165,,,,,,,,,,,,,0,69,69,82,1,0.525708991,1,,,,,,,,,,,,,,,,,,,,,,,,,,,,,,,,,,,,,,,,,,,,,,,,,,,,,,,,,,,,,,,,,,,,,,,,,,,,,,,,
,,60c2b5411e6268b10e6625d6,2022-09-08_12h38.06.720,CGTgamblingSpanTasks,2022.2.1,MacIntel,30.3030303,,,,,,,,2.609,,,,,,,,,,,,,,1,v,1.391,0,1,4.109,1.5,,,,,,26.11188619,0,0.081942421,,,,,,,,,,,,,0,70,70,105,1,0.905343856,0,,,,,,,,,,,,,,,,,,,,,,,,,,,,,,,,,,,,,,,,,,,,,,,,,,,,,,,,,,,,,,,,,,,,,,,,,,,,,,,,
,,60c2b5411e6268b10e6625d6,2022-09-08_12h38.06.720,CGTgamblingSpanTasks,2022.2.1,MacIntel,30.3030303,,,,,,,,1.942,,,,,,,,,,,,,,2,v,2.058,3.877530383,0,2.942,1,,,,,,3.471484939,0,3.877530383,,,,,,,,,,,,,0,71,71,40,1,0.02623078,0,,,,,,,,,,,,,,,,,,,,,,,,,,,,,,,,,,,,,,,,,,,,,,,,,,,,,,,,,,,,,,,,,,,,,,,,,,,,,,,,
,,60c2b5411e6268b10e6625d6,2022-09-08_12h38.06.720,CGTgamblingSpanTasks,2022.2.1,MacIntel,30.3030303,,,,,,,,2.575,,,,,,,,,,,,,,2,n,1.425,0,1,4.075,1.5,,,,,,21.17800335,0,0.059830985,,,,,,,,,,,,,0,72,72,67,1,0.908594974,0,,,,,,,,,,,,,,,,,,,,,,,,,,,,,,,,,,,,,,,,,,,,,,,,,,,,,,,,,,,,,,,,,,,,,,,,,,,,,,,,
,,60c2b5411e6268b10e6625d6,2022-09-08_12h38.06.720,CGTgamblingSpanTasks,2022.2.1,MacIntel,30.3030303,,,,,,,,2.677,,,,,,,,,,,,,,1,v,1.323,0,1,4.177,1.5,,,,,,23.59556381,0,2.464662219,,,,,,,,,,,,,0,73,73,22,1,0.486383205,1,,,,,,,,,,,,,,,,,,,,,,,,,,,,,,,,,,,,,,,,,,,,,,,,,,,,,,,,,,,,,,,,,,,,,,,,,,,,,,,,
,,60c2b5411e6268b10e6625d6,2022-09-08_12h38.06.720,CGTgamblingSpanTasks,2022.2.1,MacIntel,30.3030303,,,,,,,,1.61,,,,,,,,,,,,,,1,v,2.39,18.51345298,1,2.61,1,,,,,,18.51345298,0,1.932334278,,,,,,,,,,,,,0,74,74,31,1,0.48658696,1,,,,,,,,,,,,,,,,,,,,,,,,,,,,,,,,,,,,,,,,,,,,,,,,,,,,,,,,,,,,,,,,,,,,,,,,,,,,,,,,
,,60c2b5411e6268b10e6625d6,2022-09-08_12h38.06.720,CGTgamblingSpanTasks,2022.2.1,MacIntel,30.3030303,,,,,,,,2.51,,,,,,,,,,,,,,1,v,1.49,27.12325385,1,3.51,1,,,,,,27.12325385,0,0.080932047,,,,,,,,,,,,,0,75,75,14,1,0.906929184,0,,,,,,,,,,,,,,,,,,,,,,,,,,,,,,,,,,,,,,,,,,,,,,,,,,,,,,,,,,,,,,,,,,,,,,,,,,,,,,,,
,,60c2b5411e6268b10e6625d6,2022-09-08_12h38.06.720,CGTgamblingSpanTasks,2022.2.1,MacIntel,30.3030303,,,,,,,,2.309,,,,,,,,,,,,,,2,v,1.691,10.68505773,0,3.809,1.5,,,,,,17.64114152,0,10.68505773,,,,,,,,,,,,,0,76,76,98,1,0.074299362,0,,,,,,,,,,,,,,,,,,,,,,,,,,,,,,,,,,,,,,,,,,,,,,,,,,,,,,,,,,,,,,,,,,,,,,,,,,,,,,,,
,,60c2b5411e6268b10e6625d6,2022-09-08_12h38.06.720,CGTgamblingSpanTasks,2022.2.1,MacIntel,30.3030303,,,,,,,,2.675,,,,,,,,,,,,,,2,n,1.325,20.31034258,1,4.175,1.5,,,,,,20.31034258,0,1.870404296,,,,,,,,,,,,,0,77,77,85,1,0.519325853,1,,,,,,,,,,,,,,,,,,,,,,,,,,,,,,,,,,,,,,,,,,,,,,,,,,,,,,,,,,,,,,,,,,,,,,,,,,,,,,,,
,,60c2b5411e6268b10e6625d6,2022-09-08_12h38.06.720,CGTgamblingSpanTasks,2022.2.1,MacIntel,30.3030303,,,,,,,,2.476,,,,,,,,,,,,,,2,n,1.524,23.0613391,1,3.476,1,,,,,,23.0613391,0,2.387726776,,,,,,,,,,,,,0,78,78,69,1,0.488727763,1,,,,,,,,,,,,,,,,,,,,,,,,,,,,,,,,,,,,,,,,,,,,,,,,,,,,,,,,,,,,,,,,,,,,,,,,,,,,,,,,
,,60c2b5411e6268b10e6625d6,2022-09-08_12h38.06.720,CGTgamblingSpanTasks,2022.2.1,MacIntel,30.3030303,,,,,,,,2.05,,,,,,,,,,,,,,2,v,1.95,7.646213173,0,3.05,1,,,,,,2.042350179,0,7.646213173,,,,,,,,,,,,,0,79,79,53,1,0.009522273,0,,,,,,,,,,,,,,,,,,,,,,,,,,,,,,,,,,,,,,,,,,,,,,,,,,,,,,,,,,,,,,,,,,,,,,,,,,,,,,,,
,,60c2b5411e6268b10e6625d6,2022-09-08_12h38.06.720,CGTgamblingSpanTasks,2022.2.1,MacIntel,30.3030303,,,,,,,,2.076,,,,,,,,,,,,,,2,v,1.924,8.830252162,0,3.576,1.5,,,,,,15.73000491,0,8.830252162,,,,,,,,,,,,,0,80,80,95,1,0.084193143,0,,,,,,,,,,,,,,,,,,,,,,,,,,,,,,,,,,,,,,,,,,,,,,,,,,,,,,,,,,,,,,,,,,,,,,,,,,,,,,,,
,,60c2b5411e6268b10e6625d6,2022-09-08_12h38.06.720,CGTgamblingSpanTasks,2022.2.1,MacIntel,30.3030303,,,,,,,,2.176,,,,,,,,,,,,,,1,v,1.824,27.88092897,1,3.676,1.5,,,,,,27.88092897,0,2.771762788,,,,,,,,,,,,,0,81,81,117,1,0.499466648,1,,,,,,,,,,,,,,,,,,,,,,,,,,,,,,,,,,,,,,,,,,,,,,,,,,,,,,,,,,,,,,,,,,,,,,,,,,,,,,,,
,,60c2b5411e6268b10e6625d6,2022-09-08_12h38.06.720,CGTgamblingSpanTasks,2022.2.1,MacIntel,30.3030303,,,,,,,,2.483,,,,,,,,,,,,,,2,n,1.517,0,1,3.983,1.5,,,,,,17.5608285,0,1.825111303,,,,,,,,,,,,,0,82,82,104,1,0.487721116,1,,,,,,,,,,,,,,,,,,,,,,,,,,,,,,,,,,,,,,,,,,,,,,,,,,,,,,,,,,,,,,,,,,,,,,,,,,,,,,,,
,,60c2b5411e6268b10e6625d6,2022-09-08_12h38.06.720,CGTgamblingSpanTasks,2022.2.1,MacIntel,30.3030303,,,,,,,,2.409,,,,,,,,,,,,,,2,n,1.591,27.57491653,1,3.909,1.5,,,,,,27.57491653,0,2.99133314,,,,,,,,,,,,,0,83,83,10,1,0.47625893,1,,,,,,,,,,,,,,,,,,,,,,,,,,,,,,,,,,,,,,,,,,,,,,,,,,,,,,,,,,,,,,,,,,,,,,,,,,,,,,,,
,,60c2b5411e6268b10e6625d6,2022-09-08_12h38.06.720,CGTgamblingSpanTasks,2022.2.1,MacIntel,30.3030303,,,,,,,,2.345,,,,,,,,,,,,,,2,n,1.655,21.7711579,1,3.845,1.5,,,,,,21.7711579,0,2.502728921,,,,,,,,,,,,,0,84,84,101,1,0.460552621,1,,,,,,,,,,,,,,,,,,,,,,,,,,,,,,,,,,,,,,,,,,,,,,,,,,,,,,,,,,,,,,,,,,,,,,,,,,,,,,,,
,,60c2b5411e6268b10e6625d6,2022-09-08_12h38.06.720,CGTgamblingSpanTasks,2022.2.1,MacIntel,30.3030303,,,,,,,,2.54,,,,,,,,,,,,,,2,n,1.46,25.56803059,1,3.54,1,,,,,,25.56803059,0,2.543951743,,,,,,,,,,,,,0,85,85,41,1,0.499247217,1,,,,,,,,,,,,,,,,,,,,,,,,,,,,,,,,,,,,,,,,,,,,,,,,,,,,,,,,,,,,,,,,,,,,,,,,,,,,,,,,
,,60c2b5411e6268b10e6625d6,2022-09-08_12h38.06.720,CGTgamblingSpanTasks,2022.2.1,MacIntel,30.3030303,,,,,,,,2.543,,,,,,,,,,,,,,1,v,1.457,29.77342428,1,4.043,1.5,,,,,,29.77342428,0,2.838865588,,,,,,,,,,,,,0,86,86,57,1,0.510363415,1,,,,,,,,,,,,,,,,,,,,,,,,,,,,,,,,,,,,,,,,,,,,,,,,,,,,,,,,,,,,,,,,,,,,,,,,,,,,,,,,
,,60c2b5411e6268b10e6625d6,2022-09-08_12h38.06.720,CGTgamblingSpanTasks,2022.2.1,MacIntel,30.3030303,,,,,,,,2.307,,,,,,,,,,,,,,1,v,1.693,24.8002852,1,3.307,1,,,,,,24.8002852,0,0.071848086,,,,,,,,,,,,,0,87,87,16,1,0.90783559,0,,,,,,,,,,,,,,,,,,,,,,,,,,,,,,,,,,,,,,,,,,,,,,,,,,,,,,,,,,,,,,,,,,,,,,,,,,,,,,,,
,,60c2b5411e6268b10e6625d6,2022-09-08_12h38.06.720,CGTgamblingSpanTasks,2022.2.1,MacIntel,30.3030303,,,,,,,,2.671,,,,,,,,,,,,,,1,n,1.329,4.251676631,0,3.671,1,,,,,,3.395192929,0,4.251676631,,,,,,,,,,,,,0,88,88,7,1,0.023467153,0,,,,,,,,,,,,,,,,,,,,,,,,,,,,,,,,,,,,,,,,,,,,,,,,,,,,,,,,,,,,,,,,,,,,,,,,,,,,,,,,
,,60c2b5411e6268b10e6625d6,2022-09-08_12h38.06.720,CGTgamblingSpanTasks,2022.2.1,MacIntel,30.3030303,,,,,,,,2.647,,,,,,,,,,,,,,2,n,1.353,0,1,4.147,1.5,,,,,,25.0707644,0,0.067651625,,,,,,,,,,,,,0,89,89,70,1,0.909952349,0,,,,,,,,,,,,,,,,,,,,,,,,,,,,,,,,,,,,,,,,,,,,,,,,,,,,,,,,,,,,,,,,,,,,,,,,,,,,,,,,
,,60c2b5411e6268b10e6625d6,2022-09-08_12h38.06.720,CGTgamblingSpanTasks,2022.2.1,MacIntel,30.3030303,,,,,,,,2.378,,,,,,,,,,,,,,2,n,1.622,0,1,3.878,1.5,,,,,,11.16819157,0,0.941456753,,,,,,,,,,,,,0,90,90,45,1,0.54163803,1,,,,,,,,,,,,,,,,,,,,,,,,,,,,,,,,,,,,,,,,,,,,,,,,,,,,,,,,,,,,,,,,,,,,,,,,,,,,,,,,
,,60c2b5411e6268b10e6625d6,2022-09-08_12h38.06.720,CGTgamblingSpanTasks,2022.2.1,MacIntel,30.3030303,,,,,,,,2.232,,,,,,,,,,,,,,1,n,1.768,11.41737518,0,3.732,1.5,,,,,,18.11029021,0,11.41737518,,,,,,,,,,,,,0,91,91,48,1,0.069445859,0,,,,,,,,,,,,,,,,,,,,,,,,,,,,,,,,,,,,,,,,,,,,,,,,,,,,,,,,,,,,,,,,,,,,,,,,,,,,,,,,
,,60c2b5411e6268b10e6625d6,2022-09-08_12h38.06.720,CGTgamblingSpanTasks,2022.2.1,MacIntel,30.3030303,,,,,,,,2.136,,,,,,,,,,,,,,2,v,1.864,8.42547829,0,3.636,1.5,,,,,,15.87668502,0,8.42547829,,,,,,,,,,,,,0,92,92,56,1,0.092099462,0,,,,,,,,,,,,,,,,,,,,,,,,,,,,,,,,,,,,,,,,,,,,,,,,,,,,,,,,,,,,,,,,,,,,,,,,,,,,,,,,
,,60c2b5411e6268b10e6625d6,2022-09-08_12h38.06.720,CGTgamblingSpanTasks,2022.2.1,MacIntel,30.3030303,,,,,,,,2.341,,,,,,,,,,,,,,1,v,1.659,18.16238569,1,3.841,1.5,,,,,,18.16238569,0,1.540604093,,,,,,,,,,,,,0,93,93,34,1,0.540092491,1,,,,,,,,,,,,,,,,,,,,,,,,,,,,,,,,,,,,,,,,,,,,,,,,,,,,,,,,,,,,,,,,,,,,,,,,,,,,,,,,
,,60c2b5411e6268b10e6625d6,2022-09-08_12h38.06.720,CGTgamblingSpanTasks,2022.2.1,MacIntel,30.3030303,,,,,,,,2.342,,,,,,,,,,,,,,2,n,1.658,0,1,3.342,1,,,,,,27.4965044,0,2.461467004,,,,,,,,,,,,,0,94,94,36,1,0.526550878,1,,,,,,,,,,,,,,,,,,,,,,,,,,,,,,,,,,,,,,,,,,,,,,,,,,,,,,,,,,,,,,,,,,,,,,,,,,,,,,,,
,,60c2b5411e6268b10e6625d6,2022-09-08_12h38.06.720,CGTgamblingSpanTasks,2022.2.1,MacIntel,30.3030303,,,,,,,,2.711,,,,,,,,,,,,,,2,n,1.289,27.37527992,1,3.711,1,,,,,,27.37527992,0,2.860319095,,,,,,,,,,,,,0,95,95,39,1,0.486304156,1,,,,,,,,,,,,,,,,,,,,,,,,,,,,,,,,,,,,,,,,,,,,,,,,,,,,,,,,,,,,,,,,,,,,,,,,,,,,,,,,
,,60c2b5411e6268b10e6625d6,2022-09-08_12h38.06.720,CGTgamblingSpanTasks,2022.2.1,MacIntel,30.3030303,,,,,,,,2.202,,,,,,,,,,,,,,1,v,1.798,19.5450126,1,3.202,1,,,,,,19.5450126,0,2.123581464,,,,,,,,,,,,,0,96,96,65,1,0.475836144,1,,,,,,,,,,,,,,,,,,,,,,,,,,,,,,,,,,,,,,,,,,,,,,,,,,,,,,,,,,,,,,,,,,,,,,,,,,,,,,,,
,,60c2b5411e6268b10e6625d6,2022-09-08_12h38.06.720,CGTgamblingSpanTasks,2022.2.1,MacIntel,30.3030303,,,,,,,,2.273,,,,,,,,,,,,,,2,v,1.727,8.653432553,0,3.773,1.5,,,,,,15.13999312,0,8.653432553,,,,,,,,,,,,,0,97,97,54,1,0.081767484,0,,,,,,,,,,,,,,,,,,,,,,,,,,,,,,,,,,,,,,,,,,,,,,,,,,,,,,,,,,,,,,,,,,,,,,,,,,,,,,,,
,,60c2b5411e6268b10e6625d6,2022-09-08_12h38.06.720,CGTgamblingSpanTasks,2022.2.1,MacIntel,30.3030303,,,,,,,,2.509,,,,,,,,,,,,,,2,n,1.491,0,1,4.009,1.5,,,,,,25.26994993,0,2.78925142,,,,,,,,,,,,,0,98,98,108,1,0.471582922,1,,,,,,,,,,,,,,,,,,,,,,,,,,,,,,,,,,,,,,,,,,,,,,,,,,,,,,,,,,,,,,,,,,,,,,,,,,,,,,,,
,,60c2b5411e6268b10e6625d6,2022-09-08_12h38.06.720,CGTgamblingSpanTasks,2022.2.1,MacIntel,30.3030303,,,,,,,,0.943,,,,,,,,,,,,,,2,n,3.057,17.30137174,1,2.443,1.5,,,,,,17.30137174,0,1.716380842,,,,,,,,,,,,,0,99,99,20,1,0.500020285,1,,,,,,,,,,,,,,,,,,,,,,,,,,,,,,,,,,,,,,,,,,,,,,,,,,,,,,,,,,,,,,,,,,,,,,,,,,,,,,,,
,,60c2b5411e6268b10e6625d6,2022-09-08_12h38.06.720,CGTgamblingSpanTasks,2022.2.1,MacIntel,30.3030303,,,,,,,,2.523,,,,,,,,,,,,,,1,v,1.477,22.87092517,1,3.523,1,,,,,,22.87092517,0,0.059276504,,,,,,,,,,,,,0,100,100,27,1,0.911114935,0,,,,,,,,,,,,,,,,,,,,,,,,,,,,,,,,,,,,,,,,,,,,,,,,,,,,,,,,,,,,,,,,,,,,,,,,,,,,,,,,
,,60c2b5411e6268b10e6625d6,2022-09-08_12h38.06.720,CGTgamblingSpanTasks,2022.2.1,MacIntel,30.3030303,,,,,,,,2.57,,,,,,,,,,,,,,2,n,1.43,22.25959835,1,3.57,1,,,,,,22.25959835,0,0.065383587,,,,,,,,,,,,,0,101,101,97,1,0.907413875,0,,,,,,,,,,,,,,,,,,,,,,,,,,,,,,,,,,,,,,,,,,,,,,,,,,,,,,,,,,,,,,,,,,,,,,,,,,,,,,,,
,,60c2b5411e6268b10e6625d6,2022-09-08_12h38.06.720,CGTgamblingSpanTasks,2022.2.1,MacIntel,30.3030303,,,,,,,,2.445,,,,,,,,,,,,,,1,v,1.555,0,1,3.445,1,,,,,,21.03408097,0,2.208275162,,,,,,,,,,,,,0,102,102,0,1,0.485031246,1,,,,,,,,,,,,,,,,,,,,,,,,,,,,,,,,,,,,,,,,,,,,,,,,,,,,,,,,,,,,,,,,,,,,,,,,,,,,,,,,
,,60c2b5411e6268b10e6625d6,2022-09-08_12h38.06.720,CGTgamblingSpanTasks,2022.2.1,MacIntel,30.3030303,,,,,,,,2.535,,,,,,,,,,,,,,2,n,1.465,0,1,4.035,1.5,,,,,,25.21882231,0,0.085746782,,,,,,,,,,,,,0,103,103,64,1,0.90272076,0,,,,,,,,,,,,,,,,,,,,,,,,,,,,,,,,,,,,,,,,,,,,,,,,,,,,,,,,,,,,,,,,,,,,,,,,,,,,,,,,
,,60c2b5411e6268b10e6625d6,2022-09-08_12h38.06.720,CGTgamblingSpanTasks,2022.2.1,MacIntel,30.3030303,,,,,,,,2.31,,,,,,,,,,,,,,1,v,1.69,8.670591867,1,3.81,1.5,,,,,,8.670591867,0,1.025847652,,,,,,,,,,,,,0,104,104,18,1,0.452680459,1,,,,,,,,,,,,,,,,,,,,,,,,,,,,,,,,,,,,,,,,,,,,,,,,,,,,,,,,,,,,,,,,,,,,,,,,,,,,,,,,
,,60c2b5411e6268b10e6625d6,2022-09-08_12h38.06.720,CGTgamblingSpanTasks,2022.2.1,MacIntel,30.3030303,,,,,,,,2.674,,,,,,,,,,,,,,1,v,1.326,26.4985979,1,3.674,1,,,,,,26.4985979,0,0.051324376,,,,,,,,,,,,,0,105,105,106,1,0.918747215,0,,,,,,,,,,,,,,,,,,,,,,,,,,,,,,,,,,,,,,,,,,,,,,,,,,,,,,,,,,,,,,,,,,,,,,,,,,,,,,,,
,,60c2b5411e6268b10e6625d6,2022-09-08_12h38.06.720,CGTgamblingSpanTasks,2022.2.1,MacIntel,30.3030303,,,,,,,,2.54,,,,,,,,,,,,,,2,n,1.46,0,1,3.54,1,,,,,,18.50662664,0,0.052546026,,,,,,,,,,,,,0,106,106,112,1,0.908444837,0,,,,,,,,,,,,,,,,,,,,,,,,,,,,,,,,,,,,,,,,,,,,,,,,,,,,,,,,,,,,,,,,,,,,,,,,,,,,,,,,
,,60c2b5411e6268b10e6625d6,2022-09-08_12h38.06.720,CGTgamblingSpanTasks,2022.2.1,MacIntel,30.3030303,,,,,,,,0.706,,,,,,,,,,,,,,2,n,3.294,21.00799273,1,1.706,1,,,,,,21.00799273,0,0.067969053,,,,,,,,,,,,,0,107,107,92,1,0.904360262,0,,,,,,,,,,,,,,,,,,,,,,,,,,,,,,,,,,,,,,,,,,,,,,,,,,,,,,,,,,,,,,,,,,,,,,,,,,,,,,,,
,,60c2b5411e6268b10e6625d6,2022-09-08_12h38.06.720,CGTgamblingSpanTasks,2022.2.1,MacIntel,30.3030303,,,,,,,,2.682,,,,,,,,,,,,,,1,v,1.318,0,1,4.182,1.5,,,,,,19.3050342,0,2.030232342,,,,,,,,,,,,,0,108,108,73,1,0.484573227,1,,,,,,,,,,,,,,,,,,,,,,,,,,,,,,,,,,,,,,,,,,,,,,,,,,,,,,,,,,,,,,,,,,,,,,,,,,,,,,,,
,,60c2b5411e6268b10e6625d6,2022-09-08_12h38.06.720,CGTgamblingSpanTasks,2022.2.1,MacIntel,30.3030303,,,,,,,,2.275,,,,,,,,,,,,,,2,v,1.725,11.19311486,0,3.775,1.5,,,,,,8.17598802,0,11.19311486,,,,,,,,,,,,,0,109,109,110,1,0.021568003,0,,,,,,,,,,,,,,,,,,,,,,,,,,,,,,,,,,,,,,,,,,,,,,,,,,,,,,,,,,,,,,,,,,,,,,,,,,,,,,,,
,,60c2b5411e6268b10e6625d6,2022-09-08_12h38.06.720,CGTgamblingSpanTasks,2022.2.1,MacIntel,30.3030303,,,,,,,,2.41,,,,,,,,,,,,,,2,v,1.59,7.850775577,0,3.41,1,,,,,,4.622707531,0,7.850775577,,,,,,,,,,,,,0,110,110,6,1,0.017737407,0,,,,,,,,,,,,,,,,,,,,,,,,,,,,,,,,,,,,,,,,,,,,,,,,,,,,,,,,,,,,,,,,,,,,,,,,,,,,,,,,
,,60c2b5411e6268b10e6625d6,2022-09-08_12h38.06.720,CGTgamblingSpanTasks,2022.2.1,MacIntel,30.3030303,,,,,,,,2.476,,,,,,,,,,,,,,1,v,1.524,17.92584289,1,3.476,1,,,,,,17.92584289,0,1.878232496,,,,,,,,,,,,,0,111,111,5,1,0.485559263,1,,,,,,,,,,,,,,,,,,,,,,,,,,,,,,,,,,,,,,,,,,,,,,,,,,,,,,,,,,,,,,,,,,,,,,,,,,,,,,,,
,,60c2b5411e6268b10e6625d6,2022-09-08_12h38.06.720,CGTgamblingSpanTasks,2022.2.1,MacIntel,30.3030303,,,,,,,,1.837,,,,,,,,,,,,,,2,v,2.163,5.526483034,0,2.837,1,,,,,,9.725876653,0,5.526483034,,,,,,,,,,,,,0,112,112,44,1,0.082550696,0,,,,,,,,,,,,,,,,,,,,,,,,,,,,,,,,,,,,,,,,,,,,,,,,,,,,,,,,,,,,,,,,,,,,,,,,,,,,,,,,
,,60c2b5411e6268b10e6625d6,2022-09-08_12h38.06.720,CGTgamblingSpanTasks,2022.2.1,MacIntel,30.3030303,,,,,,,,2.209,,,,,,,,,,,,,,2,n,1.791,13.84410806,1,3.709,1.5,,,,,,13.84410806,0,1.535873964,,,,,,,,,,,,,0,113,113,88,1,0.470209002,1,,,,,,,,,,,,,,,,,,,,,,,,,,,,,,,,,,,,,,,,,,,,,,,,,,,,,,,,,,,,,,,,,,,,,,,,,,,,,,,,
,,60c2b5411e6268b10e6625d6,2022-09-08_12h38.06.720,CGTgamblingSpanTasks,2022.2.1,MacIntel,30.3030303,,,,,,,,2.613,,,,,,,,,,,,,,1,v,1.387,0,1,3.613,1,,,,,,24.35708027,0,2.738695417,,,,,,,,,,,,,0,114,114,114,1,0.466573634,1,,,,,,,,,,,,,,,,,,,,,,,,,,,,,,,,,,,,,,,,,,,,,,,,,,,,,,,,,,,,,,,,,,,,,,,,,,,,,,,,
,,60c2b5411e6268b10e6625d6,2022-09-08_12h38.06.720,CGTgamblingSpanTasks,2022.2.1,MacIntel,30.3030303,,,,,,,,2.774,,,,,,,,,,,,,,1,v,1.226,0,1,3.774,1,,,,,,26.16821818,0,0.093528069,,,,,,,,,,,,,0,115,115,42,1,0.901022427,0,,,,,,,,,,,,,,,,,,,,,,,,,,,,,,,,,,,,,,,,,,,,,,,,,,,,,,,,,,,,,,,,,,,,,,,,,,,,,,,,
,,60c2b5411e6268b10e6625d6,2022-09-08_12h38.06.720,CGTgamblingSpanTasks,2022.2.1,MacIntel,30.3030303,,,,,,,,2.342,,,,,,,,,,,,,,2,n,1.658,21.48443242,1,3.842,1.5,,,,,,21.48443242,0,2.229247341,,,,,,,,,,,,,0,116,116,63,1,0.488155912,1,,,,,,,,,,,,,,,,,,,,,,,,,,,,,,,,,,,,,,,,,,,,,,,,,,,,,,,,,,,,,,,,,,,,,,,,,,,,,,,,
,,60c2b5411e6268b10e6625d6,2022-09-08_12h38.06.720,CGTgamblingSpanTasks,2022.2.1,MacIntel,30.3030303,,,,,,,,2.606,,,,,,,,,,,,,,2,n,1.394,27.2532142,1,4.106,1.5,,,,,,27.2532142,0,0.08089327,,,,,,,,,,,,,0,117,117,119,1,0.907091845,0,,,,,,,,,,,,,,,,,,,,,,,,,,,,,,,,,,,,,,,,,,,,,,,,,,,,,,,,,,,,,,,,,,,,,,,,,,,,,,,,
,,60c2b5411e6268b10e6625d6,2022-09-08_12h38.06.720,CGTgamblingSpanTasks,2022.2.1,MacIntel,30.3030303,,,,,,,,2.476,,,,,,,,,,,,,,1,v,1.524,0,1,3.476,1,,,,,,28.14876717,0,3.117906378,,,,,,,,,,,,,0,118,118,76,1,0.470636736,1,,,,,,,,,,,,,,,,,,,,,,,,,,,,,,,,,,,,,,,,,,,,,,,,,,,,,,,,,,,,,,,,,,,,,,,,,,,,,,,,
,,60c2b5411e6268b10e6625d6,2022-09-08_12h38.06.720,CGTgamblingSpanTasks,2022.2.1,MacIntel,30.3030303,,,,,,,,2.543,,,,,,,,,,,,,,2,n,1.457,0,1,3.543,1,,,,,,28.9381277,0,2.663622024,,,,,,,,,,,,,0,119,119,103,1,0.519453367,1,,,,,,,,,,,,,,,,,,,,,,,,,,,,,,,,,,,,,,,,,,,,,,,,,,,,,,,,,,,,,,,,,,,,,,,,,,,,,,,,
,,60c2b5411e6268b10e6625d6,2022-09-08_12h38.06.720,CGTgamblingSpanTasks,2022.2.1,MacIntel,30.3030303,,,,,,,,,,,,,,,,,,,,,,,,,,,,,,,,,,,,,,,,,,,,,,,,,,,,,,,,return,11.651,,,,,,,,,,,,,,,,,,,,,,,,,,,,,,,,,,,,,,,,,,,,,,,,,,,,,,,,,,,,,,,,,,,,,,,,,,,,,,
,,60c2b5411e6268b10e6625d6,2022-09-08_12h38.06.720,CGTgamblingSpanTasks,2022.2.1,MacIntel,30.3030303,,,,,,,,,,,,,,,,,,,,,,,,,,,,,,,,,,,,,,,,,,,,,,,,,,,,,,,,,,return,13.984,,,,,,,,,,,,,,,,,,,,,,,,,,,,,,,,,,,,,,,,,,,,,,,,,,,,,,,,,,,,,,,,,,,,,,,,,,,,
,,60c2b5411e6268b10e6625d6,2022-09-08_12h38.06.720,CGTgamblingSpanTasks,2022.2.1,MacIntel,30.3030303,,,,,,,,,,,,,,,,,,,,,,,,,,,,,,,,,,,,,,,,,,,,,,,,,,,,,,,,,,,,return,35.812,,,,,,,,,,,,,,,,,,,,,,,,,,,,,,,,,,,,,,,,,,,,,,,,,,,,,,,,,,,,,,,,,,,,,,,,,,
,,60c2b5411e6268b10e6625d6,2022-09-08_12h38.06.720,CGTgamblingSpanTasks,2022.2.1,MacIntel,30.3030303,,,,,,,,,,,,,,,,,,,,,,,,,,,,,,,,,,,,,,,,,,,,,,,,,,,,,,,,,,,,,,,0,-0.005555556,-0.384444444,1,0,0,cont_buttonPractice,0,0,0,0,1,3,342,24,2,42,,,,,,,,,,,,,,,,,,,,,,,,,,,,,,,,,,,,,,,,,,,,,,,,,,,,,,,,
,,60c2b5411e6268b10e6625d6,2022-09-08_12h38.06.720,CGTgamblingSpanTasks,2022.2.1,MacIntel,30.3030303,,,,,,,,,,,,,,,,,,,,,,,,,,,,,,,,,,,,,,,,,,,,,,,,,,,,,,,,,,,,,,937,1,-0.011111111,-0.4,1,0,0,cont_buttonPractice,0,1,1,1,1,3,937,73,2,37,,,,,,,,,,,,,,,,,,,,,,,,,,,,,,,,,,,,,,,,,,,,,,,,,,,,,,,,
,,60c2b5411e6268b10e6625d6,2022-09-08_12h38.06.720,CGTgamblingSpanTasks,2022.2.1,MacIntel,30.3030303,,,,,,,,,,,,,,,,,,,,,,,,,,,,,,,,,,,,,,,,,,,,,,,,,,,,,,,,,,,,,,,,,,,,,,,,,,,,,,,,return,10.699,,,,,,,,,,,,,,,,,,,,,,,,,,,,,,,,,,,,,,,,,,,,,,,,,,,,,,
,,60c2b5411e6268b10e6625d6,2022-09-08_12h38.06.720,CGTgamblingSpanTasks,2022.2.1,MacIntel,30.3030303,,,,,,,,,,,,,,,,,,,,,,,,,,,,,,,,,,,,,,,,,,,,,,,,,,,,,,,,,,,,,,,,,,,,,,,,,,,,,,,,,,"[6,8,7]",0,0,0,0,1,,,,,,,,,,,,,,,,,,,,,,,,,,,,,,,,,,,,,,,,,,,,,,,,
,,60c2b5411e6268b10e6625d6,2022-09-08_12h38.06.720,CGTgamblingSpanTasks,2022.2.1,MacIntel,30.3030303,,,,,,,,,,,,,,,,,,,,,,,,,,,,,,,,,,,,,,,,,,,,,,,,,,,,,,,,,,,,,,,,,,,,,,,,,,,,,,,,,,"[6,8,7]",1,0,1,0,1,,,,,,,,,,,,,,,,,,,,,,,,,,,,,,,,,,,,,,,,,,,,,,,,
,,60c2b5411e6268b10e6625d6,2022-09-08_12h38.06.720,CGTgamblingSpanTasks,2022.2.1,MacIntel,30.3030303,,,,,,,,,,,,,,,,,,,,,,,,,,,,,,,,,,,,,,,,,,,,,,,,,,,,,,,,,,,,,,,,,,,,,,,,,,,,,,,,,,"[6,8,7]",2,0,2,0,1,,,,,,,,,,,,,,,,,,,,,,,,,,,,,,,,,,,,,,,,,,,,,,,,
,,60c2b5411e6268b10e6625d6,2022-09-08_12h38.06.720,CGTgamblingSpanTasks,2022.2.1,MacIntel,30.3030303,,,,,,,,,,,,,,,,,,,,,,,,,,,,,,,,,,,,,,,,,,,,,,,,,,,,,,,,,,,,,,,1,,,,,,,,,,,,,,,,,,,,,,,,,687,-0.006666667,-0.43,1,0,0,cont_button,0,0,0,0,1,1,,,,,,,,,,,,,,,,,,,,,,,,,,,,,,,,,,,
,,60c2b5411e6268b10e6625d6,2022-09-08_12h38.06.720,CGTgamblingSpanTasks,2022.2.1,MacIntel,30.3030303,,,,,,,,,,,,,,,,,,,,,,,,,,,,,,,,,,,,,,,,,,,,,,,,,,,,,,,,,,,,,,,,,,,,,,,,,,,,,,,,,,"[1,7,9,5]",0,0,0,0,1,,,,,,,,,,,,,,,,,,,,,,,,,,,,,,,,,,,,,,,,,,,,,,,,
,,60c2b5411e6268b10e6625d6,2022-09-08_12h38.06.720,CGTgamblingSpanTasks,2022.2.1,MacIntel,30.3030303,,,,,,,,,,,,,,,,,,,,,,,,,,,,,,,,,,,,,,,,,,,,,,,,,,,,,,,,,,,,,,,,,,,,,,,,,,,,,,,,,,"[1,7,9,5]",1,0,1,0,1,,,,,,,,,,,,,,,,,,,,,,,,,,,,,,,,,,,,,,,,,,,,,,,,
,,60c2b5411e6268b10e6625d6,2022-09-08_12h38.06.720,CGTgamblingSpanTasks,2022.2.1,MacIntel,30.3030303,,,,,,,,,,,,,,,,,,,,,,,,,,,,,,,,,,,,,,,,,,,,,,,,,,,,,,,,,,,,,,,,,,,,,,,,,,,,,,,,,,"[1,7,9,5]",2,0,2,0,1,,,,,,,,,,,,,,,,,,,,,,,,,,,,,,,,,,,,,,,,,,,,,,,,
,,60c2b5411e6268b10e6625d6,2022-09-08_12h38.06.720,CGTgamblingSpanTasks,2022.2.1,MacIntel,30.3030303,,,,,,,,,,,,,,,,,,,,,,,,,,,,,,,,,,,,,,,,,,,,,,,,,,,,,,,,,,,,,,,,,,,,,,,,,,,,,,,,,,"[1,7,9,5]",3,0,3,0,1,,,,,,,,,,,,,,,,,,,,,,,,,,,,,,,,,,,,,,,,,,,,,,,,
,,60c2b5411e6268b10e6625d6,2022-09-08_12h38.06.720,CGTgamblingSpanTasks,2022.2.1,MacIntel,30.3030303,,,,,,,,,,,,,,,,,,,,,,,,,,,,,,,,,,,,,,,,,,,,,,,,,,,,,,,,,,,,,,,1,,,,,,,,,,,,,,,,,,,,,,,,,1795,-0.013333333,-0.386666667,1,0,0,cont_button,0,1,1,1,1,2,,,,,,,,,,,,,,,,,,,,,,,,,,,,,,,,,,,
,,60c2b5411e6268b10e6625d6,2022-09-08_12h38.06.720,CGTgamblingSpanTasks,2022.2.1,MacIntel,30.3030303,,,,,,,,,,,,,,,,,,,,,,,,,,,,,,,,,,,,,,,,,,,,,,,,,,,,,,,,,,,,,,,,,,,,,,,,,,,,,,,,,,"[3,2,7,8,6]",0,0,0,0,1,,,,,,,,,,,,,,,,,,,,,,,,,,,,,,,,,,,,,,,,,,,,,,,,
,,60c2b5411e6268b10e6625d6,2022-09-08_12h38.06.720,CGTgamblingSpanTasks,2022.2.1,MacIntel,30.3030303,,,,,,,,,,,,,,,,,,,,,,,,,,,,,,,,,,,,,,,,,,,,,,,,,,,,,,,,,,,,,,,,,,,,,,,,,,,,,,,,,,"[3,2,7,8,6]",1,0,1,0,1,,,,,,,,,,,,,,,,,,,,,,,,,,,,,,,,,,,,,,,,,,,,,,,,
,,60c2b5411e6268b10e6625d6,2022-09-08_12h38.06.720,CGTgamblingSpanTasks,2022.2.1,MacIntel,30.3030303,,,,,,,,,,,,,,,,,,,,,,,,,,,,,,,,,,,,,,,,,,,,,,,,,,,,,,,,,,,,,,,,,,,,,,,,,,,,,,,,,,"[3,2,7,8,6]",2,0,2,0,1,,,,,,,,,,,,,,,,,,,,,,,,,,,,,,,,,,,,,,,,,,,,,,,,
,,60c2b5411e6268b10e6625d6,2022-09-08_12h38.06.720,CGTgamblingSpanTasks,2022.2.1,MacIntel,30.3030303,,,,,,,,,,,,,,,,,,,,,,,,,,,,,,,,,,,,,,,,,,,,,,,,,,,,,,,,,,,,,,,,,,,,,,,,,,,,,,,,,,"[3,2,7,8,6]",3,0,3,0,1,,,,,,,,,,,,,,,,,,,,,,,,,,,,,,,,,,,,,,,,,,,,,,,,
,,60c2b5411e6268b10e6625d6,2022-09-08_12h38.06.720,CGTgamblingSpanTasks,2022.2.1,MacIntel,30.3030303,,,,,,,,,,,,,,,,,,,,,,,,,,,,,,,,,,,,,,,,,,,,,,,,,,,,,,,,,,,,,,,,,,,,,,,,,,,,,,,,,,"[3,2,7,8,6]",4,0,4,0,1,,,,,,,,,,,,,,,,,,,,,,,,,,,,,,,,,,,,,,,,,,,,,,,,
,,60c2b5411e6268b10e6625d6,2022-09-08_12h38.06.720,CGTgamblingSpanTasks,2022.2.1,MacIntel,30.3030303,,,,,,,,,,,,,,,,,,,,,,,,,,,,,,,,,,,,,,,,,,,,,,,,,,,,,,,,,,,,,,,1,,,,,,,,,,,,,,,,,,,,,,,,,32786,-0.033333333,-0.37,1,0,0,cont_button,0,2,2,2,1,3,,,,,,,,,,,,,,,,,,,,,,,,,,,,,,,,,,,
,,60c2b5411e6268b10e6625d6,2022-09-08_12h38.06.720,CGTgamblingSpanTasks,2022.2.1,MacIntel,30.3030303,,,,,,,,,,,,,,,,,,,,,,,,,,,,,,,,,,,,,,,,,,,,,,,,,,,,,,,,,,,,,,,,,,,,,,,,,,,,,,,,,,"[7,6,8,3,2,4]",0,0,0,0,1,,,,,,,,,,,,,,,,,,,,,,,,,,,,,,,,,,,,,,,,,,,,,,,,
,,60c2b5411e6268b10e6625d6,2022-09-08_12h38.06.720,CGTgamblingSpanTasks,2022.2.1,MacIntel,30.3030303,,,,,,,,,,,,,,,,,,,,,,,,,,,,,,,,,,,,,,,,,,,,,,,,,,,,,,,,,,,,,,,,,,,,,,,,,,,,,,,,,,"[7,6,8,3,2,4]",1,0,1,0,1,,,,,,,,,,,,,,,,,,,,,,,,,,,,,,,,,,,,,,,,,,,,,,,,
,,60c2b5411e6268b10e6625d6,2022-09-08_12h38.06.720,CGTgamblingSpanTasks,2022.2.1,MacIntel,30.3030303,,,,,,,,,,,,,,,,,,,,,,,,,,,,,,,,,,,,,,,,,,,,,,,,,,,,,,,,,,,,,,,,,,,,,,,,,,,,,,,,,,"[7,6,8,3,2,4]",2,0,2,0,1,,,,,,,,,,,,,,,,,,,,,,,,,,,,,,,,,,,,,,,,,,,,,,,,
,,60c2b5411e6268b10e6625d6,2022-09-08_12h38.06.720,CGTgamblingSpanTasks,2022.2.1,MacIntel,30.3030303,,,,,,,,,,,,,,,,,,,,,,,,,,,,,,,,,,,,,,,,,,,,,,,,,,,,,,,,,,,,,,,,,,,,,,,,,,,,,,,,,,"[7,6,8,3,2,4]",3,0,3,0,1,,,,,,,,,,,,,,,,,,,,,,,,,,,,,,,,,,,,,,,,,,,,,,,,
,,60c2b5411e6268b10e6625d6,2022-09-08_12h38.06.720,CGTgamblingSpanTasks,2022.2.1,MacIntel,30.3030303,,,,,,,,,,,,,,,,,,,,,,,,,,,,,,,,,,,,,,,,,,,,,,,,,,,,,,,,,,,,,,,,,,,,,,,,,,,,,,,,,,"[7,6,8,3,2,4]",4,0,4,0,1,,,,,,,,,,,,,,,,,,,,,,,,,,,,,,,,,,,,,,,,,,,,,,,,
,,60c2b5411e6268b10e6625d6,2022-09-08_12h38.06.720,CGTgamblingSpanTasks,2022.2.1,MacIntel,30.3030303,,,,,,,,,,,,,,,,,,,,,,,,,,,,,,,,,,,,,,,,,,,,,,,,,,,,,,,,,,,,,,,,,,,,,,,,,,,,,,,,,,"[7,6,8,3,2,4]",5,0,5,0,1,,,,,,,,,,,,,,,,,,,,,,,,,,,,,,,,,,,,,,,,,,,,,,,,
,,60c2b5411e6268b10e6625d6,2022-09-08_12h38.06.720,CGTgamblingSpanTasks,2022.2.1,MacIntel,30.3030303,,,,,,,,,,,,,,,,,,,,,,,,,,,,,,,,,,,,,,,,,,,,,,,,,,,,,,,,,,,,,,,1,,,,,,,,,,,,,,,,,,,,,,,,,768324,0.074444444,-0.403333333,1,0,0,cont_button,0,3,3,3,1,4,,,,,,,,,,,,,,,,,,,,,,,,,,,,,,,,,,,
,,60c2b5411e6268b10e6625d6,2022-09-08_12h38.06.720,CGTgamblingSpanTasks,2022.2.1,MacIntel,30.3030303,,,,,,,,,,,,,,,,,,,,,,,,,,,,,,,,,,,,,,,,,,,,,,,,,,,,,,,,,,,,,,,,,,,,,,,,,,,,,,,,,,"[1,4,3,5,7,8,6]",0,0,0,0,1,,,,,,,,,,,,,,,,,,,,,,,,,,,,,,,,,,,,,,,,,,,,,,,,
,,60c2b5411e6268b10e6625d6,2022-09-08_12h38.06.720,CGTgamblingSpanTasks,2022.2.1,MacIntel,30.3030303,,,,,,,,,,,,,,,,,,,,,,,,,,,,,,,,,,,,,,,,,,,,,,,,,,,,,,,,,,,,,,,,,,,,,,,,,,,,,,,,,,"[1,4,3,5,7,8,6]",1,0,1,0,1,,,,,,,,,,,,,,,,,,,,,,,,,,,,,,,,,,,,,,,,,,,,,,,,
,,60c2b5411e6268b10e6625d6,2022-09-08_12h38.06.720,CGTgamblingSpanTasks,2022.2.1,MacIntel,30.3030303,,,,,,,,,,,,,,,,,,,,,,,,,,,,,,,,,,,,,,,,,,,,,,,,,,,,,,,,,,,,,,,,,,,,,,,,,,,,,,,,,,"[1,4,3,5,7,8,6]",2,0,2,0,1,,,,,,,,,,,,,,,,,,,,,,,,,,,,,,,,,,,,,,,,,,,,,,,,
,,60c2b5411e6268b10e6625d6,2022-09-08_12h38.06.720,CGTgamblingSpanTasks,2022.2.1,MacIntel,30.3030303,,,,,,,,,,,,,,,,,,,,,,,,,,,,,,,,,,,,,,,,,,,,,,,,,,,,,,,,,,,,,,,,,,,,,,,,,,,,,,,,,,"[1,4,3,5,7,8,6]",3,0,3,0,1,,,,,,,,,,,,,,,,,,,,,,,,,,,,,,,,,,,,,,,,,,,,,,,,
,,60c2b5411e6268b10e6625d6,2022-09-08_12h38.06.720,CGTgamblingSpanTasks,2022.2.1,MacIntel,30.3030303,,,,,,,,,,,,,,,,,,,,,,,,,,,,,,,,,,,,,,,,,,,,,,,,,,,,,,,,,,,,,,,,,,,,,,,,,,,,,,,,,,"[1,4,3,5,7,8,6]",4,0,4,0,1,,,,,,,,,,,,,,,,,,,,,,,,,,,,,,,,,,,,,,,,,,,,,,,,
,,60c2b5411e6268b10e6625d6,2022-09-08_12h38.06.720,CGTgamblingSpanTasks,2022.2.1,MacIntel,30.3030303,,,,,,,,,,,,,,,,,,,,,,,,,,,,,,,,,,,,,,,,,,,,,,,,,,,,,,,,,,,,,,,,,,,,,,,,,,,,,,,,,,"[1,4,3,5,7,8,6]",5,0,5,0,1,,,,,,,,,,,,,,,,,,,,,,,,,,,,,,,,,,,,,,,,,,,,,,,,
,,60c2b5411e6268b10e6625d6,2022-09-08_12h38.06.720,CGTgamblingSpanTasks,2022.2.1,MacIntel,30.3030303,,,,,,,,,,,,,,,,,,,,,,,,,,,,,,,,,,,,,,,,,,,,,,,,,,,,,,,,,,,,,,,,,,,,,,,,,,,,,,,,,,"[1,4,3,5,7,8,6]",6,0,6,0,1,,,,,,,,,,,,,,,,,,,,,,,,,,,,,,,,,,,,,,,,,,,,,,,,
,,60c2b5411e6268b10e6625d6,2022-09-08_12h38.06.720,CGTgamblingSpanTasks,2022.2.1,MacIntel,30.3030303,,,,,,,,,,,,,,,,,,,,,,,,,,,,,,,,,,,,,,,,,,,,,,,,,,,,,,,,,,,,,,,0,,,,,,,,,,,,,,,,,,,,,,,,,1345786,-0.016666667,-0.381111111,1,0,0,cont_button,0,4,4,4,1,5,,,,,,,,,,,,,,,,,,,,,,,,,,,,,,,,,,,
,,60c2b5411e6268b10e6625d6,2022-09-08_12h38.06.720,CGTgamblingSpanTasks,2022.2.1,MacIntel,30.3030303,,,,,,,,,,,,,,,,,,,,,,,,,,,,,,,,,,,,,,,,,,,,,,,,,,,,,,,,,,,,,,,,,,,,,,,,,,,,,,,,,,"[1,7,9,3,8,5,2]",0,0,0,0,1,,,,,,,,,,,,,,,,,,,,,,,,,,,,,,,,,,,,,,,,,,,,,,,,
,,60c2b5411e6268b10e6625d6,2022-09-08_12h38.06.720,CGTgamblingSpanTasks,2022.2.1,MacIntel,30.3030303,,,,,,,,,,,,,,,,,,,,,,,,,,,,,,,,,,,,,,,,,,,,,,,,,,,,,,,,,,,,,,,,,,,,,,,,,,,,,,,,,,"[1,7,9,3,8,5,2]",1,0,1,0,1,,,,,,,,,,,,,,,,,,,,,,,,,,,,,,,,,,,,,,,,,,,,,,,,
,,60c2b5411e6268b10e6625d6,2022-09-08_12h38.06.720,CGTgamblingSpanTasks,2022.2.1,MacIntel,30.3030303,,,,,,,,,,,,,,,,,,,,,,,,,,,,,,,,,,,,,,,,,,,,,,,,,,,,,,,,,,,,,,,,,,,,,,,,,,,,,,,,,,"[1,7,9,3,8,5,2]",2,0,2,0,1,,,,,,,,,,,,,,,,,,,,,,,,,,,,,,,,,,,,,,,,,,,,,,,,
,,60c2b5411e6268b10e6625d6,2022-09-08_12h38.06.720,CGTgamblingSpanTasks,2022.2.1,MacIntel,30.3030303,,,,,,,,,,,,,,,,,,,,,,,,,,,,,,,,,,,,,,,,,,,,,,,,,,,,,,,,,,,,,,,,,,,,,,,,,,,,,,,,,,"[1,7,9,3,8,5,2]",3,0,3,0,1,,,,,,,,,,,,,,,,,,,,,,,,,,,,,,,,,,,,,,,,,,,,,,,,
,,60c2b5411e6268b10e6625d6,2022-09-08_12h38.06.720,CGTgamblingSpanTasks,2022.2.1,MacIntel,30.3030303,,,,,,,,,,,,,,,,,,,,,,,,,,,,,,,,,,,,,,,,,,,,,,,,,,,,,,,,,,,,,,,,,,,,,,,,,,,,,,,,,,"[1,7,9,3,8,5,2]",4,0,4,0,1,,,,,,,,,,,,,,,,,,,,,,,,,,,,,,,,,,,,,,,,,,,,,,,,
,,60c2b5411e6268b10e6625d6,2022-09-08_12h38.06.720,CGTgamblingSpanTasks,2022.2.1,MacIntel,30.3030303,,,,,,,,,,,,,,,,,,,,,,,,,,,,,,,,,,,,,,,,,,,,,,,,,,,,,,,,,,,,,,,,,,,,,,,,,,,,,,,,,,"[1,7,9,3,8,5,2]",5,0,5,0,1,,,,,,,,,,,,,,,,,,,,,,,,,,,,,,,,,,,,,,,,,,,,,,,,
,,60c2b5411e6268b10e6625d6,2022-09-08_12h38.06.720,CGTgamblingSpanTasks,2022.2.1,MacIntel,30.3030303,,,,,,,,,,,,,,,,,,,,,,,,,,,,,,,,,,,,,,,,,,,,,,,,,,,,,,,,,,,,,,,,,,,,,,,,,,,,,,,,,,"[1,7,9,3,8,5,2]",6,0,6,0,1,,,,,,,,,,,,,,,,,,,,,,,,,,,,,,,,,,,,,,,,,,,,,,,,
,,60c2b5411e6268b10e6625d6,2022-09-08_12h38.06.720,CGTgamblingSpanTasks,2022.2.1,MacIntel,30.3030303,,,,,,,,,,,,,,,,,,,,,,,,,,,,,,,,,,,,,,,,,,,,,,,,,,,,,,,,,,,,,,,1,,,,,,,,,,,,,,,,,,,,,,,,,1793852,0.025555556,-0.401111111,1,0,0,cont_button,0,5,5,5,1,6,,,,,,,,,,,,,,,,,,,,,,,,,,,,,,,,,,,
,,60c2b5411e6268b10e6625d6,2022-09-08_12h38.06.720,CGTgamblingSpanTasks,2022.2.1,MacIntel,30.3030303,,,,,,,,,,,,,,,,,,,,,,,,,,,,,,,,,,,,,,,,,,,,,,,,,,,,,,,,,,,,,,,,,,,,,,,,,,,,,,,,,,"[5,2,1,3,4,9,8,6]",0,0,0,0,1,,,,,,,,,,,,,,,,,,,,,,,,,,,,,,,,,,,,,,,,,,,,,,,,
,,60c2b5411e6268b10e6625d6,2022-09-08_12h38.06.720,CGTgamblingSpanTasks,2022.2.1,MacIntel,30.3030303,,,,,,,,,,,,,,,,,,,,,,,,,,,,,,,,,,,,,,,,,,,,,,,,,,,,,,,,,,,,,,,,,,,,,,,,,,,,,,,,,,"[5,2,1,3,4,9,8,6]",1,0,1,0,1,,,,,,,,,,,,,,,,,,,,,,,,,,,,,,,,,,,,,,,,,,,,,,,,
,,60c2b5411e6268b10e6625d6,2022-09-08_12h38.06.720,CGTgamblingSpanTasks,2022.2.1,MacIntel,30.3030303,,,,,,,,,,,,,,,,,,,,,,,,,,,,,,,,,,,,,,,,,,,,,,,,,,,,,,,,,,,,,,,,,,,,,,,,,,,,,,,,,,"[5,2,1,3,4,9,8,6]",2,0,2,0,1,,,,,,,,,,,,,,,,,,,,,,,,,,,,,,,,,,,,,,,,,,,,,,,,
,,60c2b5411e6268b10e6625d6,2022-09-08_12h38.06.720,CGTgamblingSpanTasks,2022.2.1,MacIntel,30.3030303,,,,,,,,,,,,,,,,,,,,,,,,,,,,,,,,,,,,,,,,,,,,,,,,,,,,,,,,,,,,,,,,,,,,,,,,,,,,,,,,,,"[5,2,1,3,4,9,8,6]",3,0,3,0,1,,,,,,,,,,,,,,,,,,,,,,,,,,,,,,,,,,,,,,,,,,,,,,,,
,,60c2b5411e6268b10e6625d6,2022-09-08_12h38.06.720,CGTgamblingSpanTasks,2022.2.1,MacIntel,30.3030303,,,,,,,,,,,,,,,,,,,,,,,,,,,,,,,,,,,,,,,,,,,,,,,,,,,,,,,,,,,,,,,,,,,,,,,,,,,,,,,,,,"[5,2,1,3,4,9,8,6]",4,0,4,0,1,,,,,,,,,,,,,,,,,,,,,,,,,,,,,,,,,,,,,,,,,,,,,,,,
,,60c2b5411e6268b10e6625d6,2022-09-08_12h38.06.720,CGTgamblingSpanTasks,2022.2.1,MacIntel,30.3030303,,,,,,,,,,,,,,,,,,,,,,,,,,,,,,,,,,,,,,,,,,,,,,,,,,,,,,,,,,,,,,,,,,,,,,,,,,,,,,,,,,"[5,2,1,3,4,9,8,6]",5,0,5,0,1,,,,,,,,,,,,,,,,,,,,,,,,,,,,,,,,,,,,,,,,,,,,,,,,
,,60c2b5411e6268b10e6625d6,2022-09-08_12h38.06.720,CGTgamblingSpanTasks,2022.2.1,MacIntel,30.3030303,,,,,,,,,,,,,,,,,,,,,,,,,,,,,,,,,,,,,,,,,,,,,,,,,,,,,,,,,,,,,,,,,,,,,,,,,,,,,,,,,,"[5,2,1,3,4,9,8,6]",6,0,6,0,1,,,,,,,,,,,,,,,,,,,,,,,,,,,,,,,,,,,,,,,,,,,,,,,,
,,60c2b5411e6268b10e6625d6,2022-09-08_12h38.06.720,CGTgamblingSpanTasks,2022.2.1,MacIntel,30.3030303,,,,,,,,,,,,,,,,,,,,,,,,,,,,,,,,,,,,,,,,,,,,,,,,,,,,,,,,,,,,,,,,,,,,,,,,,,,,,,,,,,"[5,2,1,3,4,9,8,6]",7,0,7,0,1,,,,,,,,,,,,,,,,,,,,,,,,,,,,,,,,,,,,,,,,,,,,,,,,
,,60c2b5411e6268b10e6625d6,2022-09-08_12h38.06.720,CGTgamblingSpanTasks,2022.2.1,MacIntel,30.3030303,,,,,,,,,,,,,,,,,,,,,,,,,,,,,,,,,,,,,,,,,,,,,,,,,,,,,,,,,,,,,,,1,,,,,,,,,,,,,,,,,,,,,,,,,52134986,-0.054444444,-0.406666667,1,0,0,cont_button,0,6,6,6,1,7,,,,,,,,,,,,,,,,,,,,,,,,,,,,,,,,,,,
,,60c2b5411e6268b10e6625d6,2022-09-08_12h38.06.720,CGTgamblingSpanTasks,2022.2.1,MacIntel,30.3030303,,,,,,,,,,,,,,,,,,,,,,,,,,,,,,,,,,,,,,,,,,,,,,,,,,,,,,,,,,,,,,,,,,,,,,,,,,,,,,,,,,"[4,6,1,3,7,2,8,5,9]",0,0,0,0,1,,,,,,,,,,,,,,,,,,,,,,,,,,,,,,,,,,,,,,,,,,,,,,,,
,,60c2b5411e6268b10e6625d6,2022-09-08_12h38.06.720,CGTgamblingSpanTasks,2022.2.1,MacIntel,30.3030303,,,,,,,,,,,,,,,,,,,,,,,,,,,,,,,,,,,,,,,,,,,,,,,,,,,,,,,,,,,,,,,,,,,,,,,,,,,,,,,,,,"[4,6,1,3,7,2,8,5,9]",1,0,1,0,1,,,,,,,,,,,,,,,,,,,,,,,,,,,,,,,,,,,,,,,,,,,,,,,,
,,60c2b5411e6268b10e6625d6,2022-09-08_12h38.06.720,CGTgamblingSpanTasks,2022.2.1,MacIntel,30.3030303,,,,,,,,,,,,,,,,,,,,,,,,,,,,,,,,,,,,,,,,,,,,,,,,,,,,,,,,,,,,,,,,,,,,,,,,,,,,,,,,,,"[4,6,1,3,7,2,8,5,9]",2,0,2,0,1,,,,,,,,,,,,,,,,,,,,,,,,,,,,,,,,,,,,,,,,,,,,,,,,
,,60c2b5411e6268b10e6625d6,2022-09-08_12h38.06.720,CGTgamblingSpanTasks,2022.2.1,MacIntel,30.3030303,,,,,,,,,,,,,,,,,,,,,,,,,,,,,,,,,,,,,,,,,,,,,,,,,,,,,,,,,,,,,,,,,,,,,,,,,,,,,,,,,,"[4,6,1,3,7,2,8,5,9]",3,0,3,0,1,,,,,,,,,,,,,,,,,,,,,,,,,,,,,,,,,,,,,,,,,,,,,,,,
,,60c2b5411e6268b10e6625d6,2022-09-08_12h38.06.720,CGTgamblingSpanTasks,2022.2.1,MacIntel,30.3030303,,,,,,,,,,,,,,,,,,,,,,,,,,,,,,,,,,,,,,,,,,,,,,,,,,,,,,,,,,,,,,,,,,,,,,,,,,,,,,,,,,"[4,6,1,3,7,2,8,5,9]",4,0,4,0,1,,,,,,,,,,,,,,,,,,,,,,,,,,,,,,,,,,,,,,,,,,,,,,,,
,,60c2b5411e6268b10e6625d6,2022-09-08_12h38.06.720,CGTgamblingSpanTasks,2022.2.1,MacIntel,30.3030303,,,,,,,,,,,,,,,,,,,,,,,,,,,,,,,,,,,,,,,,,,,,,,,,,,,,,,,,,,,,,,,,,,,,,,,,,,,,,,,,,,"[4,6,1,3,7,2,8,5,9]",5,0,5,0,1,,,,,,,,,,,,,,,,,,,,,,,,,,,,,,,,,,,,,,,,,,,,,,,,
,,60c2b5411e6268b10e6625d6,2022-09-08_12h38.06.720,CGTgamblingSpanTasks,2022.2.1,MacIntel,30.3030303,,,,,,,,,,,,,,,,,,,,,,,,,,,,,,,,,,,,,,,,,,,,,,,,,,,,,,,,,,,,,,,,,,,,,,,,,,,,,,,,,,"[4,6,1,3,7,2,8,5,9]",6,0,6,0,1,,,,,,,,,,,,,,,,,,,,,,,,,,,,,,,,,,,,,,,,,,,,,,,,
,,60c2b5411e6268b10e6625d6,2022-09-08_12h38.06.720,CGTgamblingSpanTasks,2022.2.1,MacIntel,30.3030303,,,,,,,,,,,,,,,,,,,,,,,,,,,,,,,,,,,,,,,,,,,,,,,,,,,,,,,,,,,,,,,,,,,,,,,,,,,,,,,,,,"[4,6,1,3,7,2,8,5,9]",7,0,7,0,1,,,,,,,,,,,,,,,,,,,,,,,,,,,,,,,,,,,,,,,,,,,,,,,,
,,60c2b5411e6268b10e6625d6,2022-09-08_12h38.06.720,CGTgamblingSpanTasks,2022.2.1,MacIntel,30.3030303,,,,,,,,,,,,,,,,,,,,,,,,,,,,,,,,,,,,,,,,,,,,,,,,,,,,,,,,,,,,,,,,,,,,,,,,,,,,,,,,,,"[4,6,1,3,7,2,8,5,9]",8,0,8,0,1,,,,,,,,,,,,,,,,,,,,,,,,,,,,,,,,,,,,,,,,,,,,,,,,
,,60c2b5411e6268b10e6625d6,2022-09-08_12h38.06.720,CGTgamblingSpanTasks,2022.2.1,MacIntel,30.3030303,,,,,,,,,,,,,,,,,,,,,,,,,,,,,,,,,,,,,,,,,,,,,,,,,,,,,,,,,,,,,,,1,,,,,,,,,,,,,,,,,,,,,,,,,461372859,-0.083333333,-0.382222222,1,0,0,cont_button,0,7,7,7,1,8,,,,,,,,,,,,,,,,,,,,,,,,,,,,,,,,,,,
,,60c2b5411e6268b10e6625d6,2022-09-08_12h38.06.720,CGTgamblingSpanTasks,2022.2.1,MacIntel,30.3030303,,,,,,,,,,,,,,,,,,,,,,,,,,,,,,,,,,,,,,,,,,,,,,,,,,,,,,,,,,,,,,,,,,,,,,,,,,,,,,,,,,"[8,9,6,4,5,2,7,3,1,1]",0,0,0,0,1,,,,,,,,,,,,,,,,,,,,,,,,,,,,,,,,,,,,,,,,,,,,,,,,
,,60c2b5411e6268b10e6625d6,2022-09-08_12h38.06.720,CGTgamblingSpanTasks,2022.2.1,MacIntel,30.3030303,,,,,,,,,,,,,,,,,,,,,,,,,,,,,,,,,,,,,,,,,,,,,,,,,,,,,,,,,,,,,,,,,,,,,,,,,,,,,,,,,,"[8,9,6,4,5,2,7,3,1,1]",1,0,1,0,1,,,,,,,,,,,,,,,,,,,,,,,,,,,,,,,,,,,,,,,,,,,,,,,,
,,60c2b5411e6268b10e6625d6,2022-09-08_12h38.06.720,CGTgamblingSpanTasks,2022.2.1,MacIntel,30.3030303,,,,,,,,,,,,,,,,,,,,,,,,,,,,,,,,,,,,,,,,,,,,,,,,,,,,,,,,,,,,,,,,,,,,,,,,,,,,,,,,,,"[8,9,6,4,5,2,7,3,1,1]",2,0,2,0,1,,,,,,,,,,,,,,,,,,,,,,,,,,,,,,,,,,,,,,,,,,,,,,,,
,,60c2b5411e6268b10e6625d6,2022-09-08_12h38.06.720,CGTgamblingSpanTasks,2022.2.1,MacIntel,30.3030303,,,,,,,,,,,,,,,,,,,,,,,,,,,,,,,,,,,,,,,,,,,,,,,,,,,,,,,,,,,,,,,,,,,,,,,,,,,,,,,,,,"[8,9,6,4,5,2,7,3,1,1]",3,0,3,0,1,,,,,,,,,,,,,,,,,,,,,,,,,,,,,,,,,,,,,,,,,,,,,,,,
,,60c2b5411e6268b10e6625d6,2022-09-08_12h38.06.720,CGTgamblingSpanTasks,2022.2.1,MacIntel,30.3030303,,,,,,,,,,,,,,,,,,,,,,,,,,,,,,,,,,,,,,,,,,,,,,,,,,,,,,,,,,,,,,,,,,,,,,,,,,,,,,,,,,"[8,9,6,4,5,2,7,3,1,1]",4,0,4,0,1,,,,,,,,,,,,,,,,,,,,,,,,,,,,,,,,,,,,,,,,,,,,,,,,
,,60c2b5411e6268b10e6625d6,2022-09-08_12h38.06.720,CGTgamblingSpanTasks,2022.2.1,MacIntel,30.3030303,,,,,,,,,,,,,,,,,,,,,,,,,,,,,,,,,,,,,,,,,,,,,,,,,,,,,,,,,,,,,,,,,,,,,,,,,,,,,,,,,,"[8,9,6,4,5,2,7,3,1,1]",5,0,5,0,1,,,,,,,,,,,,,,,,,,,,,,,,,,,,,,,,,,,,,,,,,,,,,,,,
,,60c2b5411e6268b10e6625d6,2022-09-08_12h38.06.720,CGTgamblingSpanTasks,2022.2.1,MacIntel,30.3030303,,,,,,,,,,,,,,,,,,,,,,,,,,,,,,,,,,,,,,,,,,,,,,,,,,,,,,,,,,,,,,,,,,,,,,,,,,,,,,,,,,"[8,9,6,4,5,2,7,3,1,1]",6,0,6,0,1,,,,,,,,,,,,,,,,,,,,,,,,,,,,,,,,,,,,,,,,,,,,,,,,
,,60c2b5411e6268b10e6625d6,2022-09-08_12h38.06.720,CGTgamblingSpanTasks,2022.2.1,MacIntel,30.3030303,,,,,,,,,,,,,,,,,,,,,,,,,,,,,,,,,,,,,,,,,,,,,,,,,,,,,,,,,,,,,,,,,,,,,,,,,,,,,,,,,,"[8,9,6,4,5,2,7,3,1,1]",7,0,7,0,1,,,,,,,,,,,,,,,,,,,,,,,,,,,,,,,,,,,,,,,,,,,,,,,,
,,60c2b5411e6268b10e6625d6,2022-09-08_12h38.06.720,CGTgamblingSpanTasks,2022.2.1,MacIntel,30.3030303,,,,,,,,,,,,,,,,,,,,,,,,,,,,,,,,,,,,,,,,,,,,,,,,,,,,,,,,,,,,,,,,,,,,,,,,,,,,,,,,,,"[8,9,6,4,5,2,7,3,1,1]",8,0,8,0,1,,,,,,,,,,,,,,,,,,,,,,,,,,,,,,,,,,,,,,,,,,,,,,,,
,,60c2b5411e6268b10e6625d6,2022-09-08_12h38.06.720,CGTgamblingSpanTasks,2022.2.1,MacIntel,30.3030303,,,,,,,,,,,,,,,,,,,,,,,,,,,,,,,,,,,,,,,,,,,,,,,,,,,,,,,,,,,,,,,,,,,,,,,,,,,,,,,,,,"[8,9,6,4,5,2,7,3,1,1]",9,0,9,0,1,,,,,,,,,,,,,,,,,,,,,,,,,,,,,,,,,,,,,,,,,,,,,,,,
,,60c2b5411e6268b10e6625d6,2022-09-08_12h38.06.720,CGTgamblingSpanTasks,2022.2.1,MacIntel,30.3030303,,,,,,,,,,,,,,,,,,,,,,,,,,,,,,,,,,,,,,,,,,,,,,,,,,,,,,,,,,,,,,,1,,,,,,,,,,,,,,,,,,,,,,,,,8964527311,-0.032222222,-0.405555556,1,0,0,cont_button,0,8,8,8,1,9,,,,,,,,,,,,,,,,,,,,,,,,,,,,,,,,,,,
,,60c2b5411e6268b10e6625d6,2022-09-08_12h38.06.720,CGTgamblingSpanTasks,2022.2.1,MacIntel,30.3030303,,,,,,,,,,,,,,,,,,,,,,,,,,,,,,,,,,,,,,,,,,,,,,,,,,,,,,,,,,,,,,,,,,,,,,,,,,,,,,,,,,"[4,5,3,1,2,8,7,9,6,6,1]",0,0,0,0,1,,,,,,,,,,,,,,,,,,,,,,,,,,,,,,,,,,,,,,,,,,,,,,,,
,,60c2b5411e6268b10e6625d6,2022-09-08_12h38.06.720,CGTgamblingSpanTasks,2022.2.1,MacIntel,30.3030303,,,,,,,,,,,,,,,,,,,,,,,,,,,,,,,,,,,,,,,,,,,,,,,,,,,,,,,,,,,,,,,,,,,,,,,,,,,,,,,,,,"[4,5,3,1,2,8,7,9,6,6,1]",1,0,1,0,1,,,,,,,,,,,,,,,,,,,,,,,,,,,,,,,,,,,,,,,,,,,,,,,,
,,60c2b5411e6268b10e6625d6,2022-09-08_12h38.06.720,CGTgamblingSpanTasks,2022.2.1,MacIntel,30.3030303,,,,,,,,,,,,,,,,,,,,,,,,,,,,,,,,,,,,,,,,,,,,,,,,,,,,,,,,,,,,,,,,,,,,,,,,,,,,,,,,,,"[4,5,3,1,2,8,7,9,6,6,1]",2,0,2,0,1,,,,,,,,,,,,,,,,,,,,,,,,,,,,,,,,,,,,,,,,,,,,,,,,
,,60c2b5411e6268b10e6625d6,2022-09-08_12h38.06.720,CGTgamblingSpanTasks,2022.2.1,MacIntel,30.3030303,,,,,,,,,,,,,,,,,,,,,,,,,,,,,,,,,,,,,,,,,,,,,,,,,,,,,,,,,,,,,,,,,,,,,,,,,,,,,,,,,,"[4,5,3,1,2,8,7,9,6,6,1]",3,0,3,0,1,,,,,,,,,,,,,,,,,,,,,,,,,,,,,,,,,,,,,,,,,,,,,,,,
,,60c2b5411e6268b10e6625d6,2022-09-08_12h38.06.720,CGTgamblingSpanTasks,2022.2.1,MacIntel,30.3030303,,,,,,,,,,,,,,,,,,,,,,,,,,,,,,,,,,,,,,,,,,,,,,,,,,,,,,,,,,,,,,,,,,,,,,,,,,,,,,,,,,"[4,5,3,1,2,8,7,9,6,6,1]",4,0,4,0,1,,,,,,,,,,,,,,,,,,,,,,,,,,,,,,,,,,,,,,,,,,,,,,,,
,,60c2b5411e6268b10e6625d6,2022-09-08_12h38.06.720,CGTgamblingSpanTasks,2022.2.1,MacIntel,30.3030303,,,,,,,,,,,,,,,,,,,,,,,,,,,,,,,,,,,,,,,,,,,,,,,,,,,,,,,,,,,,,,,,,,,,,,,,,,,,,,,,,,"[4,5,3,1,2,8,7,9,6,6,1]",5,0,5,0,1,,,,,,,,,,,,,,,,,,,,,,,,,,,,,,,,,,,,,,,,,,,,,,,,
,,60c2b5411e6268b10e6625d6,2022-09-08_12h38.06.720,CGTgamblingSpanTasks,2022.2.1,MacIntel,30.3030303,,,,,,,,,,,,,,,,,,,,,,,,,,,,,,,,,,,,,,,,,,,,,,,,,,,,,,,,,,,,,,,,,,,,,,,,,,,,,,,,,,"[4,5,3,1,2,8,7,9,6,6,1]",6,0,6,0,1,,,,,,,,,,,,,,,,,,,,,,,,,,,,,,,,,,,,,,,,,,,,,,,,
,,60c2b5411e6268b10e6625d6,2022-09-08_12h38.06.720,CGTgamblingSpanTasks,2022.2.1,MacIntel,30.3030303,,,,,,,,,,,,,,,,,,,,,,,,,,,,,,,,,,,,,,,,,,,,,,,,,,,,,,,,,,,,,,,,,,,,,,,,,,,,,,,,,,"[4,5,3,1,2,8,7,9,6,6,1]",7,0,7,0,1,,,,,,,,,,,,,,,,,,,,,,,,,,,,,,,,,,,,,,,,,,,,,,,,
,,60c2b5411e6268b10e6625d6,2022-09-08_12h38.06.720,CGTgamblingSpanTasks,2022.2.1,MacIntel,30.3030303,,,,,,,,,,,,,,,,,,,,,,,,,,,,,,,,,,,,,,,,,,,,,,,,,,,,,,,,,,,,,,,,,,,,,,,,,,,,,,,,,,"[4,5,3,1,2,8,7,9,6,6,1]",8,0,8,0,1,,,,,,,,,,,,,,,,,,,,,,,,,,,,,,,,,,,,,,,,,,,,,,,,
,,60c2b5411e6268b10e6625d6,2022-09-08_12h38.06.720,CGTgamblingSpanTasks,2022.2.1,MacIntel,30.3030303,,,,,,,,,,,,,,,,,,,,,,,,,,,,,,,,,,,,,,,,,,,,,,,,,,,,,,,,,,,,,,,,,,,,,,,,,,,,,,,,,,"[4,5,3,1,2,8,7,9,6,6,1]",9,0,9,0,1,,,,,,,,,,,,,,,,,,,,,,,,,,,,,,,,,,,,,,,,,,,,,,,,
,,60c2b5411e6268b10e6625d6,2022-09-08_12h38.06.720,CGTgamblingSpanTasks,2022.2.1,MacIntel,30.3030303,,,,,,,,,,,,,,,,,,,,,,,,,,,,,,,,,,,,,,,,,,,,,,,,,,,,,,,,,,,,,,,,,,,,,,,,,,,,,,,,,,"[4,5,3,1,2,8,7,9,6,6,1]",10,0,10,0,1,,,,,,,,,,,,,,,,,,,,,,,,,,,,,,,,,,,,,,,,,,,,,,,,
,,60c2b5411e6268b10e6625d6,2022-09-08_12h38.06.720,CGTgamblingSpanTasks,2022.2.1,MacIntel,30.3030303,,,,,,,,,,,,,,,,,,,,,,,,,,,,,,,,,,,,,,,,,,,,,,,,,,,,,,,,,,,,,,,1,,,,,,,,,,,,,,,,,,,,,,,,,45312879661,-0.03,-0.375555556,1,0,0,cont_button,0,9,9,9,1,10,,,,,,,,,,,,,,,,,,,,,,,,,,,,,,,,,,,
,,60c2b5411e6268b10e6625d6,2022-09-08_12h38.06.720,CGTgamblingSpanTasks,2022.2.1,MacIntel,30.3030303,,,,,,,,,,,,,,,,,,,,,,,,,,,,,,,,,,,,,,,,,,,,,,,,,,,,,,,,,,,,,,,,,,,,,,,,,,,,,,,,,,"[8,9,1,2,4,7,5,3,6,6,2,4]",0,0,0,0,1,,,,,,,,,,,,,,,,,,,,,,,,,,,,,,,,,,,,,,,,,,,,,,,,
,,60c2b5411e6268b10e6625d6,2022-09-08_12h38.06.720,CGTgamblingSpanTasks,2022.2.1,MacIntel,30.3030303,,,,,,,,,,,,,,,,,,,,,,,,,,,,,,,,,,,,,,,,,,,,,,,,,,,,,,,,,,,,,,,,,,,,,,,,,,,,,,,,,,"[8,9,1,2,4,7,5,3,6,6,2,4]",1,0,1,0,1,,,,,,,,,,,,,,,,,,,,,,,,,,,,,,,,,,,,,,,,,,,,,,,,
,,60c2b5411e6268b10e6625d6,2022-09-08_12h38.06.720,CGTgamblingSpanTasks,2022.2.1,MacIntel,30.3030303,,,,,,,,,,,,,,,,,,,,,,,,,,,,,,,,,,,,,,,,,,,,,,,,,,,,,,,,,,,,,,,,,,,,,,,,,,,,,,,,,,"[8,9,1,2,4,7,5,3,6,6,2,4]",2,0,2,0,1,,,,,,,,,,,,,,,,,,,,,,,,,,,,,,,,,,,,,,,,,,,,,,,,
,,60c2b5411e6268b10e6625d6,2022-09-08_12h38.06.720,CGTgamblingSpanTasks,2022.2.1,MacIntel,30.3030303,,,,,,,,,,,,,,,,,,,,,,,,,,,,,,,,,,,,,,,,,,,,,,,,,,,,,,,,,,,,,,,,,,,,,,,,,,,,,,,,,,"[8,9,1,2,4,7,5,3,6,6,2,4]",3,0,3,0,1,,,,,,,,,,,,,,,,,,,,,,,,,,,,,,,,,,,,,,,,,,,,,,,,
,,60c2b5411e6268b10e6625d6,2022-09-08_12h38.06.720,CGTgamblingSpanTasks,2022.2.1,MacIntel,30.3030303,,,,,,,,,,,,,,,,,,,,,,,,,,,,,,,,,,,,,,,,,,,,,,,,,,,,,,,,,,,,,,,,,,,,,,,,,,,,,,,,,,"[8,9,1,2,4,7,5,3,6,6,2,4]",4,0,4,0,1,,,,,,,,,,,,,,,,,,,,,,,,,,,,,,,,,,,,,,,,,,,,,,,,
,,60c2b5411e6268b10e6625d6,2022-09-08_12h38.06.720,CGTgamblingSpanTasks,2022.2.1,MacIntel,30.3030303,,,,,,,,,,,,,,,,,,,,,,,,,,,,,,,,,,,,,,,,,,,,,,,,,,,,,,,,,,,,,,,,,,,,,,,,,,,,,,,,,,"[8,9,1,2,4,7,5,3,6,6,2,4]",5,0,5,0,1,,,,,,,,,,,,,,,,,,,,,,,,,,,,,,,,,,,,,,,,,,,,,,,,
,,60c2b5411e6268b10e6625d6,2022-09-08_12h38.06.720,CGTgamblingSpanTasks,2022.2.1,MacIntel,30.3030303,,,,,,,,,,,,,,,,,,,,,,,,,,,,,,,,,,,,,,,,,,,,,,,,,,,,,,,,,,,,,,,,,,,,,,,,,,,,,,,,,,"[8,9,1,2,4,7,5,3,6,6,2,4]",6,0,6,0,1,,,,,,,,,,,,,,,,,,,,,,,,,,,,,,,,,,,,,,,,,,,,,,,,
,,60c2b5411e6268b10e6625d6,2022-09-08_12h38.06.720,CGTgamblingSpanTasks,2022.2.1,MacIntel,30.3030303,,,,,,,,,,,,,,,,,,,,,,,,,,,,,,,,,,,,,,,,,,,,,,,,,,,,,,,,,,,,,,,,,,,,,,,,,,,,,,,,,,"[8,9,1,2,4,7,5,3,6,6,2,4]",7,0,7,0,1,,,,,,,,,,,,,,,,,,,,,,,,,,,,,,,,,,,,,,,,,,,,,,,,
,,60c2b5411e6268b10e6625d6,2022-09-08_12h38.06.720,CGTgamblingSpanTasks,2022.2.1,MacIntel,30.3030303,,,,,,,,,,,,,,,,,,,,,,,,,,,,,,,,,,,,,,,,,,,,,,,,,,,,,,,,,,,,,,,,,,,,,,,,,,,,,,,,,,"[8,9,1,2,4,7,5,3,6,6,2,4]",8,0,8,0,1,,,,,,,,,,,,,,,,,,,,,,,,,,,,,,,,,,,,,,,,,,,,,,,,
,,60c2b5411e6268b10e6625d6,2022-09-08_12h38.06.720,CGTgamblingSpanTasks,2022.2.1,MacIntel,30.3030303,,,,,,,,,,,,,,,,,,,,,,,,,,,,,,,,,,,,,,,,,,,,,,,,,,,,,,,,,,,,,,,,,,,,,,,,,,,,,,,,,,"[8,9,1,2,4,7,5,3,6,6,2,4]",9,0,9,0,1,,,,,,,,,,,,,,,,,,,,,,,,,,,,,,,,,,,,,,,,,,,,,,,,
,,60c2b5411e6268b10e6625d6,2022-09-08_12h38.06.720,CGTgamblingSpanTasks,2022.2.1,MacIntel,30.3030303,,,,,,,,,,,,,,,,,,,,,,,,,,,,,,,,,,,,,,,,,,,,,,,,,,,,,,,,,,,,,,,,,,,,,,,,,,,,,,,,,,"[8,9,1,2,4,7,5,3,6,6,2,4]",10,0,10,0,1,,,,,,,,,,,,,,,,,,,,,,,,,,,,,,,,,,,,,,,,,,,,,,,,
,,60c2b5411e6268b10e6625d6,2022-09-08_12h38.06.720,CGTgamblingSpanTasks,2022.2.1,MacIntel,30.3030303,,,,,,,,,,,,,,,,,,,,,,,,,,,,,,,,,,,,,,,,,,,,,,,,,,,,,,,,,,,,,,,,,,,,,,,,,,,,,,,,,,"[8,9,1,2,4,7,5,3,6,6,2,4]",11,0,11,0,1,,,,,,,,,,,,,,,,,,,,,,,,,,,,,,,,,,,,,,,,,,,,,,,,
,,60c2b5411e6268b10e6625d6,2022-09-08_12h38.06.720,CGTgamblingSpanTasks,2022.2.1,MacIntel,30.3030303,,,,,,,,,,,,,,,,,,,,,,,,,,,,,,,,,,,,,,,,,,,,,,,,,,,,,,,,,,,,,,,1,,,,,,,,,,,,,,,,,,,,,,,,,891247536624,0.032222222,-0.412222222,1,0,0,cont_button,0,10,10,10,1,11,,,,,,,,,,,,,,,,,,,,,,,,,,,,,,,,,,,
,,60c2b5411e6268b10e6625d6,2022-09-08_12h38.06.720,CGTgamblingSpanTasks,2022.2.1,MacIntel,30.3030303,,,,,,,,,,,,,,,,,,,,,,,,,,,,,,,,,,,,,,,,,,,,,,,,,,,,,,,,,,,,,,,,,,,,,,,,,,,,,,,,,,"[7,2,4,1,5,6,9,8,3,3,6,1,7]",0,0,0,0,1,,,,,,,,,,,,,,,,,,,,,,,,,,,,,,,,,,,,,,,,,,,,,,,,
,,60c2b5411e6268b10e6625d6,2022-09-08_12h38.06.720,CGTgamblingSpanTasks,2022.2.1,MacIntel,30.3030303,,,,,,,,,,,,,,,,,,,,,,,,,,,,,,,,,,,,,,,,,,,,,,,,,,,,,,,,,,,,,,,,,,,,,,,,,,,,,,,,,,"[7,2,4,1,5,6,9,8,3,3,6,1,7]",1,0,1,0,1,,,,,,,,,,,,,,,,,,,,,,,,,,,,,,,,,,,,,,,,,,,,,,,,
,,60c2b5411e6268b10e6625d6,2022-09-08_12h38.06.720,CGTgamblingSpanTasks,2022.2.1,MacIntel,30.3030303,,,,,,,,,,,,,,,,,,,,,,,,,,,,,,,,,,,,,,,,,,,,,,,,,,,,,,,,,,,,,,,,,,,,,,,,,,,,,,,,,,"[7,2,4,1,5,6,9,8,3,3,6,1,7]",2,0,2,0,1,,,,,,,,,,,,,,,,,,,,,,,,,,,,,,,,,,,,,,,,,,,,,,,,
,,60c2b5411e6268b10e6625d6,2022-09-08_12h38.06.720,CGTgamblingSpanTasks,2022.2.1,MacIntel,30.3030303,,,,,,,,,,,,,,,,,,,,,,,,,,,,,,,,,,,,,,,,,,,,,,,,,,,,,,,,,,,,,,,,,,,,,,,,,,,,,,,,,,"[7,2,4,1,5,6,9,8,3,3,6,1,7]",3,0,3,0,1,,,,,,,,,,,,,,,,,,,,,,,,,,,,,,,,,,,,,,,,,,,,,,,,
,,60c2b5411e6268b10e6625d6,2022-09-08_12h38.06.720,CGTgamblingSpanTasks,2022.2.1,MacIntel,30.3030303,,,,,,,,,,,,,,,,,,,,,,,,,,,,,,,,,,,,,,,,,,,,,,,,,,,,,,,,,,,,,,,,,,,,,,,,,,,,,,,,,,"[7,2,4,1,5,6,9,8,3,3,6,1,7]",4,0,4,0,1,,,,,,,,,,,,,,,,,,,,,,,,,,,,,,,,,,,,,,,,,,,,,,,,
,,60c2b5411e6268b10e6625d6,2022-09-08_12h38.06.720,CGTgamblingSpanTasks,2022.2.1,MacIntel,30.3030303,,,,,,,,,,,,,,,,,,,,,,,,,,,,,,,,,,,,,,,,,,,,,,,,,,,,,,,,,,,,,,,,,,,,,,,,,,,,,,,,,,"[7,2,4,1,5,6,9,8,3,3,6,1,7]",5,0,5,0,1,,,,,,,,,,,,,,,,,,,,,,,,,,,,,,,,,,,,,,,,,,,,,,,,
,,60c2b5411e6268b10e6625d6,2022-09-08_12h38.06.720,CGTgamblingSpanTasks,2022.2.1,MacIntel,30.3030303,,,,,,,,,,,,,,,,,,,,,,,,,,,,,,,,,,,,,,,,,,,,,,,,,,,,,,,,,,,,,,,,,,,,,,,,,,,,,,,,,,"[7,2,4,1,5,6,9,8,3,3,6,1,7]",6,0,6,0,1,,,,,,,,,,,,,,,,,,,,,,,,,,,,,,,,,,,,,,,,,,,,,,,,
,,60c2b5411e6268b10e6625d6,2022-09-08_12h38.06.720,CGTgamblingSpanTasks,2022.2.1,MacIntel,30.3030303,,,,,,,,,,,,,,,,,,,,,,,,,,,,,,,,,,,,,,,,,,,,,,,,,,,,,,,,,,,,,,,,,,,,,,,,,,,,,,,,,,"[7,2,4,1,5,6,9,8,3,3,6,1,7]",7,0,7,0,1,,,,,,,,,,,,,,,,,,,,,,,,,,,,,,,,,,,,,,,,,,,,,,,,
,,60c2b5411e6268b10e6625d6,2022-09-08_12h38.06.720,CGTgamblingSpanTasks,2022.2.1,MacIntel,30.3030303,,,,,,,,,,,,,,,,,,,,,,,,,,,,,,,,,,,,,,,,,,,,,,,,,,,,,,,,,,,,,,,,,,,,,,,,,,,,,,,,,,"[7,2,4,1,5,6,9,8,3,3,6,1,7]",8,0,8,0,1,,,,,,,,,,,,,,,,,,,,,,,,,,,,,,,,,,,,,,,,,,,,,,,,
,,60c2b5411e6268b10e6625d6,2022-09-08_12h38.06.720,CGTgamblingSpanTasks,2022.2.1,MacIntel,30.3030303,,,,,,,,,,,,,,,,,,,,,,,,,,,,,,,,,,,,,,,,,,,,,,,,,,,,,,,,,,,,,,,,,,,,,,,,,,,,,,,,,,"[7,2,4,1,5,6,9,8,3,3,6,1,7]",9,0,9,0,1,,,,,,,,,,,,,,,,,,,,,,,,,,,,,,,,,,,,,,,,,,,,,,,,
,,60c2b5411e6268b10e6625d6,2022-09-08_12h38.06.720,CGTgamblingSpanTasks,2022.2.1,MacIntel,30.3030303,,,,,,,,,,,,,,,,,,,,,,,,,,,,,,,,,,,,,,,,,,,,,,,,,,,,,,,,,,,,,,,,,,,,,,,,,,,,,,,,,,"[7,2,4,1,5,6,9,8,3,3,6,1,7]",10,0,10,0,1,,,,,,,,,,,,,,,,,,,,,,,,,,,,,,,,,,,,,,,,,,,,,,,,
,,60c2b5411e6268b10e6625d6,2022-09-08_12h38.06.720,CGTgamblingSpanTasks,2022.2.1,MacIntel,30.3030303,,,,,,,,,,,,,,,,,,,,,,,,,,,,,,,,,,,,,,,,,,,,,,,,,,,,,,,,,,,,,,,,,,,,,,,,,,,,,,,,,,"[7,2,4,1,5,6,9,8,3,3,6,1,7]",11,0,11,0,1,,,,,,,,,,,,,,,,,,,,,,,,,,,,,,,,,,,,,,,,,,,,,,,,
,,60c2b5411e6268b10e6625d6,2022-09-08_12h38.06.720,CGTgamblingSpanTasks,2022.2.1,MacIntel,30.3030303,,,,,,,,,,,,,,,,,,,,,,,,,,,,,,,,,,,,,,,,,,,,,,,,,,,,,,,,,,,,,,,,,,,,,,,,,,,,,,,,,,"[7,2,4,1,5,6,9,8,3,3,6,1,7]",12,0,12,0,1,,,,,,,,,,,,,,,,,,,,,,,,,,,,,,,,,,,,,,,,,,,,,,,,
,,60c2b5411e6268b10e6625d6,2022-09-08_12h38.06.720,CGTgamblingSpanTasks,2022.2.1,MacIntel,30.3030303,,,,,,,,,,,,,,,,,,,,,,,,,,,,,,,,,,,,,,,,,,,,,,,,,,,,,,,,,,,,,,,1,,,,,,,,,,,,,,,,,,,,,,,,,7241569833617,0.014444444,-0.38,1,0,0,cont_button,0,11,11,11,1,12,,,,,,,,,,,,,,,,,,,,,,,,,,,,,,,,,,,
,,60c2b5411e6268b10e6625d6,2022-09-08_12h38.06.720,CGTgamblingSpanTasks,2022.2.1,MacIntel,30.3030303,,,,,,,,,,,,,,,,,,,,,,,,,,,,,,,,,,,,,,,,,,,,,,,,,,,,,,,,,,,,,,,,,,,,,,,,,,,,,,,,,,"[1,8,9,6,2,7,4,3,5,5,6,2,7,4]",0,0,0,0,1,,,,,,,,,,,,,,,,,,,,,,,,,,,,,,,,,,,,,,,,,,,,,,,,
,,60c2b5411e6268b10e6625d6,2022-09-08_12h38.06.720,CGTgamblingSpanTasks,2022.2.1,MacIntel,30.3030303,,,,,,,,,,,,,,,,,,,,,,,,,,,,,,,,,,,,,,,,,,,,,,,,,,,,,,,,,,,,,,,,,,,,,,,,,,,,,,,,,,"[1,8,9,6,2,7,4,3,5,5,6,2,7,4]",1,0,1,0,1,,,,,,,,,,,,,,,,,,,,,,,,,,,,,,,,,,,,,,,,,,,,,,,,
,,60c2b5411e6268b10e6625d6,2022-09-08_12h38.06.720,CGTgamblingSpanTasks,2022.2.1,MacIntel,30.3030303,,,,,,,,,,,,,,,,,,,,,,,,,,,,,,,,,,,,,,,,,,,,,,,,,,,,,,,,,,,,,,,,,,,,,,,,,,,,,,,,,,"[1,8,9,6,2,7,4,3,5,5,6,2,7,4]",2,0,2,0,1,,,,,,,,,,,,,,,,,,,,,,,,,,,,,,,,,,,,,,,,,,,,,,,,
,,60c2b5411e6268b10e6625d6,2022-09-08_12h38.06.720,CGTgamblingSpanTasks,2022.2.1,MacIntel,30.3030303,,,,,,,,,,,,,,,,,,,,,,,,,,,,,,,,,,,,,,,,,,,,,,,,,,,,,,,,,,,,,,,,,,,,,,,,,,,,,,,,,,"[1,8,9,6,2,7,4,3,5,5,6,2,7,4]",3,0,3,0,1,,,,,,,,,,,,,,,,,,,,,,,,,,,,,,,,,,,,,,,,,,,,,,,,
,,60c2b5411e6268b10e6625d6,2022-09-08_12h38.06.720,CGTgamblingSpanTasks,2022.2.1,MacIntel,30.3030303,,,,,,,,,,,,,,,,,,,,,,,,,,,,,,,,,,,,,,,,,,,,,,,,,,,,,,,,,,,,,,,,,,,,,,,,,,,,,,,,,,"[1,8,9,6,2,7,4,3,5,5,6,2,7,4]",4,0,4,0,1,,,,,,,,,,,,,,,,,,,,,,,,,,,,,,,,,,,,,,,,,,,,,,,,
,,60c2b5411e6268b10e6625d6,2022-09-08_12h38.06.720,CGTgamblingSpanTasks,2022.2.1,MacIntel,30.3030303,,,,,,,,,,,,,,,,,,,,,,,,,,,,,,,,,,,,,,,,,,,,,,,,,,,,,,,,,,,,,,,,,,,,,,,,,,,,,,,,,,"[1,8,9,6,2,7,4,3,5,5,6,2,7,4]",5,0,5,0,1,,,,,,,,,,,,,,,,,,,,,,,,,,,,,,,,,,,,,,,,,,,,,,,,
,,60c2b5411e6268b10e6625d6,2022-09-08_12h38.06.720,CGTgamblingSpanTasks,2022.2.1,MacIntel,30.3030303,,,,,,,,,,,,,,,,,,,,,,,,,,,,,,,,,,,,,,,,,,,,,,,,,,,,,,,,,,,,,,,,,,,,,,,,,,,,,,,,,,"[1,8,9,6,2,7,4,3,5,5,6,2,7,4]",6,0,6,0,1,,,,,,,,,,,,,,,,,,,,,,,,,,,,,,,,,,,,,,,,,,,,,,,,
,,60c2b5411e6268b10e6625d6,2022-09-08_12h38.06.720,CGTgamblingSpanTasks,2022.2.1,MacIntel,30.3030303,,,,,,,,,,,,,,,,,,,,,,,,,,,,,,,,,,,,,,,,,,,,,,,,,,,,,,,,,,,,,,,,,,,,,,,,,,,,,,,,,,"[1,8,9,6,2,7,4,3,5,5,6,2,7,4]",7,0,7,0,1,,,,,,,,,,,,,,,,,,,,,,,,,,,,,,,,,,,,,,,,,,,,,,,,
,,60c2b5411e6268b10e6625d6,2022-09-08_12h38.06.720,CGTgamblingSpanTasks,2022.2.1,MacIntel,30.3030303,,,,,,,,,,,,,,,,,,,,,,,,,,,,,,,,,,,,,,,,,,,,,,,,,,,,,,,,,,,,,,,,,,,,,,,,,,,,,,,,,,"[1,8,9,6,2,7,4,3,5,5,6,2,7,4]",8,0,8,0,1,,,,,,,,,,,,,,,,,,,,,,,,,,,,,,,,,,,,,,,,,,,,,,,,
,,60c2b5411e6268b10e6625d6,2022-09-08_12h38.06.720,CGTgamblingSpanTasks,2022.2.1,MacIntel,30.3030303,,,,,,,,,,,,,,,,,,,,,,,,,,,,,,,,,,,,,,,,,,,,,,,,,,,,,,,,,,,,,,,,,,,,,,,,,,,,,,,,,,"[1,8,9,6,2,7,4,3,5,5,6,2,7,4]",9,0,9,0,1,,,,,,,,,,,,,,,,,,,,,,,,,,,,,,,,,,,,,,,,,,,,,,,,
,,60c2b5411e6268b10e6625d6,2022-09-08_12h38.06.720,CGTgamblingSpanTasks,2022.2.1,MacIntel,30.3030303,,,,,,,,,,,,,,,,,,,,,,,,,,,,,,,,,,,,,,,,,,,,,,,,,,,,,,,,,,,,,,,,,,,,,,,,,,,,,,,,,,"[1,8,9,6,2,7,4,3,5,5,6,2,7,4]",10,0,10,0,1,,,,,,,,,,,,,,,,,,,,,,,,,,,,,,,,,,,,,,,,,,,,,,,,
,,60c2b5411e6268b10e6625d6,2022-09-08_12h38.06.720,CGTgamblingSpanTasks,2022.2.1,MacIntel,30.3030303,,,,,,,,,,,,,,,,,,,,,,,,,,,,,,,,,,,,,,,,,,,,,,,,,,,,,,,,,,,,,,,,,,,,,,,,,,,,,,,,,,"[1,8,9,6,2,7,4,3,5,5,6,2,7,4]",11,0,11,0,1,,,,,,,,,,,,,,,,,,,,,,,,,,,,,,,,,,,,,,,,,,,,,,,,
,,60c2b5411e6268b10e6625d6,2022-09-08_12h38.06.720,CGTgamblingSpanTasks,2022.2.1,MacIntel,30.3030303,,,,,,,,,,,,,,,,,,,,,,,,,,,,,,,,,,,,,,,,,,,,,,,,,,,,,,,,,,,,,,,,,,,,,,,,,,,,,,,,,,"[1,8,9,6,2,7,4,3,5,5,6,2,7,4]",12,0,12,0,1,,,,,,,,,,,,,,,,,,,,,,,,,,,,,,,,,,,,,,,,,,,,,,,,
,,60c2b5411e6268b10e6625d6,2022-09-08_12h38.06.720,CGTgamblingSpanTasks,2022.2.1,MacIntel,30.3030303,,,,,,,,,,,,,,,,,,,,,,,,,,,,,,,,,,,,,,,,,,,,,,,,,,,,,,,,,,,,,,,,,,,,,,,,,,,,,,,,,,"[1,8,9,6,2,7,4,3,5,5,6,2,7,4]",13,0,13,0,1,,,,,,,,,,,,,,,,,,,,,,,,,,,,,,,,,,,,,,,,,,,,,,,,
,,60c2b5411e6268b10e6625d6,2022-09-08_12h38.06.720,CGTgamblingSpanTasks,2022.2.1,MacIntel,30.3030303,,,,,,,,,,,,,,,,,,,,,,,,,,,,,,,,,,,,,,,,,,,,,,,,,,,,,,,,,,,,,,,0,,,,,,,,,,,,,,,,,,,,,,,,,18963743556274,-0.031111111,-0.396666667,1,0,0,cont_button,0,12,12,12,1,13,,,,,,,,,,,,,,,,,,,,,,,,,,,,,,,,,,,
,,60c2b5411e6268b10e6625d6,2022-09-08_12h38.06.720,CGTgamblingSpanTasks,2022.2.1,MacIntel,30.3030303,,,,,,,,,,,,,,,,,,,,,,,,,,,,,,,,,,,,,,,,,,,,,,,,,,,,,,,,,,,,,,,,,,,,,,,,,,,,,,,,,,"[4,1,8,3,7,9,2,6,5,5,3,6,9,8]",0,0,0,0,1,,,,,,,,,,,,,,,,,,,,,,,,,,,,,,,,,,,,,,,,,,,,,,,,
,,60c2b5411e6268b10e6625d6,2022-09-08_12h38.06.720,CGTgamblingSpanTasks,2022.2.1,MacIntel,30.3030303,,,,,,,,,,,,,,,,,,,,,,,,,,,,,,,,,,,,,,,,,,,,,,,,,,,,,,,,,,,,,,,,,,,,,,,,,,,,,,,,,,"[4,1,8,3,7,9,2,6,5,5,3,6,9,8]",1,0,1,0,1,,,,,,,,,,,,,,,,,,,,,,,,,,,,,,,,,,,,,,,,,,,,,,,,
,,60c2b5411e6268b10e6625d6,2022-09-08_12h38.06.720,CGTgamblingSpanTasks,2022.2.1,MacIntel,30.3030303,,,,,,,,,,,,,,,,,,,,,,,,,,,,,,,,,,,,,,,,,,,,,,,,,,,,,,,,,,,,,,,,,,,,,,,,,,,,,,,,,,"[4,1,8,3,7,9,2,6,5,5,3,6,9,8]",2,0,2,0,1,,,,,,,,,,,,,,,,,,,,,,,,,,,,,,,,,,,,,,,,,,,,,,,,
,,60c2b5411e6268b10e6625d6,2022-09-08_12h38.06.720,CGTgamblingSpanTasks,2022.2.1,MacIntel,30.3030303,,,,,,,,,,,,,,,,,,,,,,,,,,,,,,,,,,,,,,,,,,,,,,,,,,,,,,,,,,,,,,,,,,,,,,,,,,,,,,,,,,"[4,1,8,3,7,9,2,6,5,5,3,6,9,8]",3,0,3,0,1,,,,,,,,,,,,,,,,,,,,,,,,,,,,,,,,,,,,,,,,,,,,,,,,
,,60c2b5411e6268b10e6625d6,2022-09-08_12h38.06.720,CGTgamblingSpanTasks,2022.2.1,MacIntel,30.3030303,,,,,,,,,,,,,,,,,,,,,,,,,,,,,,,,,,,,,,,,,,,,,,,,,,,,,,,,,,,,,,,,,,,,,,,,,,,,,,,,,,"[4,1,8,3,7,9,2,6,5,5,3,6,9,8]",4,0,4,0,1,,,,,,,,,,,,,,,,,,,,,,,,,,,,,,,,,,,,,,,,,,,,,,,,
,,60c2b5411e6268b10e6625d6,2022-09-08_12h38.06.720,CGTgamblingSpanTasks,2022.2.1,MacIntel,30.3030303,,,,,,,,,,,,,,,,,,,,,,,,,,,,,,,,,,,,,,,,,,,,,,,,,,,,,,,,,,,,,,,,,,,,,,,,,,,,,,,,,,"[4,1,8,3,7,9,2,6,5,5,3,6,9,8]",5,0,5,0,1,,,,,,,,,,,,,,,,,,,,,,,,,,,,,,,,,,,,,,,,,,,,,,,,
,,60c2b5411e6268b10e6625d6,2022-09-08_12h38.06.720,CGTgamblingSpanTasks,2022.2.1,MacIntel,30.3030303,,,,,,,,,,,,,,,,,,,,,,,,,,,,,,,,,,,,,,,,,,,,,,,,,,,,,,,,,,,,,,,,,,,,,,,,,,,,,,,,,,"[4,1,8,3,7,9,2,6,5,5,3,6,9,8]",6,0,6,0,1,,,,,,,,,,,,,,,,,,,,,,,,,,,,,,,,,,,,,,,,,,,,,,,,
,,60c2b5411e6268b10e6625d6,2022-09-08_12h38.06.720,CGTgamblingSpanTasks,2022.2.1,MacIntel,30.3030303,,,,,,,,,,,,,,,,,,,,,,,,,,,,,,,,,,,,,,,,,,,,,,,,,,,,,,,,,,,,,,,,,,,,,,,,,,,,,,,,,,"[4,1,8,3,7,9,2,6,5,5,3,6,9,8]",7,0,7,0,1,,,,,,,,,,,,,,,,,,,,,,,,,,,,,,,,,,,,,,,,,,,,,,,,
,,60c2b5411e6268b10e6625d6,2022-09-08_12h38.06.720,CGTgamblingSpanTasks,2022.2.1,MacIntel,30.3030303,,,,,,,,,,,,,,,,,,,,,,,,,,,,,,,,,,,,,,,,,,,,,,,,,,,,,,,,,,,,,,,,,,,,,,,,,,,,,,,,,,"[4,1,8,3,7,9,2,6,5,5,3,6,9,8]",8,0,8,0,1,,,,,,,,,,,,,,,,,,,,,,,,,,,,,,,,,,,,,,,,,,,,,,,,
,,60c2b5411e6268b10e6625d6,2022-09-08_12h38.06.720,CGTgamblingSpanTasks,2022.2.1,MacIntel,30.3030303,,,,,,,,,,,,,,,,,,,,,,,,,,,,,,,,,,,,,,,,,,,,,,,,,,,,,,,,,,,,,,,,,,,,,,,,,,,,,,,,,,"[4,1,8,3,7,9,2,6,5,5,3,6,9,8]",9,0,9,0,1,,,,,,,,,,,,,,,,,,,,,,,,,,,,,,,,,,,,,,,,,,,,,,,,
,,60c2b5411e6268b10e6625d6,2022-09-08_12h38.06.720,CGTgamblingSpanTasks,2022.2.1,MacIntel,30.3030303,,,,,,,,,,,,,,,,,,,,,,,,,,,,,,,,,,,,,,,,,,,,,,,,,,,,,,,,,,,,,,,,,,,,,,,,,,,,,,,,,,"[4,1,8,3,7,9,2,6,5,5,3,6,9,8]",10,0,10,0,1,,,,,,,,,,,,,,,,,,,,,,,,,,,,,,,,,,,,,,,,,,,,,,,,
,,60c2b5411e6268b10e6625d6,2022-09-08_12h38.06.720,CGTgamblingSpanTasks,2022.2.1,MacIntel,30.3030303,,,,,,,,,,,,,,,,,,,,,,,,,,,,,,,,,,,,,,,,,,,,,,,,,,,,,,,,,,,,,,,,,,,,,,,,,,,,,,,,,,"[4,1,8,3,7,9,2,6,5,5,3,6,9,8]",11,0,11,0,1,,,,,,,,,,,,,,,,,,,,,,,,,,,,,,,,,,,,,,,,,,,,,,,,
,,60c2b5411e6268b10e6625d6,2022-09-08_12h38.06.720,CGTgamblingSpanTasks,2022.2.1,MacIntel,30.3030303,,,,,,,,,,,,,,,,,,,,,,,,,,,,,,,,,,,,,,,,,,,,,,,,,,,,,,,,,,,,,,,,,,,,,,,,,,,,,,,,,,"[4,1,8,3,7,9,2,6,5,5,3,6,9,8]",12,0,12,0,1,,,,,,,,,,,,,,,,,,,,,,,,,,,,,,,,,,,,,,,,,,,,,,,,
,,60c2b5411e6268b10e6625d6,2022-09-08_12h38.06.720,CGTgamblingSpanTasks,2022.2.1,MacIntel,30.3030303,,,,,,,,,,,,,,,,,,,,,,,,,,,,,,,,,,,,,,,,,,,,,,,,,,,,,,,,,,,,,,,,,,,,,,,,,,,,,,,,,,"[4,1,8,3,7,9,2,6,5,5,3,6,9,8]",13,0,13,0,1,,,,,,,,,,,,,,,,,,,,,,,,,,,,,,,,,,,,,,,,,,,,,,,,
,,60c2b5411e6268b10e6625d6,2022-09-08_12h38.06.720,CGTgamblingSpanTasks,2022.2.1,MacIntel,30.3030303,,,,,,,,,,,,,,,,,,,,,,,,,,,,,,,,,,,,,,,,,,,,,,,,,,,,,,,,,,,,,,,1,,,,,,,,,,,,,,,,,,,,,,,,,41837926553698,-0.008888889,-0.386666667,1,0,0,cont_button,0,13,13,13,1,14,,,,,,,,,,,,,,,,,,,,,,,,,,,,,,,,,,,
,,60c2b5411e6268b10e6625d6,2022-09-08_12h38.06.720,CGTgamblingSpanTasks,2022.2.1,MacIntel,30.3030303,,,,,,,,,,,,,,,,,,,,,,,,,,,,,,,,,,,,,,,,,,,,,,,,,,,,,,,,,,,,,,,,,,,,,,,,,,,,,,,,,,,,,,,,,,,,,,,,,,,,,return,66.253,,,,,,,,,,,,,,,,,,,,,,,,,,,,,,,,,
,,60c2b5411e6268b10e6625d6,2022-09-08_12h38.06.720,CGTgamblingSpanTasks,2022.2.1,MacIntel,30.3030303,,,,,,,,,,,,,,,,,,,,,,,,,,,,,,,,,,,,,,,,,,,,,,,,,,,,,,,,,,,,,,,,,,,,,,,,,,,,,,,,,,,,,,,,,,,,,,,,,,,,,,,return,2.756,,,,,,,,,,,,,,,,,,,,,,,,,,,,,,,
,,60c2b5411e6268b10e6625d6,2022-09-08_12h38.06.720,CGTgamblingSpanTasks,2022.2.1,MacIntel,30.3030303,,,,,,,,,,,,,,,,,,,,,,,,,,,,,,,,,,,,,,,,,,,,,,,,,,,,,,,,,,,,,,,1,,,,,,,,,,,,3,342,24,2,42,,,,,,,,,,,,,,,,,,,,,,,,,,42,0.014444444,-0.417777778,1,0,0,cont_buttonPractice_2,0,0,0,0,1,,,,,,,,,,,,,,,,,,,
,,60c2b5411e6268b10e6625d6,2022-09-08_12h38.06.720,CGTgamblingSpanTasks,2022.2.1,MacIntel,30.3030303,,,,,,,,,,,,,,,,,,,,,,,,,,,,,,,,,,,,,,,,,,,,,,,,,,,,,,,,,,,,,,,1,,,,,,,,,,,,3,937,73,2,37,,,,,,,,,,,,,,,,,,,,,,,,,,37,0.006666667,-0.376666667,1,0,0,cont_buttonPractice_2,0,1,1,1,1,,,,,,,,,,,,,,,,,,,
,,60c2b5411e6268b10e6625d6,2022-09-08_12h38.06.720,CGTgamblingSpanTasks,2022.2.1,MacIntel,30.3030303,,,,,,,,,,,,,,,,,,,,,,,,,,,,,,,,,,,,,,,,,,,,,,,,,,,,,,,,,,,,,,,,,,,,,,,,,,,,,,,,,,,,,,,,,,,,,,,,,,,,,,,,,,,,,,,,,,,,,return,1.645,,,,,,,,,,,,,,,,,
,,60c2b5411e6268b10e6625d6,2022-09-08_12h38.06.720,CGTgamblingSpanTasks,2022.2.1,MacIntel,30.3030303,,,,,,,,,,,,,,,,,,,,,,,,,,,,,,,,,,,,,,,,,,,,,,,,,,,,,,,,,,,,,,,,,,,,,,,,,,,,,,,,,,"[2,1]",,,,,,,,,,,,,,,,,,,,,,,,,,,,,,,,,,,,,0,0,0,0,1,,,,,,,,,,,,
,,60c2b5411e6268b10e6625d6,2022-09-08_12h38.06.720,CGTgamblingSpanTasks,2022.2.1,MacIntel,30.3030303,,,,,,,,,,,,,,,,,,,,,,,,,,,,,,,,,,,,,,,,,,,,,,,,,,,,,,,,,,,,,,,,,,,,,,,,,,,,,,,,,,"[2,1]",,,,,,,,,,,,,,,,,,,,,,,,,,,,,,,,,,,,,1,0,1,0,1,,,,,,,,,,,,
,,60c2b5411e6268b10e6625d6,2022-09-08_12h38.06.720,CGTgamblingSpanTasks,2022.2.1,MacIntel,30.3030303,,,,,,,,,,,,,,,,,,,,,,,,,,,,,,,,,,,,,,,,,,,,,,,,,,,,,,,,,,,,,,,1,,,,,,,,,,,,,,,,,,,,,,,,,,,,,,,,,,,,,1,,,,,,,,,,,,,,,,,,,,,,,,12,0.036666667,-0.412222222,1,0,0,cont_buttonBS,0,0,0,0,1
,,60c2b5411e6268b10e6625d6,2022-09-08_12h38.06.720,CGTgamblingSpanTasks,2022.2.1,MacIntel,30.3030303,,,,,,,,,,,,,,,,,,,,,,,,,,,,,,,,,,,,,,,,,,,,,,,,,,,,,,,,,,,,,,,,,,,,,,,,,,,,,,,,,,"[7,3,5]",,,,,,,,,,,,,,,,,,,,,,,,,,,,,,,,,,,,,0,0,0,0,1,,,,,,,,,,,,
,,60c2b5411e6268b10e6625d6,2022-09-08_12h38.06.720,CGTgamblingSpanTasks,2022.2.1,MacIntel,30.3030303,,,,,,,,,,,,,,,,,,,,,,,,,,,,,,,,,,,,,,,,,,,,,,,,,,,,,,,,,,,,,,,,,,,,,,,,,,,,,,,,,,"[7,3,5]",,,,,,,,,,,,,,,,,,,,,,,,,,,,,,,,,,,,,1,0,1,0,1,,,,,,,,,,,,
,,60c2b5411e6268b10e6625d6,2022-09-08_12h38.06.720,CGTgamblingSpanTasks,2022.2.1,MacIntel,30.3030303,,,,,,,,,,,,,,,,,,,,,,,,,,,,,,,,,,,,,,,,,,,,,,,,,,,,,,,,,,,,,,,,,,,,,,,,,,,,,,,,,,"[7,3,5]",,,,,,,,,,,,,,,,,,,,,,,,,,,,,,,,,,,,,2,0,2,0,1,,,,,,,,,,,,
,,60c2b5411e6268b10e6625d6,2022-09-08_12h38.06.720,CGTgamblingSpanTasks,2022.2.1,MacIntel,30.3030303,,,,,,,,,,,,,,,,,,,,,,,,,,,,,,,,,,,,,,,,,,,,,,,,,,,,,,,,,,,,,,,1,,,,,,,,,,,,,,,,,,,,,,,,,,,,,,,,,,,,,2,,,,,,,,,,,,,,,,,,,,,,,,537,0.024444444,-0.42,1,0,0,cont_buttonBS,0,1,1,1,1
,,60c2b5411e6268b10e6625d6,2022-09-08_12h38.06.720,CGTgamblingSpanTasks,2022.2.1,MacIntel,30.3030303,,,,,,,,,,,,,,,,,,,,,,,,,,,,,,,,,,,,,,,,,,,,,,,,,,,,,,,,,,,,,,,,,,,,,,,,,,,,,,,,,,"[3,4,9,7]",,,,,,,,,,,,,,,,,,,,,,,,,,,,,,,,,,,,,0,0,0,0,1,,,,,,,,,,,,
,,60c2b5411e6268b10e6625d6,2022-09-08_12h38.06.720,CGTgamblingSpanTasks,2022.2.1,MacIntel,30.3030303,,,,,,,,,,,,,,,,,,,,,,,,,,,,,,,,,,,,,,,,,,,,,,,,,,,,,,,,,,,,,,,,,,,,,,,,,,,,,,,,,,"[3,4,9,7]",,,,,,,,,,,,,,,,,,,,,,,,,,,,,,,,,,,,,1,0,1,0,1,,,,,,,,,,,,
,,60c2b5411e6268b10e6625d6,2022-09-08_12h38.06.720,CGTgamblingSpanTasks,2022.2.1,MacIntel,30.3030303,,,,,,,,,,,,,,,,,,,,,,,,,,,,,,,,,,,,,,,,,,,,,,,,,,,,,,,,,,,,,,,,,,,,,,,,,,,,,,,,,,"[3,4,9,7]",,,,,,,,,,,,,,,,,,,,,,,,,,,,,,,,,,,,,2,0,2,0,1,,,,,,,,,,,,
,,60c2b5411e6268b10e6625d6,2022-09-08_12h38.06.720,CGTgamblingSpanTasks,2022.2.1,MacIntel,30.3030303,,,,,,,,,,,,,,,,,,,,,,,,,,,,,,,,,,,,,,,,,,,,,,,,,,,,,,,,,,,,,,,,,,,,,,,,,,,,,,,,,,"[3,4,9,7]",,,,,,,,,,,,,,,,,,,,,,,,,,,,,,,,,,,,,3,0,3,0,1,,,,,,,,,,,,
,,60c2b5411e6268b10e6625d6,2022-09-08_12h38.06.720,CGTgamblingSpanTasks,2022.2.1,MacIntel,30.3030303,,,,,,,,,,,,,,,,,,,,,,,,,,,,,,,,,,,,,,,,,,,,,,,,,,,,,,,,,,,,,,,1,,,,,,,,,,,,,,,,,,,,,,,,,,,,,,,,,,,,,3,,,,,,,,,,,,,,,,,,,,,,,,7943,0.04,-0.391111111,1,0,0,cont_buttonBS,0,2,2,2,1
,,60c2b5411e6268b10e6625d6,2022-09-08_12h38.06.720,CGTgamblingSpanTasks,2022.2.1,MacIntel,30.3030303,,,,,,,,,,,,,,,,,,,,,,,,,,,,,,,,,,,,,,,,,,,,,,,,,,,,,,,,,,,,,,,,,,,,,,,,,,,,,,,,,,"[9,3,4,7,8]",,,,,,,,,,,,,,,,,,,,,,,,,,,,,,,,,,,,,0,0,0,0,1,,,,,,,,,,,,
