initITIstatic,initITIdynamic,participant,date,expName,psychopyVersion,OS,frameRate,inst1.keys,inst1.rt,startPracResp.keys,startPracResp.rt,choice1.keys,choice1.rt,outcome,extraITI,trials.thisRepN,trials.thisTrialN,trials.thisN,trials.thisIndex,trials.ran,riskyGain,riskyLoss,alternative,isi,iti,loc,postPractResp.keys,postPractResp.rt,realloc,realChoice.keys,realChoice.rt,outcomes,choices,actualITI,init ITI,staticRDM.thisRepN,staticRDM.thisTrialN,staticRDM.thisN,staticRDM.thisIndex,staticRDM.ran,riskyoption1,riskyoption2,safeoption,ischecktrial,dynamicChoiceSetName,dynamicChoiceSetPath,bestRho,bestMu,trials_2.thisRepN,trials_2.thisTrialN,trials_2.thisN,trials_2.thisIndex,trials_2.ran,key_resp.keys,key_resp.rt,dynamicRDM.thisRepN,dynamicRDM.thisTrialN,dynamicRDM.thisN,dynamicRDM.thisIndex,dynamicRDM.ran,choiceP,easy0difficult1,stopBreak.keys,stopBreak.rt,movealong.keys,movealong.rt,startPractice.keys,startPractice.rt,textboxPractice.text,correct,mousePractice.x,mousePractice.y,mousePractice.leftButton,mousePractice.midButton,mousePractice.rightButton,mousePractice.clicked_name,trialFSPractice.thisRepN,trialFSPractice.thisTrialN,trialFSPractice.thisN,trialFSPractice.thisIndex,trialFSPractice.ran,digitSpanForward,digits,digitsReverse,digitSpanReverse,digitsReverseCorrAnswer,startFSreal.keys,startFSreal.rt,digitsForTrial,digitLoop.thisRepN,digitLoop.thisTrialN,digitLoop.thisN,digitLoop.thisIndex,digitLoop.ran,textbox.text,mouse_3.x,mouse_3.y,mouse_3.leftButton,mouse_3.midButton,mouse_3.rightButton,mouse_3.clicked_name,trialsFS.thisRepN,trialsFS.thisTrialN,trialsFS.thisN,trialsFS.thisIndex,trialsFS.ran,trialNumber,moveToBS.keys,moveToBS.rt,startBSprac.keys,startBSprac.rt,textboxPractice_2.text,mousePractice_2.x,mousePractice_2.y,mousePractice_2.leftButton,mousePractice_2.midButton,mousePractice_2.rightButton,mousePractice_2.clicked_name,trialsPracticeBS.thisRepN,trialsPracticeBS.thisTrialN,trialsPracticeBS.thisN,trialsPracticeBS.thisIndex,trialsPracticeBS.ran,startBSreal.keys,startBSreal.rt,digitLoopBS.thisRepN,digitLoopBS.thisTrialN,digitLoopBS.thisN,digitLoopBS.thisIndex,digitLoopBS.ran,textboxBS.text,mouseBS.x,mouseBS.y,mouseBS.leftButton,mouseBS.midButton,mouseBS.rightButton,mouseBS.clicked_name,trialsBS.thisRepN,trialsBS.thisTrialN,trialsBS.thisN,trialsBS.thisIndex,trialsBS.ran
"[1.5,1.5,1,1,1,1.5,1.5,1,1.5,1.5,1,1,1.5,1.5,1,1,1,1.5,1.5,1,1,1,1.5,1.5,1,1,1,1.5,1.5,1,1,1.5,1,1.5,1.5,1.5,1.5,1,1,1.5,1.5,1,1.5,1.5,1,1.5,1,1,1,1.5]","[1,1,1,1,1,1.5,1,1.5,1,1.5,1.5,1,1,1.5,1,1.5,1.5,1.5,1.5,1,1.5,1,1.5,1,1.5,1.5,1.5,1,1.5,1.5,1,1.5,1,1.5,1,1,1.5,1.5,1,1.5,1,1.5,1.5,1,1,1,1,1.5,1.5,1.5,1,1.5,1,1.5,1,1,1,1.5,1.5,1,1.5,1.5,1.5,1,1.5,1.5,1.5,1,1.5,1.5,1,1,1.5,1,1.5,1,1.5,1.5,1,1,1.5,1,1,1.5,1.5,1.5,1,1.5,1.5,1.5,1.5,1,1,1.5,1.5,1,1,1,1,1,1.5,1,1.5,1,1,1,1.5,1,1,1,1,1.5,1.5,1,1,1,1.5,1.5,1.5,1]",559385f5fdf99b78e49c58e9,2022-09-08_13h33.40.049,CGTgamblingSpanTasks,2022.2.1,Win32,60.08171113,,,,,,,,,,,,,,,,,,,,,,,,,,,,,,,,,,,,,,,,,,,,,,,,,,,,,,,,,,,,,,,,,,,,,,,,,,,,,,,,,,,,,,,,,,,,,,,,,,,,,,,,,,,,,,,,,,,,,,,,,,,,,,,,,,,,,,,
,,559385f5fdf99b78e49c58e9,2022-09-08_13h33.40.049,CGTgamblingSpanTasks,2022.2.1,Win32,60.08171113,return,1.756,,,,,,,,,,,,,,,,,,,,,,,,,,,,,,,,,,,,,,,,,,,,,,,,,,,,,,,,,,,,,,,,,,,,,,,,,,,,,,,,,,,,,,,,,,,,,,,,,,,,,,,,,,,,,,,,,,,,,,,,,,,,,,,,,,,,,
,,559385f5fdf99b78e49c58e9,2022-09-08_13h33.40.049,CGTgamblingSpanTasks,2022.2.1,Win32,60.08171113,,,v,0.8893,,,,,,,,,,,,,,,,,,,,,,,,,,,,,,,,,,,,,,,,,,,,,,,,,,,,,,,,,,,,,,,,,,,,,,,,,,,,,,,,,,,,,,,,,,,,,,,,,,,,,,,,,,,,,,,,,,,,,,,,,,,,,,,,,,,
,,559385f5fdf99b78e49c58e9,2022-09-08_13h33.40.049,CGTgamblingSpanTasks,2022.2.1,Win32,60.08171113,,,,,n,2.6522,9.45,1.3478,0,0,0,0,1,18.23,0,9.45,2,1,1,,,,,,,,,,,,,,,,,,,,,,,,,,,,,,,,,,,,,,,,,,,,,,,,,,,,,,,,,,,,,,,,,,,,,,,,,,,,,,,,,,,,,,,,,,,,,,,,,,,,,,,,,,,,,,,,,,,,
,,559385f5fdf99b78e49c58e9,2022-09-08_13h33.40.049,CGTgamblingSpanTasks,2022.2.1,Win32,60.08171113,,,,,n,1.4076,35.16,2.5924,0,1,1,1,1,53.27,0,35.16,1,1.5,1,,,,,,,,,,,,,,,,,,,,,,,,,,,,,,,,,,,,,,,,,,,,,,,,,,,,,,,,,,,,,,,,,,,,,,,,,,,,,,,,,,,,,,,,,,,,,,,,,,,,,,,,,,,,,,,,,,,,
,,559385f5fdf99b78e49c58e9,2022-09-08_13h33.40.049,CGTgamblingSpanTasks,2022.2.1,Win32,60.08171113,,,,,n,1.9258,0,2.0742,0,2,2,2,1,8.27,0,1.15,1,1.5,2,,,,,,,,,,,,,,,,,,,,,,,,,,,,,,,,,,,,,,,,,,,,,,,,,,,,,,,,,,,,,,,,,,,,,,,,,,,,,,,,,,,,,,,,,,,,,,,,,,,,,,,,,,,,,,,,,,,,
,,559385f5fdf99b78e49c58e9,2022-09-08_13h33.40.049,CGTgamblingSpanTasks,2022.2.1,Win32,60.08171113,,,,,n,1.3058,40.41,2.6942,0,3,3,3,1,45.88,0,40.41,3,1,1,,,,,,,,,,,,,,,,,,,,,,,,,,,,,,,,,,,,,,,,,,,,,,,,,,,,,,,,,,,,,,,,,,,,,,,,,,,,,,,,,,,,,,,,,,,,,,,,,,,,,,,,,,,,,,,,,,,,
,,559385f5fdf99b78e49c58e9,2022-09-08_13h33.40.049,CGTgamblingSpanTasks,2022.2.1,Win32,60.08171113,,,,,v,2.3171,11.96,1.6829,0,4,4,4,1,21.56,0,11.96,1,1.5,2,,,,,,,,,,,,,,,,,,,,,,,,,,,,,,,,,,,,,,,,,,,,,,,,,,,,,,,,,,,,,,,,,,,,,,,,,,,,,,,,,,,,,,,,,,,,,,,,,,,,,,,,,,,,,,,,,,,,
,,559385f5fdf99b78e49c58e9,2022-09-08_13h33.40.049,CGTgamblingSpanTasks,2022.2.1,Win32,60.08171113,,,,,,,,,,,,,,,,,,,,n,15.3662,,,,,,,,,,,,,,,,,,,,,,,,,,,,,,,,,,,,,,,,,,,,,,,,,,,,,,,,,,,,,,,,,,,,,,,,,,,,,,,,,,,,,,,,,,,,,,,,,,,,,,,,,,,,,,,,,,
,,559385f5fdf99b78e49c58e9,2022-09-08_13h33.40.049,CGTgamblingSpanTasks,2022.2.1,Win32,60.08171113,,,,,,,,2.8003,,,,,,,,,,,,,,1,n,1.1997,10.37,0,4.3003,1.5,0,0,0,37,1,15.27,0,10.37,0,,,,,,,,,,,,,,,,,,,,,,,,,,,,,,,,,,,,,,,,,,,,,,,,,,,,,,,,,,,,,,,,,,,,,,,,,,,,,,,,,,,,,,,,,,,,,,,,,,
,,559385f5fdf99b78e49c58e9,2022-09-08_13h33.40.049,CGTgamblingSpanTasks,2022.2.1,Win32,60.08171113,,,,,,,,2.4013,,,,,,,,,,,,,,2,v,1.5987,7.55,0,3.9013,1.5,0,1,1,45,1,0,0,7.55,1,,,,,,,,,,,,,,,,,,,,,,,,,,,,,,,,,,,,,,,,,,,,,,,,,,,,,,,,,,,,,,,,,,,,,,,,,,,,,,,,,,,,,,,,,,,,,,,,,,
,,559385f5fdf99b78e49c58e9,2022-09-08_13h33.40.049,CGTgamblingSpanTasks,2022.2.1,Win32,60.08171113,,,,,,,,2.4341,,,,,,,,,,,,,,1,v,1.5659,16.11,1,3.4341,1,0,2,2,43,1,16.11,6.99,6.99,1,,,,,,,,,,,,,,,,,,,,,,,,,,,,,,,,,,,,,,,,,,,,,,,,,,,,,,,,,,,,,,,,,,,,,,,,,,,,,,,,,,,,,,,,,,,,,,,,,,
,,559385f5fdf99b78e49c58e9,2022-09-08_13h33.40.049,CGTgamblingSpanTasks,2022.2.1,Win32,60.08171113,,,,,,,,2.6239,,,,,,,,,,,,,,2,n,1.3761,13.94,1,3.6239,1,0,3,3,8,1,13.94,0,5.03,0,,,,,,,,,,,,,,,,,,,,,,,,,,,,,,,,,,,,,,,,,,,,,,,,,,,,,,,,,,,,,,,,,,,,,,,,,,,,,,,,,,,,,,,,,,,,,,,,,,
,,559385f5fdf99b78e49c58e9,2022-09-08_13h33.40.049,CGTgamblingSpanTasks,2022.2.1,Win32,60.08171113,,,,,,,,2.9468,,,,,,,,,,,,,,2,n,1.0532,20.03,1,3.9468,1,0,4,4,0,1,20.03,0,1.99,0,,,,,,,,,,,,,,,,,,,,,,,,,,,,,,,,,,,,,,,,,,,,,,,,,,,,,,,,,,,,,,,,,,,,,,,,,,,,,,,,,,,,,,,,,,,,,,,,,,
,,559385f5fdf99b78e49c58e9,2022-09-08_13h33.40.049,CGTgamblingSpanTasks,2022.2.1,Win32,60.08171113,,,,,,,,2.825,,,,,,,,,,,,,,2,v,1.175,3.13,0,4.325,1.5,0,5,5,47,1,0,0,3.13,1,,,,,,,,,,,,,,,,,,,,,,,,,,,,,,,,,,,,,,,,,,,,,,,,,,,,,,,,,,,,,,,,,,,,,,,,,,,,,,,,,,,,,,,,,,,,,,,,,,
,,559385f5fdf99b78e49c58e9,2022-09-08_13h33.40.049,CGTgamblingSpanTasks,2022.2.1,Win32,60.08171113,,,,,,,,2.1977,,,,,,,,,,,,,,1,v,1.8023,12.08,1,3.6977,1.5,0,6,6,18,1,12.08,0,5.96,0,,,,,,,,,,,,,,,,,,,,,,,,,,,,,,,,,,,,,,,,,,,,,,,,,,,,,,,,,,,,,,,,,,,,,,,,,,,,,,,,,,,,,,,,,,,,,,,,,,
,,559385f5fdf99b78e49c58e9,2022-09-08_13h33.40.049,CGTgamblingSpanTasks,2022.2.1,Win32,60.08171113,,,,,,,,2.5976,,,,,,,,,,,,,,2,n,1.4024,0,1,3.5976,1,0,7,7,15,1,18.77,0,8.61,0,,,,,,,,,,,,,,,,,,,,,,,,,,,,,,,,,,,,,,,,,,,,,,,,,,,,,,,,,,,,,,,,,,,,,,,,,,,,,,,,,,,,,,,,,,,,,,,,,,
,,559385f5fdf99b78e49c58e9,2022-09-08_13h33.40.049,CGTgamblingSpanTasks,2022.2.1,Win32,60.08171113,,,,,,,,2.4631,,,,,,,,,,,,,,2,v,1.5369,9.36,0,3.9631,1.5,0,8,8,23,1,17.28,0,9.36,0,,,,,,,,,,,,,,,,,,,,,,,,,,,,,,,,,,,,,,,,,,,,,,,,,,,,,,,,,,,,,,,,,,,,,,,,,,,,,,,,,,,,,,,,,,,,,,,,,,
,,559385f5fdf99b78e49c58e9,2022-09-08_13h33.40.049,CGTgamblingSpanTasks,2022.2.1,Win32,60.08171113,,,,,,,,2.343,,,,,,,,,,,,,,2,v,1.657,10.68,0,3.843,1.5,0,9,9,48,1,10.68,0,10.68,1,,,,,,,,,,,,,,,,,,,,,,,,,,,,,,,,,,,,,,,,,,,,,,,,,,,,,,,,,,,,,,,,,,,,,,,,,,,,,,,,,,,,,,,,,,,,,,,,,,
,,559385f5fdf99b78e49c58e9,2022-09-08_13h33.40.049,CGTgamblingSpanTasks,2022.2.1,Win32,60.08171113,,,,,,,,2.5903,,,,,,,,,,,,,,2,n,1.4097,19.86,1,3.5903,1,0,10,10,42,1,19.86,0,0,1,,,,,,,,,,,,,,,,,,,,,,,,,,,,,,,,,,,,,,,,,,,,,,,,,,,,,,,,,,,,,,,,,,,,,,,,,,,,,,,,,,,,,,,,,,,,,,,,,,
,,559385f5fdf99b78e49c58e9,2022-09-08_13h33.40.049,CGTgamblingSpanTasks,2022.2.1,Win32,60.08171113,,,,,,,,2.4458,,,,,,,,,,,,,,2,n,1.5542,0,1,3.4458,1,0,11,11,11,1,19.86,0,8.07,0,,,,,,,,,,,,,,,,,,,,,,,,,,,,,,,,,,,,,,,,,,,,,,,,,,,,,,,,,,,,,,,,,,,,,,,,,,,,,,,,,,,,,,,,,,,,,,,,,,
,,559385f5fdf99b78e49c58e9,2022-09-08_13h33.40.049,CGTgamblingSpanTasks,2022.2.1,Win32,60.08171113,,,,,,,,2.2283,,,,,,,,,,,,,,1,n,1.7717,6.94,0,3.7283,1.5,0,12,12,38,1,10.12,0,6.94,0,,,,,,,,,,,,,,,,,,,,,,,,,,,,,,,,,,,,,,,,,,,,,,,,,,,,,,,,,,,,,,,,,,,,,,,,,,,,,,,,,,,,,,,,,,,,,,,,,,
,,559385f5fdf99b78e49c58e9,2022-09-08_13h33.40.049,CGTgamblingSpanTasks,2022.2.1,Win32,60.08171113,,,,,,,,1.9097,,,,,,,,,,,,,,2,v,2.0903,9.2,0,3.4097,1.5,0,13,13,21,1,17.59,0,9.2,0,,,,,,,,,,,,,,,,,,,,,,,,,,,,,,,,,,,,,,,,,,,,,,,,,,,,,,,,,,,,,,,,,,,,,,,,,,,,,,,,,,,,,,,,,,,,,,,,,,
,,559385f5fdf99b78e49c58e9,2022-09-08_13h33.40.049,CGTgamblingSpanTasks,2022.2.1,Win32,60.08171113,,,,,,,,2.7181,,,,,,,,,,,,,,1,v,1.2819,10.35,1,3.7181,1,0,14,14,40,1,10.35,0,0,1,,,,,,,,,,,,,,,,,,,,,,,,,,,,,,,,,,,,,,,,,,,,,,,,,,,,,,,,,,,,,,,,,,,,,,,,,,,,,,,,,,,,,,,,,,,,,,,,,,
,,559385f5fdf99b78e49c58e9,2022-09-08_13h33.40.049,CGTgamblingSpanTasks,2022.2.1,Win32,60.08171113,,,,,,,,2.2808,,,,,,,,,,,,,,1,n,1.7192,9.5,0,3.2808,1,0,15,15,25,1,17,0,9.5,0,,,,,,,,,,,,,,,,,,,,,,,,,,,,,,,,,,,,,,,,,,,,,,,,,,,,,,,,,,,,,,,,,,,,,,,,,,,,,,,,,,,,,,,,,,,,,,,,,,
,,559385f5fdf99b78e49c58e9,2022-09-08_13h33.40.049,CGTgamblingSpanTasks,2022.2.1,Win32,60.08171113,,,,,,,,2.4465,,,,,,,,,,,,,,2,v,1.5535,6.81,0,3.4465,1,0,16,16,34,1,10.39,0,6.81,0,,,,,,,,,,,,,,,,,,,,,,,,,,,,,,,,,,,,,,,,,,,,,,,,,,,,,,,,,,,,,,,,,,,,,,,,,,,,,,,,,,,,,,,,,,,,,,,,,,
,,559385f5fdf99b78e49c58e9,2022-09-08_13h33.40.049,CGTgamblingSpanTasks,2022.2.1,Win32,60.08171113,,,,,,,,2.5891,,,,,,,,,,,,,,2,v,1.4109,10.02,0,4.0891,1.5,0,17,17,31,1,15.96,0,10.02,0,,,,,,,,,,,,,,,,,,,,,,,,,,,,,,,,,,,,,,,,,,,,,,,,,,,,,,,,,,,,,,,,,,,,,,,,,,,,,,,,,,,,,,,,,,,,,,,,,,
,,559385f5fdf99b78e49c58e9,2022-09-08_13h33.40.049,CGTgamblingSpanTasks,2022.2.1,Win32,60.08171113,,,,,,,,2.5051,,,,,,,,,,,,,,1,n,1.4949,9.92,0,4.0051,1.5,0,18,18,49,1,6.79,0,9.92,1,,,,,,,,,,,,,,,,,,,,,,,,,,,,,,,,,,,,,,,,,,,,,,,,,,,,,,,,,,,,,,,,,,,,,,,,,,,,,,,,,,,,,,,,,,,,,,,,,,
,,559385f5fdf99b78e49c58e9,2022-09-08_13h33.40.049,CGTgamblingSpanTasks,2022.2.1,Win32,60.08171113,,,,,,,,2.1643,,,,,,,,,,,,,,2,n,1.8357,0,1,3.1643,1,0,19,19,16,1,12.36,0,5.82,0,,,,,,,,,,,,,,,,,,,,,,,,,,,,,,,,,,,,,,,,,,,,,,,,,,,,,,,,,,,,,,,,,,,,,,,,,,,,,,,,,,,,,,,,,,,,,,,,,,
,,559385f5fdf99b78e49c58e9,2022-09-08_13h33.40.049,CGTgamblingSpanTasks,2022.2.1,Win32,60.08171113,,,,,,,,2.5061,,,,,,,,,,,,,,1,n,1.4939,10.25,0,3.5061,1,0,20,20,46,1,0,0,10.25,1,,,,,,,,,,,,,,,,,,,,,,,,,,,,,,,,,,,,,,,,,,,,,,,,,,,,,,,,,,,,,,,,,,,,,,,,,,,,,,,,,,,,,,,,,,,,,,,,,,
,,559385f5fdf99b78e49c58e9,2022-09-08_13h33.40.049,CGTgamblingSpanTasks,2022.2.1,Win32,60.08171113,,,,,,,,2.5517,,,,,,,,,,,,,,2,v,1.4483,8.36,0,3.5517,1,0,21,21,13,1,19.28,0,8.36,0,,,,,,,,,,,,,,,,,,,,,,,,,,,,,,,,,,,,,,,,,,,,,,,,,,,,,,,,,,,,,,,,,,,,,,,,,,,,,,,,,,,,,,,,,,,,,,,,,,
,,559385f5fdf99b78e49c58e9,2022-09-08_13h33.40.049,CGTgamblingSpanTasks,2022.2.1,Win32,60.08171113,,,,,,,,2.7769,,,,,,,,,,,,,,1,v,1.2231,0,1,4.2769,1.5,0,22,22,5,1,22.97,0,6.51,0,,,,,,,,,,,,,,,,,,,,,,,,,,,,,,,,,,,,,,,,,,,,,,,,,,,,,,,,,,,,,,,,,,,,,,,,,,,,,,,,,,,,,,,,,,,,,,,,,,
,,559385f5fdf99b78e49c58e9,2022-09-08_13h33.40.049,CGTgamblingSpanTasks,2022.2.1,Win32,60.08171113,,,,,,,,1.0974,,,,,,,,,,,,,,1,n,2.9026,8.84,0,2.5974,1.5,0,23,23,17,1,18.33,0,8.84,0,,,,,,,,,,,,,,,,,,,,,,,,,,,,,,,,,,,,,,,,,,,,,,,,,,,,,,,,,,,,,,,,,,,,,,,,,,,,,,,,,,,,,,,,,,,,,,,,,,
,,559385f5fdf99b78e49c58e9,2022-09-08_13h33.40.049,CGTgamblingSpanTasks,2022.2.1,Win32,60.08171113,,,,,,,,2.7237,,,,,,,,,,,,,,1,n,1.2763,6.53,0,3.7237,1,0,24,24,28,1,10.95,0,6.53,0,,,,,,,,,,,,,,,,,,,,,,,,,,,,,,,,,,,,,,,,,,,,,,,,,,,,,,,,,,,,,,,,,,,,,,,,,,,,,,,,,,,,,,,,,,,,,,,,,,
,,559385f5fdf99b78e49c58e9,2022-09-08_13h33.40.049,CGTgamblingSpanTasks,2022.2.1,Win32,60.08171113,,,,,,,,2.5523,,,,,,,,,,,,,,2,v,1.4477,6.4,0,3.5523,1,0,25,25,26,1,11.2,0,6.4,0,,,,,,,,,,,,,,,,,,,,,,,,,,,,,,,,,,,,,,,,,,,,,,,,,,,,,,,,,,,,,,,,,,,,,,,,,,,,,,,,,,,,,,,,,,,,,,,,,,
,,559385f5fdf99b78e49c58e9,2022-09-08_13h33.40.049,CGTgamblingSpanTasks,2022.2.1,Win32,60.08171113,,,,,,,,2.7859,,,,,,,,,,,,,,2,v,1.2141,9.03,0,3.7859,1,0,26,26,19,1,17.94,0,9.03,0,,,,,,,,,,,,,,,,,,,,,,,,,,,,,,,,,,,,,,,,,,,,,,,,,,,,,,,,,,,,,,,,,,,,,,,,,,,,,,,,,,,,,,,,,,,,,,,,,,
,,559385f5fdf99b78e49c58e9,2022-09-08_13h33.40.049,CGTgamblingSpanTasks,2022.2.1,Win32,60.08171113,,,,,,,,2.2981,,,,,,,,,,,,,,2,n,1.7019,0,1,3.7981,1.5,0,27,27,12,1,13.04,0,5.48,0,,,,,,,,,,,,,,,,,,,,,,,,,,,,,,,,,,,,,,,,,,,,,,,,,,,,,,,,,,,,,,,,,,,,,,,,,,,,,,,,,,,,,,,,,,,,,,,,,,
,,559385f5fdf99b78e49c58e9,2022-09-08_13h33.40.049,CGTgamblingSpanTasks,2022.2.1,Win32,60.08171113,,,,,,,,0.7208,,,,,,,,,,,,,,1,n,3.2792,10.27,0,2.2208,1.5,0,28,28,35,1,15.47,0,10.27,0,,,,,,,,,,,,,,,,,,,,,,,,,,,,,,,,,,,,,,,,,,,,,,,,,,,,,,,,,,,,,,,,,,,,,,,,,,,,,,,,,,,,,,,,,,,,,,,,,,
,,559385f5fdf99b78e49c58e9,2022-09-08_13h33.40.049,CGTgamblingSpanTasks,2022.2.1,Win32,60.08171113,,,,,,,,1.3613,,,,,,,,,,,,,,1,n,2.6387,9.7,0,2.3613,1,0,29,29,27,1,16.6,0,9.7,0,,,,,,,,,,,,,,,,,,,,,,,,,,,,,,,,,,,,,,,,,,,,,,,,,,,,,,,,,,,,,,,,,,,,,,,,,,,,,,,,,,,,,,,,,,,,,,,,,,
,,559385f5fdf99b78e49c58e9,2022-09-08_13h33.40.049,CGTgamblingSpanTasks,2022.2.1,Win32,60.08171113,,,,,,,,2.3499,,,,,,,,,,,,,,2,v,1.6501,10.46,0,3.3499,1,0,30,30,39,1,15.09,0,10.46,0,,,,,,,,,,,,,,,,,,,,,,,,,,,,,,,,,,,,,,,,,,,,,,,,,,,,,,,,,,,,,,,,,,,,,,,,,,,,,,,,,,,,,,,,,,,,,,,,,,
,,559385f5fdf99b78e49c58e9,2022-09-08_13h33.40.049,CGTgamblingSpanTasks,2022.2.1,Win32,60.08171113,,,,,,,,2.3964,,,,,,,,,,,,,,1,v,1.6036,0,1,3.8964,1.5,0,31,31,3,1,25.2,0,5.4,0,,,,,,,,,,,,,,,,,,,,,,,,,,,,,,,,,,,,,,,,,,,,,,,,,,,,,,,,,,,,,,,,,,,,,,,,,,,,,,,,,,,,,,,,,,,,,,,,,,
,,559385f5fdf99b78e49c58e9,2022-09-08_13h33.40.049,CGTgamblingSpanTasks,2022.2.1,Win32,60.08171113,,,,,,,,2.7582,,,,,,,,,,,,,,2,n,1.2418,0,1,3.7582,1,0,32,32,41,1,14.26,0,0,1,,,,,,,,,,,,,,,,,,,,,,,,,,,,,,,,,,,,,,,,,,,,,,,,,,,,,,,,,,,,,,,,,,,,,,,,,,,,,,,,,,,,,,,,,,,,,,,,,,
,,559385f5fdf99b78e49c58e9,2022-09-08_13h33.40.049,CGTgamblingSpanTasks,2022.2.1,Win32,60.08171113,,,,,,,,1.6622,,,,,,,,,,,,,,1,n,2.3378,6.29,0,3.1622,1.5,0,33,33,24,1,11.43,0,6.29,0,,,,,,,,,,,,,,,,,,,,,,,,,,,,,,,,,,,,,,,,,,,,,,,,,,,,,,,,,,,,,,,,,,,,,,,,,,,,,,,,,,,,,,,,,,,,,,,,,,
,,559385f5fdf99b78e49c58e9,2022-09-08_13h33.40.049,CGTgamblingSpanTasks,2022.2.1,Win32,60.08171113,,,,,,,,2.6638,,,,,,,,,,,,,,2,v,1.3362,6.08,0,4.1638,1.5,0,34,34,20,1,11.84,0,6.08,0,,,,,,,,,,,,,,,,,,,,,,,,,,,,,,,,,,,,,,,,,,,,,,,,,,,,,,,,,,,,,,,,,,,,,,,,,,,,,,,,,,,,,,,,,,,,,,,,,,
,,559385f5fdf99b78e49c58e9,2022-09-08_13h33.40.049,CGTgamblingSpanTasks,2022.2.1,Win32,60.08171113,,,,,,,,1.8177,,,,,,,,,,,,,,1,v,2.1823,0,1,3.3177,1.5,0,35,35,9,1,20.53,0,7.73,0,,,,,,,,,,,,,,,,,,,,,,,,,,,,,,,,,,,,,,,,,,,,,,,,,,,,,,,,,,,,,,,,,,,,,,,,,,,,,,,,,,,,,,,,,,,,,,,,,,
,,559385f5fdf99b78e49c58e9,2022-09-08_13h33.40.049,CGTgamblingSpanTasks,2022.2.1,Win32,60.08171113,,,,,,,,2.8033,,,,,,,,,,,,,,2,n,1.1967,13.1,1,4.3033,1.5,0,36,36,44,1,13.1,7.73,4.68,1,,,,,,,,,,,,,,,,,,,,,,,,,,,,,,,,,,,,,,,,,,,,,,,,,,,,,,,,,,,,,,,,,,,,,,,,,,,,,,,,,,,,,,,,,,,,,,,,,,
,,559385f5fdf99b78e49c58e9,2022-09-08_13h33.40.049,CGTgamblingSpanTasks,2022.2.1,Win32,60.08171113,,,,,,,,2.6126,,,,,,,,,,,,,,1,n,1.3874,10.15,0,3.6126,1,0,37,37,33,1,15.7,0,10.15,0,,,,,,,,,,,,,,,,,,,,,,,,,,,,,,,,,,,,,,,,,,,,,,,,,,,,,,,,,,,,,,,,,,,,,,,,,,,,,,,,,,,,,,,,,,,,,,,,,,
,,559385f5fdf99b78e49c58e9,2022-09-08_13h33.40.049,CGTgamblingSpanTasks,2022.2.1,Win32,60.08171113,,,,,,,,2.8333,,,,,,,,,,,,,,1,v,1.1667,0,1,3.8333,1,0,38,38,2,1,17.73,0,3.13,0,,,,,,,,,,,,,,,,,,,,,,,,,,,,,,,,,,,,,,,,,,,,,,,,,,,,,,,,,,,,,,,,,,,,,,,,,,,,,,,,,,,,,,,,,,,,,,,,,,
,,559385f5fdf99b78e49c58e9,2022-09-08_13h33.40.049,CGTgamblingSpanTasks,2022.2.1,Win32,60.08171113,,,,,,,,2.2204,,,,,,,,,,,,,,2,n,1.7796,0,1,3.7204,1.5,0,39,39,14,1,12.68,0,5.66,0,,,,,,,,,,,,,,,,,,,,,,,,,,,,,,,,,,,,,,,,,,,,,,,,,,,,,,,,,,,,,,,,,,,,,,,,,,,,,,,,,,,,,,,,,,,,,,,,,,
,,559385f5fdf99b78e49c58e9,2022-09-08_13h33.40.049,CGTgamblingSpanTasks,2022.2.1,Win32,60.08171113,,,,,,,,2.3535,,,,,,,,,,,,,,2,v,1.6465,6.88,0,3.8535,1.5,0,40,40,36,1,10.24,0,6.88,0,,,,,,,,,,,,,,,,,,,,,,,,,,,,,,,,,,,,,,,,,,,,,,,,,,,,,,,,,,,,,,,,,,,,,,,,,,,,,,,,,,,,,,,,,,,,,,,,,,
,,559385f5fdf99b78e49c58e9,2022-09-08_13h33.40.049,CGTgamblingSpanTasks,2022.2.1,Win32,60.08171113,,,,,,,,2.5183,,,,,,,,,,,,,,1,v,1.4817,0,1,3.5183,1,0,41,41,6,1,14.72,0,4.64,0,,,,,,,,,,,,,,,,,,,,,,,,,,,,,,,,,,,,,,,,,,,,,,,,,,,,,,,,,,,,,,,,,,,,,,,,,,,,,,,,,,,,,,,,,,,,,,,,,,
,,559385f5fdf99b78e49c58e9,2022-09-08_13h33.40.049,CGTgamblingSpanTasks,2022.2.1,Win32,60.08171113,,,,,,,,2.8176,,,,,,,,,,,,,,1,n,1.1824,6.63,0,4.3176,1.5,0,42,42,30,1,10.73,0,6.63,0,,,,,,,,,,,,,,,,,,,,,,,,,,,,,,,,,,,,,,,,,,,,,,,,,,,,,,,,,,,,,,,,,,,,,,,,,,,,,,,,,,,,,,,,,,,,,,,,,,
,,559385f5fdf99b78e49c58e9,2022-09-08_13h33.40.049,CGTgamblingSpanTasks,2022.2.1,Win32,60.08171113,,,,,,,,2.3556,,,,,,,,,,,,,,1,v,1.6444,0,1,3.8556,1.5,0,43,43,1,1,28.21,0,3.89,0,,,,,,,,,,,,,,,,,,,,,,,,,,,,,,,,,,,,,,,,,,,,,,,,,,,,,,,,,,,,,,,,,,,,,,,,,,,,,,,,,,,,,,,,,,,,,,,,,,
,,559385f5fdf99b78e49c58e9,2022-09-08_13h33.40.049,CGTgamblingSpanTasks,2022.2.1,Win32,60.08171113,,,,,,,,2.3143,,,,,,,,,,,,,,1,v,1.6857,16,1,3.3143,1,0,44,44,4,1,16,0,4,0,,,,,,,,,,,,,,,,,,,,,,,,,,,,,,,,,,,,,,,,,,,,,,,,,,,,,,,,,,,,,,,,,,,,,,,,,,,,,,,,,,,,,,,,,,,,,,,,,,
,,559385f5fdf99b78e49c58e9,2022-09-08_13h33.40.049,CGTgamblingSpanTasks,2022.2.1,Win32,60.08171113,,,,,,,,2.268,,,,,,,,,,,,,,2,v,1.732,6.73,0,3.768,1.5,0,45,45,32,1,10.55,0,6.73,0,,,,,,,,,,,,,,,,,,,,,,,,,,,,,,,,,,,,,,,,,,,,,,,,,,,,,,,,,,,,,,,,,,,,,,,,,,,,,,,,,,,,,,,,,,,,,,,,,,
,,559385f5fdf99b78e49c58e9,2022-09-08_13h33.40.049,CGTgamblingSpanTasks,2022.2.1,Win32,60.08171113,,,,,,,,2.2307,,,,,,,,,,,,,,2,v,1.7693,9.87,0,3.2307,1,0,46,46,29,1,16.26,0,9.87,0,,,,,,,,,,,,,,,,,,,,,,,,,,,,,,,,,,,,,,,,,,,,,,,,,,,,,,,,,,,,,,,,,,,,,,,,,,,,,,,,,,,,,,,,,,,,,,,,,,
,,559385f5fdf99b78e49c58e9,2022-09-08_13h33.40.049,CGTgamblingSpanTasks,2022.2.1,Win32,60.08171113,,,,,,,,3.0846,,,,,,,,,,,,,,2,n,0.9154,13.45,1,4.0846,1,0,47,47,10,1,13.45,0,5.27,0,,,,,,,,,,,,,,,,,,,,,,,,,,,,,,,,,,,,,,,,,,,,,,,,,,,,,,,,,,,,,,,,,,,,,,,,,,,,,,,,,,,,,,,,,,,,,,,,,,
,,559385f5fdf99b78e49c58e9,2022-09-08_13h33.40.049,CGTgamblingSpanTasks,2022.2.1,Win32,60.08171113,,,,,,,,2.9087,,,,,,,,,,,,,,2,n,1.0913,21.32,1,3.9087,1,0,48,48,7,1,21.32,0,7.34,0,,,,,,,,,,,,,,,,,,,,,,,,,,,,,,,,,,,,,,,,,,,,,,,,,,,,,,,,,,,,,,,,,,,,,,,,,,,,,,,,,,,,,,,,,,,,,,,,,,
,,559385f5fdf99b78e49c58e9,2022-09-08_13h33.40.049,CGTgamblingSpanTasks,2022.2.1,Win32,60.08171113,,,,,,,,2.0649,,,,,,,,,,,,,,2,v,1.9351,6.19,0,3.5649,1.5,0,49,49,22,1,11.62,0,6.19,0,,,,,,,,,,,,,,,,,,,,,,,,,,,,,,,,,,,,,,,,,,,,,,,,,,,,,,,,,,,,,,,,,,,,,,,,,,,,,,,,,,,,,,,,,,,,,,,,,,
,,559385f5fdf99b78e49c58e9,2022-09-08_13h33.40.049,CGTgamblingSpanTasks,2022.2.1,Win32,60.08171113,,,,,,,,,,,,,,,,,,,,,,,,,,,,,,,,,,,,,,bespoke_choiceset_rhoInd065_muInd201.csv,bespoke_choicesets/bespoke_choiceset_rhoInd065_muInd201.csv,65,201,0,0,0,0,1,,,,,,,,,,,,,,,,,,,,,,,,,,,,,,,,,,,,,,,,,,,,,,,,,,,,,,,,,,,,,,,,,,,,,,,,,,,,,,,,,,,,,,,,,
,,559385f5fdf99b78e49c58e9,2022-09-08_13h33.40.049,CGTgamblingSpanTasks,2022.2.1,Win32,60.08171113,,,,,,,,,,,,,,,,,,,,,,,,,,,,,,,,,,,,,,,,,,,,,,,,,,,,,,,,,,,,,,,,,,,,,,,,,,,,,,,,,,,,,,,,,,,,,,,,,,,,,,,,,,,,,,,,,,,,,,,,,,,,,,,,,,,,,,,
,,559385f5fdf99b78e49c58e9,2022-09-08_13h33.40.049,CGTgamblingSpanTasks,2022.2.1,Win32,60.08171113,,,,,,,,,,,,,,,,,,,,,,,,,,,,,,,,,,,,,,,,,,,,,,,n,2.8681,,,,,,,,,,,,,,,,,,,,,,,,,,,,,,,,,,,,,,,,,,,,,,,,,,,,,,,,,,,,,,,,,,,,,,,,,,,,,,,,,,,,,,,
,,559385f5fdf99b78e49c58e9,2022-09-08_13h33.40.049,CGTgamblingSpanTasks,2022.2.1,Win32,60.08171113,,,,,,,,2.3838,,,,,,,,,,,,,,1,v,1.6162,8.217594828,1,3.3838,1,,,,,,8.217594828,0,0.951019374,,,,,,,,,,,,,0,0,0,87,1,0.458722936,1,,,,,,,,,,,,,,,,,,,,,,,,,,,,,,,,,,,,,,,,,,,,,,,,,,,,,,,,,,,,,,,,,,,,,,,,,,,,,,,,
,,559385f5fdf99b78e49c58e9,2022-09-08_13h33.40.049,CGTgamblingSpanTasks,2022.2.1,Win32,60.08171113,,,,,,,,2.7745,,,,,,,,,,,,,,2,v,1.2255,7.850775577,0,3.7745,1,,,,,,4.622707531,0,7.850775577,,,,,,,,,,,,,0,1,1,6,1,0.017737407,0,,,,,,,,,,,,,,,,,,,,,,,,,,,,,,,,,,,,,,,,,,,,,,,,,,,,,,,,,,,,,,,,,,,,,,,,,,,,,,,,
,,559385f5fdf99b78e49c58e9,2022-09-08_13h33.40.049,CGTgamblingSpanTasks,2022.2.1,Win32,60.08171113,,,,,,,,2.5477,,,,,,,,,,,,,,2,v,1.4523,5.683635938,0,3.5477,1,,,,,,4.941039335,0,5.683635938,,,,,,,,,,,,,0,2,2,9,1,0.025481984,0,,,,,,,,,,,,,,,,,,,,,,,,,,,,,,,,,,,,,,,,,,,,,,,,,,,,,,,,,,,,,,,,,,,,,,,,,,,,,,,,
,,559385f5fdf99b78e49c58e9,2022-09-08_13h33.40.049,CGTgamblingSpanTasks,2022.2.1,Win32,60.08171113,,,,,,,,3.1153,,,,,,,,,,,,,,2,n,0.8847,0,1,4.1153,1,,,,,,28.9381277,0,2.663622024,,,,,,,,,,,,,0,3,3,103,1,0.519453367,1,,,,,,,,,,,,,,,,,,,,,,,,,,,,,,,,,,,,,,,,,,,,,,,,,,,,,,,,,,,,,,,,,,,,,,,,,,,,,,,,
,,559385f5fdf99b78e49c58e9,2022-09-08_13h33.40.049,CGTgamblingSpanTasks,2022.2.1,Win32,60.08171113,,,,,,,,2.996,,,,,,,,,,,,,,1,v,1.004,0,1,3.996,1,,,,,,23.0613391,0,2.387726776,,,,,,,,,,,,,0,4,4,69,1,0.488727763,1,,,,,,,,,,,,,,,,,,,,,,,,,,,,,,,,,,,,,,,,,,,,,,,,,,,,,,,,,,,,,,,,,,,,,,,,,,,,,,,,
,,559385f5fdf99b78e49c58e9,2022-09-08_13h33.40.049,CGTgamblingSpanTasks,2022.2.1,Win32,60.08171113,,,,,,,,3.0158,,,,,,,,,,,,,,1,v,0.9842,0,1,4.5158,1.5,,,,,,29.77342428,0,2.838865588,,,,,,,,,,,,,0,5,5,57,1,0.510363415,1,,,,,,,,,,,,,,,,,,,,,,,,,,,,,,,,,,,,,,,,,,,,,,,,,,,,,,,,,,,,,,,,,,,,,,,,,,,,,,,,
,,559385f5fdf99b78e49c58e9,2022-09-08_13h33.40.049,CGTgamblingSpanTasks,2022.2.1,Win32,60.08171113,,,,,,,,3.065,,,,,,,,,,,,,,1,v,0.935,0,1,4.065,1,,,,,,18.51345298,0,1.932334278,,,,,,,,,,,,,0,6,6,31,1,0.48658696,1,,,,,,,,,,,,,,,,,,,,,,,,,,,,,,,,,,,,,,,,,,,,,,,,,,,,,,,,,,,,,,,,,,,,,,,,,,,,,,,,
,,559385f5fdf99b78e49c58e9,2022-09-08_13h33.40.049,CGTgamblingSpanTasks,2022.2.1,Win32,60.08171113,,,,,,,,2.9441,,,,,,,,,,,,,,1,v,1.0559,0,1,4.4441,1.5,,,,,,27.76752685,0,0.083968035,,,,,,,,,,,,,0,7,7,13,1,0.906513967,0,,,,,,,,,,,,,,,,,,,,,,,,,,,,,,,,,,,,,,,,,,,,,,,,,,,,,,,,,,,,,,,,,,,,,,,,,,,,,,,,
,,559385f5fdf99b78e49c58e9,2022-09-08_13h33.40.049,CGTgamblingSpanTasks,2022.2.1,Win32,60.08171113,,,,,,,,2.9663,,,,,,,,,,,,,,2,n,1.0337,0,1,3.9663,1,,,,,,17.30137174,0,1.716380842,,,,,,,,,,,,,0,8,8,20,1,0.500020285,1,,,,,,,,,,,,,,,,,,,,,,,,,,,,,,,,,,,,,,,,,,,,,,,,,,,,,,,,,,,,,,,,,,,,,,,,,,,,,,,,
,,559385f5fdf99b78e49c58e9,2022-09-08_13h33.40.049,CGTgamblingSpanTasks,2022.2.1,Win32,60.08171113,,,,,,,,2.1932,,,,,,,,,,,,,,1,n,1.8068,10.41201161,0,3.6932,1.5,,,,,,6.307062696,0,10.41201161,,,,,,,,,,,,,0,9,9,23,1,0.018187109,0,,,,,,,,,,,,,,,,,,,,,,,,,,,,,,,,,,,,,,,,,,,,,,,,,,,,,,,,,,,,,,,,,,,,,,,,,,,,,,,,
,,559385f5fdf99b78e49c58e9,2022-09-08_13h33.40.049,CGTgamblingSpanTasks,2022.2.1,Win32,60.08171113,,,,,,,,2.8694,,,,,,,,,,,,,,1,v,1.1306,21.17800335,1,4.3694,1.5,,,,,,21.17800335,0,0.059830985,,,,,,,,,,,,,0,10,10,67,1,0.908594974,0,,,,,,,,,,,,,,,,,,,,,,,,,,,,,,,,,,,,,,,,,,,,,,,,,,,,,,,,,,,,,,,,,,,,,,,,,,,,,,,,
,,559385f5fdf99b78e49c58e9,2022-09-08_13h33.40.049,CGTgamblingSpanTasks,2022.2.1,Win32,60.08171113,,,,,,,,2.91,,,,,,,,,,,,,,1,v,1.09,0,1,3.91,1,,,,,,22.25959835,0,0.065383587,,,,,,,,,,,,,0,11,11,97,1,0.907413875,0,,,,,,,,,,,,,,,,,,,,,,,,,,,,,,,,,,,,,,,,,,,,,,,,,,,,,,,,,,,,,,,,,,,,,,,,,,,,,,,,
,,559385f5fdf99b78e49c58e9,2022-09-08_13h33.40.049,CGTgamblingSpanTasks,2022.2.1,Win32,60.08171113,,,,,,,,3.0195,,,,,,,,,,,,,,1,v,0.9805,22.86604061,1,4.0195,1,,,,,,22.86604061,0,2.293289792,,,,,,,,,,,,,0,12,12,51,1,0.49715382,1,,,,,,,,,,,,,,,,,,,,,,,,,,,,,,,,,,,,,,,,,,,,,,,,,,,,,,,,,,,,,,,,,,,,,,,,,,,,,,,,
,,559385f5fdf99b78e49c58e9,2022-09-08_13h33.40.049,CGTgamblingSpanTasks,2022.2.1,Win32,60.08171113,,,,,,,,3.0535,,,,,,,,,,,,,,1,v,0.9465,28.18900855,1,4.5535,1.5,,,,,,28.18900855,0,0.05384276,,,,,,,,,,,,,0,13,13,55,1,0.919081308,0,,,,,,,,,,,,,,,,,,,,,,,,,,,,,,,,,,,,,,,,,,,,,,,,,,,,,,,,,,,,,,,,,,,,,,,,,,,,,,,,
,,559385f5fdf99b78e49c58e9,2022-09-08_13h33.40.049,CGTgamblingSpanTasks,2022.2.1,Win32,60.08171113,,,,,,,,2.9435,,,,,,,,,,,,,,2,n,1.0565,24.66627941,1,3.9435,1,,,,,,24.66627941,0,2.765426402,,,,,,,,,,,,,0,14,14,24,1,0.467360588,1,,,,,,,,,,,,,,,,,,,,,,,,,,,,,,,,,,,,,,,,,,,,,,,,,,,,,,,,,,,,,,,,,,,,,,,,,,,,,,,,
,,559385f5fdf99b78e49c58e9,2022-09-08_13h33.40.049,CGTgamblingSpanTasks,2022.2.1,Win32,60.08171113,,,,,,,,2.8774,,,,,,,,,,,,,,1,n,1.1226,11.93550497,0,4.3774,1.5,,,,,,14.20587264,0,11.93550497,,,,,,,,,,,,,0,15,15,21,1,0.041340301,0,,,,,,,,,,,,,,,,,,,,,,,,,,,,,,,,,,,,,,,,,,,,,,,,,,,,,,,,,,,,,,,,,,,,,,,,,,,,,,,,
,,559385f5fdf99b78e49c58e9,2022-09-08_13h33.40.049,CGTgamblingSpanTasks,2022.2.1,Win32,60.08171113,,,,,,,,2.898,,,,,,,,,,,,,,1,v,1.102,0,1,4.398,1.5,,,,,,27.77179191,0,0.074524436,,,,,,,,,,,,,0,16,16,99,1,0.910114387,0,,,,,,,,,,,,,,,,,,,,,,,,,,,,,,,,,,,,,,,,,,,,,,,,,,,,,,,,,,,,,,,,,,,,,,,,,,,,,,,,
,,559385f5fdf99b78e49c58e9,2022-09-08_13h33.40.049,CGTgamblingSpanTasks,2022.2.1,Win32,60.08171113,,,,,,,,2.7555,,,,,,,,,,,,,,1,v,1.2445,0,1,4.2555,1.5,,,,,,21.00799273,0,0.067969053,,,,,,,,,,,,,0,17,17,92,1,0.904360262,0,,,,,,,,,,,,,,,,,,,,,,,,,,,,,,,,,,,,,,,,,,,,,,,,,,,,,,,,,,,,,,,,,,,,,,,,,,,,,,,,
,,559385f5fdf99b78e49c58e9,2022-09-08_13h33.40.049,CGTgamblingSpanTasks,2022.2.1,Win32,60.08171113,,,,,,,,2.2348,,,,,,,,,,,,,,1,n,1.7652,6.781500919,0,3.7348,1.5,,,,,,8.363821911,0,6.781500919,,,,,,,,,,,,,0,18,18,61,1,0.044227959,0,,,,,,,,,,,,,,,,,,,,,,,,,,,,,,,,,,,,,,,,,,,,,,,,,,,,,,,,,,,,,,,,,,,,,,,,,,,,,,,,
,,559385f5fdf99b78e49c58e9,2022-09-08_13h33.40.049,CGTgamblingSpanTasks,2022.2.1,Win32,60.08171113,,,,,,,,2.8033,,,,,,,,,,,,,,2,n,1.1967,19.68065872,1,3.8033,1,,,,,,19.68065872,0,1.843597162,,,,,,,,,,,,,0,19,19,80,1,0.514941058,1,,,,,,,,,,,,,,,,,,,,,,,,,,,,,,,,,,,,,,,,,,,,,,,,,,,,,,,,,,,,,,,,,,,,,,,,,,,,,,,,
,,559385f5fdf99b78e49c58e9,2022-09-08_13h33.40.049,CGTgamblingSpanTasks,2022.2.1,Win32,60.08171113,,,,,,,,3.1394,,,,,,,,,,,,,,1,v,0.8606,25.65316415,1,4.6394,1.5,,,,,,25.65316415,0,0.079652925,,,,,,,,,,,,,0,20,20,109,1,0.90568168,0,,,,,,,,,,,,,,,,,,,,,,,,,,,,,,,,,,,,,,,,,,,,,,,,,,,,,,,,,,,,,,,,,,,,,,,,,,,,,,,,
,,559385f5fdf99b78e49c58e9,2022-09-08_13h33.40.049,CGTgamblingSpanTasks,2022.2.1,Win32,60.08171113,,,,,,,,1.8125,,,,,,,,,,,,,,1,n,2.1875,8.42547829,0,2.8125,1,,,,,,15.87668502,0,8.42547829,,,,,,,,,,,,,0,21,21,56,1,0.092099462,0,,,,,,,,,,,,,,,,,,,,,,,,,,,,,,,,,,,,,,,,,,,,,,,,,,,,,,,,,,,,,,,,,,,,,,,,,,,,,,,,
,,559385f5fdf99b78e49c58e9,2022-09-08_13h33.40.049,CGTgamblingSpanTasks,2022.2.1,Win32,60.08171113,,,,,,,,2.7046,,,,,,,,,,,,,,2,n,1.2954,20.31034258,1,4.2046,1.5,,,,,,20.31034258,0,1.870404296,,,,,,,,,,,,,0,22,22,85,1,0.519325853,1,,,,,,,,,,,,,,,,,,,,,,,,,,,,,,,,,,,,,,,,,,,,,,,,,,,,,,,,,,,,,,,,,,,,,,,,,,,,,,,,
,,559385f5fdf99b78e49c58e9,2022-09-08_13h33.40.049,CGTgamblingSpanTasks,2022.2.1,Win32,60.08171113,,,,,,,,3.0573,,,,,,,,,,,,,,2,n,0.9427,28.94627214,1,4.0573,1,,,,,,28.94627214,0,2.701896413,,,,,,,,,,,,,0,23,23,111,1,0.515860759,1,,,,,,,,,,,,,,,,,,,,,,,,,,,,,,,,,,,,,,,,,,,,,,,,,,,,,,,,,,,,,,,,,,,,,,,,,,,,,,,,
,,559385f5fdf99b78e49c58e9,2022-09-08_13h33.40.049,CGTgamblingSpanTasks,2022.2.1,Win32,60.08171113,,,,,,,,3.1951,,,,,,,,,,,,,,2,n,0.8049,27.12325385,1,4.6951,1.5,,,,,,27.12325385,0,0.080932047,,,,,,,,,,,,,0,24,24,14,1,0.906929184,0,,,,,,,,,,,,,,,,,,,,,,,,,,,,,,,,,,,,,,,,,,,,,,,,,,,,,,,,,,,,,,,,,,,,,,,,,,,,,,,,
,,559385f5fdf99b78e49c58e9,2022-09-08_13h33.40.049,CGTgamblingSpanTasks,2022.2.1,Win32,60.08171113,,,,,,,,2.7658,,,,,,,,,,,,,,2,v,1.2342,11.35147481,0,4.2658,1.5,,,,,,17.67865084,0,11.35147481,,,,,,,,,,,,,0,25,25,91,1,0.067304606,0,,,,,,,,,,,,,,,,,,,,,,,,,,,,,,,,,,,,,,,,,,,,,,,,,,,,,,,,,,,,,,,,,,,,,,,,,,,,,,,,
,,559385f5fdf99b78e49c58e9,2022-09-08_13h33.40.049,CGTgamblingSpanTasks,2022.2.1,Win32,60.08171113,,,,,,,,2.7015,,,,,,,,,,,,,,1,n,1.2985,11.6744431,0,4.2015,1.5,,,,,,10.43004651,0,11.6744431,,,,,,,,,,,,,0,26,26,15,1,0.026176489,0,,,,,,,,,,,,,,,,,,,,,,,,,,,,,,,,,,,,,,,,,,,,,,,,,,,,,,,,,,,,,,,,,,,,,,,,,,,,,,,,
,,559385f5fdf99b78e49c58e9,2022-09-08_13h33.40.049,CGTgamblingSpanTasks,2022.2.1,Win32,60.08171113,,,,,,,,2.8301,,,,,,,,,,,,,,2,n,1.1699,0,1,3.8301,1,,,,,,17.92584289,0,1.878232496,,,,,,,,,,,,,0,27,27,5,1,0.485559263,1,,,,,,,,,,,,,,,,,,,,,,,,,,,,,,,,,,,,,,,,,,,,,,,,,,,,,,,,,,,,,,,,,,,,,,,,,,,,,,,,
,,559385f5fdf99b78e49c58e9,2022-09-08_13h33.40.049,CGTgamblingSpanTasks,2022.2.1,Win32,60.08171113,,,,,,,,3.1808,,,,,,,,,,,,,,1,n,0.8192,7.50753835,0,4.6808,1.5,,,,,,2.231316635,0,7.50753835,,,,,,,,,,,,,0,28,28,29,1,0.010273427,0,,,,,,,,,,,,,,,,,,,,,,,,,,,,,,,,,,,,,,,,,,,,,,,,,,,,,,,,,,,,,,,,,,,,,,,,,,,,,,,,
,,559385f5fdf99b78e49c58e9,2022-09-08_13h33.40.049,CGTgamblingSpanTasks,2022.2.1,Win32,60.08171113,,,,,,,,2.8774,,,,,,,,,,,,,,1,v,1.1226,0,1,4.3774,1.5,,,,,,17.5608285,0,1.825111303,,,,,,,,,,,,,0,29,29,104,1,0.487721116,1,,,,,,,,,,,,,,,,,,,,,,,,,,,,,,,,,,,,,,,,,,,,,,,,,,,,,,,,,,,,,,,,,,,,,,,,,,,,,,,,
,,559385f5fdf99b78e49c58e9,2022-09-08_13h33.40.049,CGTgamblingSpanTasks,2022.2.1,Win32,60.08171113,,,,,,,,2.8478,,,,,,,,,,,,,,2,n,1.1522,0,1,3.8478,1,,,,,,18.50662664,0,0.052546026,,,,,,,,,,,,,0,30,30,112,1,0.908444837,0,,,,,,,,,,,,,,,,,,,,,,,,,,,,,,,,,,,,,,,,,,,,,,,,,,,,,,,,,,,,,,,,,,,,,,,,,,,,,,,,
,,559385f5fdf99b78e49c58e9,2022-09-08_13h33.40.049,CGTgamblingSpanTasks,2022.2.1,Win32,60.08171113,,,,,,,,3.1254,,,,,,,,,,,,,,2,n,0.8746,0,1,4.6254,1.5,,,,,,19.36415485,0,1.966229494,,,,,,,,,,,,,0,31,31,96,1,0.493893111,1,,,,,,,,,,,,,,,,,,,,,,,,,,,,,,,,,,,,,,,,,,,,,,,,,,,,,,,,,,,,,,,,,,,,,,,,,,,,,,,,
,,559385f5fdf99b78e49c58e9,2022-09-08_13h33.40.049,CGTgamblingSpanTasks,2022.2.1,Win32,60.08171113,,,,,,,,2.8589,,,,,,,,,,,,,,1,v,1.1411,8.670591867,1,3.8589,1,,,,,,8.670591867,0,1.025847652,,,,,,,,,,,,,0,32,32,18,1,0.452680459,1,,,,,,,,,,,,,,,,,,,,,,,,,,,,,,,,,,,,,,,,,,,,,,,,,,,,,,,,,,,,,,,,,,,,,,,,,,,,,,,,
,,559385f5fdf99b78e49c58e9,2022-09-08_13h33.40.049,CGTgamblingSpanTasks,2022.2.1,Win32,60.08171113,,,,,,,,2.9284,,,,,,,,,,,,,,2,v,1.0716,7.646213173,0,4.4284,1.5,,,,,,2.042350179,0,7.646213173,,,,,,,,,,,,,0,33,33,53,1,0.009522273,0,,,,,,,,,,,,,,,,,,,,,,,,,,,,,,,,,,,,,,,,,,,,,,,,,,,,,,,,,,,,,,,,,,,,,,,,,,,,,,,,
,,559385f5fdf99b78e49c58e9,2022-09-08_13h33.40.049,CGTgamblingSpanTasks,2022.2.1,Win32,60.08171113,,,,,,,,2.8552,,,,,,,,,,,,,,2,v,1.1448,4.904872644,0,3.8552,1,,,,,,4.698775357,0,4.904872644,,,,,,,,,,,,,0,34,34,75,1,0.028064484,0,,,,,,,,,,,,,,,,,,,,,,,,,,,,,,,,,,,,,,,,,,,,,,,,,,,,,,,,,,,,,,,,,,,,,,,,,,,,,,,,
,,559385f5fdf99b78e49c58e9,2022-09-08_13h33.40.049,CGTgamblingSpanTasks,2022.2.1,Win32,60.08171113,,,,,,,,2.7868,,,,,,,,,,,,,,2,n,1.2132,19.3050342,1,3.7868,1,,,,,,19.3050342,0,2.030232342,,,,,,,,,,,,,0,35,35,73,1,0.484573227,1,,,,,,,,,,,,,,,,,,,,,,,,,,,,,,,,,,,,,,,,,,,,,,,,,,,,,,,,,,,,,,,,,,,,,,,,,,,,,,,,
,,559385f5fdf99b78e49c58e9,2022-09-08_13h33.40.049,CGTgamblingSpanTasks,2022.2.1,Win32,60.08171113,,,,,,,,3.0734,,,,,,,,,,,,,,1,v,0.9266,27.4965044,1,4.5734,1.5,,,,,,27.4965044,0,2.461467004,,,,,,,,,,,,,0,36,36,36,1,0.526550878,1,,,,,,,,,,,,,,,,,,,,,,,,,,,,,,,,,,,,,,,,,,,,,,,,,,,,,,,,,,,,,,,,,,,,,,,,,,,,,,,,
,,559385f5fdf99b78e49c58e9,2022-09-08_13h33.40.049,CGTgamblingSpanTasks,2022.2.1,Win32,60.08171113,,,,,,,,3.1966,,,,,,,,,,,,,,2,n,0.8034,28.13634754,1,4.6966,1.5,,,,,,28.13634754,0,2.532806323,,,,,,,,,,,,,0,37,37,28,1,0.525136524,1,,,,,,,,,,,,,,,,,,,,,,,,,,,,,,,,,,,,,,,,,,,,,,,,,,,,,,,,,,,,,,,,,,,,,,,,,,,,,,,,
,,559385f5fdf99b78e49c58e9,2022-09-08_13h33.40.049,CGTgamblingSpanTasks,2022.2.1,Win32,60.08171113,,,,,,,,3.0569,,,,,,,,,,,,,,1,v,0.9431,0,1,4.0569,1,,,,,,28.14876717,0,3.117906378,,,,,,,,,,,,,0,38,38,76,1,0.470636736,1,,,,,,,,,,,,,,,,,,,,,,,,,,,,,,,,,,,,,,,,,,,,,,,,,,,,,,,,,,,,,,,,,,,,,,,,,,,,,,,,
,,559385f5fdf99b78e49c58e9,2022-09-08_13h33.40.049,CGTgamblingSpanTasks,2022.2.1,Win32,60.08171113,,,,,,,,3.0755,,,,,,,,,,,,,,2,n,0.9245,18.20422443,1,4.5755,1.5,,,,,,18.20422443,0,1.635040165,,,,,,,,,,,,,0,39,39,82,1,0.525708991,1,,,,,,,,,,,,,,,,,,,,,,,,,,,,,,,,,,,,,,,,,,,,,,,,,,,,,,,,,,,,,,,,,,,,,,,,,,,,,,,,
,,559385f5fdf99b78e49c58e9,2022-09-08_13h33.40.049,CGTgamblingSpanTasks,2022.2.1,Win32,60.08171113,,,,,,,,2.9065,,,,,,,,,,,,,,1,v,1.0935,0,1,3.9065,1,,,,,,11.08143071,0,1.207538756,,,,,,,,,,,,,0,40,40,84,1,0.475047453,1,,,,,,,,,,,,,,,,,,,,,,,,,,,,,,,,,,,,,,,,,,,,,,,,,,,,,,,,,,,,,,,,,,,,,,,,,,,,,,,,
,,559385f5fdf99b78e49c58e9,2022-09-08_13h33.40.049,CGTgamblingSpanTasks,2022.2.1,Win32,60.08171113,,,,,,,,3.1253,,,,,,,,,,,,,,2,n,0.8747,25.21882231,1,4.6253,1.5,,,,,,25.21882231,0,0.085746782,,,,,,,,,,,,,0,41,41,64,1,0.90272076,0,,,,,,,,,,,,,,,,,,,,,,,,,,,,,,,,,,,,,,,,,,,,,,,,,,,,,,,,,,,,,,,,,,,,,,,,,,,,,,,,
,,559385f5fdf99b78e49c58e9,2022-09-08_13h33.40.049,CGTgamblingSpanTasks,2022.2.1,Win32,60.08171113,,,,,,,,2.8724,,,,,,,,,,,,,,1,v,1.1276,0,1,4.3724,1.5,,,,,,19.58698544,0,9.936178001,,,,,,,,,,,,,0,42,42,77,1,0.098812204,0,,,,,,,,,,,,,,,,,,,,,,,,,,,,,,,,,,,,,,,,,,,,,,,,,,,,,,,,,,,,,,,,,,,,,,,,,,,,,,,,
,,559385f5fdf99b78e49c58e9,2022-09-08_13h33.40.049,CGTgamblingSpanTasks,2022.2.1,Win32,60.08171113,,,,,,,,3.095,,,,,,,,,,,,,,2,n,0.905,0,1,4.095,1,,,,,,11.16819157,0,0.941456753,,,,,,,,,,,,,0,43,43,45,1,0.54163803,1,,,,,,,,,,,,,,,,,,,,,,,,,,,,,,,,,,,,,,,,,,,,,,,,,,,,,,,,,,,,,,,,,,,,,,,,,,,,,,,,
,,559385f5fdf99b78e49c58e9,2022-09-08_13h33.40.049,CGTgamblingSpanTasks,2022.2.1,Win32,60.08171113,,,,,,,,3.2391,,,,,,,,,,,,,,1,v,0.7609,22.72923833,1,4.2391,1,,,,,,22.72923833,0,0.067170781,,,,,,,,,,,,,0,44,44,86,1,0.907226703,0,,,,,,,,,,,,,,,,,,,,,,,,,,,,,,,,,,,,,,,,,,,,,,,,,,,,,,,,,,,,,,,,,,,,,,,,,,,,,,,,
,,559385f5fdf99b78e49c58e9,2022-09-08_13h33.40.049,CGTgamblingSpanTasks,2022.2.1,Win32,60.08171113,,,,,,,,3.0151,,,,,,,,,,,,,,2,n,0.9849,23.59556381,1,4.0151,1,,,,,,23.59556381,0,2.464662219,,,,,,,,,,,,,0,45,45,22,1,0.486383205,1,,,,,,,,,,,,,,,,,,,,,,,,,,,,,,,,,,,,,,,,,,,,,,,,,,,,,,,,,,,,,,,,,,,,,,,,,,,,,,,,
,,559385f5fdf99b78e49c58e9,2022-09-08_13h33.40.049,CGTgamblingSpanTasks,2022.2.1,Win32,60.08171113,,,,,,,,3.2215,,,,,,,,,,,,,,2,n,0.7785,15.43649625,1,4.2215,1,,,,,,15.43649625,0,1.65459324,,,,,,,,,,,,,0,46,46,33,1,0.479480163,1,,,,,,,,,,,,,,,,,,,,,,,,,,,,,,,,,,,,,,,,,,,,,,,,,,,,,,,,,,,,,,,,,,,,,,,,,,,,,,,,
,,559385f5fdf99b78e49c58e9,2022-09-08_13h33.40.049,CGTgamblingSpanTasks,2022.2.1,Win32,60.08171113,,,,,,,,3.0926,,,,,,,,,,,,,,2,n,0.9074,0,1,4.5926,1.5,,,,,,26.16821818,0,0.093528069,,,,,,,,,,,,,0,47,47,42,1,0.901022427,0,,,,,,,,,,,,,,,,,,,,,,,,,,,,,,,,,,,,,,,,,,,,,,,,,,,,,,,,,,,,,,,,,,,,,,,,,,,,,,,,
,,559385f5fdf99b78e49c58e9,2022-09-08_13h33.40.049,CGTgamblingSpanTasks,2022.2.1,Win32,60.08171113,,,,,,,,2.1884,,,,,,,,,,,,,,2,v,1.8116,11.41737518,0,3.6884,1.5,,,,,,18.11029021,0,11.41737518,,,,,,,,,,,,,0,48,48,48,1,0.069445859,0,,,,,,,,,,,,,,,,,,,,,,,,,,,,,,,,,,,,,,,,,,,,,,,,,,,,,,,,,,,,,,,,,,,,,,,,,,,,,,,,
,,559385f5fdf99b78e49c58e9,2022-09-08_13h33.40.049,CGTgamblingSpanTasks,2022.2.1,Win32,60.08171113,,,,,,,,2.6353,,,,,,,,,,,,,,2,n,1.3647,29.76099779,1,4.1353,1.5,,,,,,29.76099779,0,0.095763086,,,,,,,,,,,,,0,49,49,35,1,0.904537896,0,,,,,,,,,,,,,,,,,,,,,,,,,,,,,,,,,,,,,,,,,,,,,,,,,,,,,,,,,,,,,,,,,,,,,,,,,,,,,,,,
,,559385f5fdf99b78e49c58e9,2022-09-08_13h33.40.049,CGTgamblingSpanTasks,2022.2.1,Win32,60.08171113,,,,,,,,3.1453,,,,,,,,,,,,,,1,v,0.8547,0,1,4.1453,1,,,,,,27.88092897,0,2.771762788,,,,,,,,,,,,,0,50,50,117,1,0.499466648,1,,,,,,,,,,,,,,,,,,,,,,,,,,,,,,,,,,,,,,,,,,,,,,,,,,,,,,,,,,,,,,,,,,,,,,,,,,,,,,,,
,,559385f5fdf99b78e49c58e9,2022-09-08_13h33.40.049,CGTgamblingSpanTasks,2022.2.1,Win32,60.08171113,,,,,,,,3.1056,,,,,,,,,,,,,,2,n,0.8944,17.23907308,1,4.6056,1.5,,,,,,17.23907308,0,2.055848574,,,,,,,,,,,,,0,51,51,66,1,0.450504458,1,,,,,,,,,,,,,,,,,,,,,,,,,,,,,,,,,,,,,,,,,,,,,,,,,,,,,,,,,,,,,,,,,,,,,,,,,,,,,,,,
,,559385f5fdf99b78e49c58e9,2022-09-08_13h33.40.049,CGTgamblingSpanTasks,2022.2.1,Win32,60.08171113,,,,,,,,2.9056,,,,,,,,,,,,,,1,n,1.0944,6.833409611,0,3.9056,1,,,,,,6.325091157,0,6.833409611,,,,,,,,,,,,,0,52,52,58,1,0.027113638,0,,,,,,,,,,,,,,,,,,,,,,,,,,,,,,,,,,,,,,,,,,,,,,,,,,,,,,,,,,,,,,,,,,,,,,,,,,,,,,,,
,,559385f5fdf99b78e49c58e9,2022-09-08_13h33.40.049,CGTgamblingSpanTasks,2022.2.1,Win32,60.08171113,,,,,,,,2.3621,,,,,,,,,,,,,,1,n,1.6379,11.39288827,0,3.8621,1.5,,,,,,20.97851654,0,11.39288827,,,,,,,,,,,,,0,53,53,2,1,0.088791079,0,,,,,,,,,,,,,,,,,,,,,,,,,,,,,,,,,,,,,,,,,,,,,,,,,,,,,,,,,,,,,,,,,,,,,,,,,,,,,,,,
,,559385f5fdf99b78e49c58e9,2022-09-08_13h33.40.049,CGTgamblingSpanTasks,2022.2.1,Win32,60.08171113,,,,,,,,2.4842,,,,,,,,,,,,,,1,n,1.5158,6.091504705,0,3.4842,1,,,,,,6.662965216,0,6.091504705,,,,,,,,,,,,,0,54,54,102,1,0.035087099,0,,,,,,,,,,,,,,,,,,,,,,,,,,,,,,,,,,,,,,,,,,,,,,,,,,,,,,,,,,,,,,,,,,,,,,,,,,,,,,,,
,,559385f5fdf99b78e49c58e9,2022-09-08_13h33.40.049,CGTgamblingSpanTasks,2022.2.1,Win32,60.08171113,,,,,,,,2.5993,,,,,,,,,,,,,,1,v,1.4007,22.0050376,1,3.5993,1,,,,,,22.0050376,0,2.257683666,,,,,,,,,,,,,0,55,55,4,1,0.491147312,1,,,,,,,,,,,,,,,,,,,,,,,,,,,,,,,,,,,,,,,,,,,,,,,,,,,,,,,,,,,,,,,,,,,,,,,,,,,,,,,,
,,559385f5fdf99b78e49c58e9,2022-09-08_13h33.40.049,CGTgamblingSpanTasks,2022.2.1,Win32,60.08171113,,,,,,,,2.7376,,,,,,,,,,,,,,2,v,1.2624,11.42134125,0,3.7376,1,,,,,,12.9904115,0,11.42134125,,,,,,,,,,,,,0,56,56,118,1,0.037876033,0,,,,,,,,,,,,,,,,,,,,,,,,,,,,,,,,,,,,,,,,,,,,,,,,,,,,,,,,,,,,,,,,,,,,,,,,,,,,,,,,
,,559385f5fdf99b78e49c58e9,2022-09-08_13h33.40.049,CGTgamblingSpanTasks,2022.2.1,Win32,60.08171113,,,,,,,,3.2075,,,,,,,,,,,,,,2,n,0.7925,21.39646914,1,4.7075,1.5,,,,,,21.39646914,0,0.072474078,,,,,,,,,,,,,0,57,57,3,1,0.902848133,0,,,,,,,,,,,,,,,,,,,,,,,,,,,,,,,,,,,,,,,,,,,,,,,,,,,,,,,,,,,,,,,,,,,,,,,,,,,,,,,,
,,559385f5fdf99b78e49c58e9,2022-09-08_13h33.40.049,CGTgamblingSpanTasks,2022.2.1,Win32,60.08171113,,,,,,,,3.2081,,,,,,,,,,,,,,2,n,0.7919,24.57684014,1,4.7081,1.5,,,,,,24.57684014,0,0.061756244,,,,,,,,,,,,,0,58,58,68,1,0.911988903,0,,,,,,,,,,,,,,,,,,,,,,,,,,,,,,,,,,,,,,,,,,,,,,,,,,,,,,,,,,,,,,,,,,,,,,,,,,,,,,,,
,,559385f5fdf99b78e49c58e9,2022-09-08_13h33.40.049,CGTgamblingSpanTasks,2022.2.1,Win32,60.08171113,,,,,,,,2,,,,,,,,,,,,,,2,n,2,27.7711693,1,3,1,,,,,,27.7711693,0,2.320849632,,,,,,,,,,,,,0,59,59,94,1,0.543786368,1,,,,,,,,,,,,,,,,,,,,,,,,,,,,,,,,,,,,,,,,,,,,,,,,,,,,,,,,,,,,,,,,,,,,,,,,,,,,,,,,
,,559385f5fdf99b78e49c58e9,2022-09-08_13h33.40.049,CGTgamblingSpanTasks,2022.2.1,Win32,60.08171113,,,,,,,,3.1328,,,,,,,,,,,,,,1,v,0.8672,0,1,4.6328,1.5,,,,,,25.76582409,0,2.393193076,,,,,,,,,,,,,0,60,60,46,1,0.517129855,1,,,,,,,,,,,,,,,,,,,,,,,,,,,,,,,,,,,,,,,,,,,,,,,,,,,,,,,,,,,,,,,,,,,,,,,,,,,,,,,,
,,559385f5fdf99b78e49c58e9,2022-09-08_13h33.40.049,CGTgamblingSpanTasks,2022.2.1,Win32,60.08171113,,,,,,,,2.9344,,,,,,,,,,,,,,2,v,1.0656,4.251676631,0,4.4344,1.5,,,,,,3.395192929,0,4.251676631,,,,,,,,,,,,,0,61,61,7,1,0.023467153,0,,,,,,,,,,,,,,,,,,,,,,,,,,,,,,,,,,,,,,,,,,,,,,,,,,,,,,,,,,,,,,,,,,,,,,,,,,,,,,,,
,,559385f5fdf99b78e49c58e9,2022-09-08_13h33.40.049,CGTgamblingSpanTasks,2022.2.1,Win32,60.08171113,,,,,,,,3.171,,,,,,,,,,,,,,2,n,0.829,0,1,4.671,1.5,,,,,,28.33977875,0,2.768313633,,,,,,,,,,,,,0,62,62,116,1,0.50406901,1,,,,,,,,,,,,,,,,,,,,,,,,,,,,,,,,,,,,,,,,,,,,,,,,,,,,,,,,,,,,,,,,,,,,,,,,,,,,,,,,
,,559385f5fdf99b78e49c58e9,2022-09-08_13h33.40.049,CGTgamblingSpanTasks,2022.2.1,Win32,60.08171113,,,,,,,,3.0638,,,,,,,,,,,,,,1,v,0.9362,25.26994993,1,4.0638,1,,,,,,25.26994993,0,2.78925142,,,,,,,,,,,,,0,63,63,108,1,0.471582922,1,,,,,,,,,,,,,,,,,,,,,,,,,,,,,,,,,,,,,,,,,,,,,,,,,,,,,,,,,,,,,,,,,,,,,,,,,,,,,,,,
,,559385f5fdf99b78e49c58e9,2022-09-08_13h33.40.049,CGTgamblingSpanTasks,2022.2.1,Win32,60.08171113,,,,,,,,2.8326,,,,,,,,,,,,,,2,n,1.1674,18.16238569,1,4.3326,1.5,,,,,,18.16238569,0,1.540604093,,,,,,,,,,,,,0,64,64,34,1,0.540092491,1,,,,,,,,,,,,,,,,,,,,,,,,,,,,,,,,,,,,,,,,,,,,,,,,,,,,,,,,,,,,,,,,,,,,,,,,,,,,,,,,
,,559385f5fdf99b78e49c58e9,2022-09-08_13h33.40.049,CGTgamblingSpanTasks,2022.2.1,Win32,60.08171113,,,,,,,,3.1966,,,,,,,,,,,,,,1,v,0.8034,0,1,4.6966,1.5,,,,,,25.0707644,0,0.067651625,,,,,,,,,,,,,0,65,65,70,1,0.909952349,0,,,,,,,,,,,,,,,,,,,,,,,,,,,,,,,,,,,,,,,,,,,,,,,,,,,,,,,,,,,,,,,,,,,,,,,,,,,,,,,,
,,559385f5fdf99b78e49c58e9,2022-09-08_13h33.40.049,CGTgamblingSpanTasks,2022.2.1,Win32,60.08171113,,,,,,,,2.8451,,,,,,,,,,,,,,1,n,1.1549,8.653432553,0,4.3451,1.5,,,,,,15.13999312,0,8.653432553,,,,,,,,,,,,,0,66,66,54,1,0.081767484,0,,,,,,,,,,,,,,,,,,,,,,,,,,,,,,,,,,,,,,,,,,,,,,,,,,,,,,,,,,,,,,,,,,,,,,,,,,,,,,,,
,,559385f5fdf99b78e49c58e9,2022-09-08_13h33.40.049,CGTgamblingSpanTasks,2022.2.1,Win32,60.08171113,,,,,,,,2.3976,,,,,,,,,,,,,,2,v,1.6024,8.830252162,0,3.3976,1,,,,,,15.73000491,0,8.830252162,,,,,,,,,,,,,0,67,67,95,1,0.084193143,0,,,,,,,,,,,,,,,,,,,,,,,,,,,,,,,,,,,,,,,,,,,,,,,,,,,,,,,,,,,,,,,,,,,,,,,,,,,,,,,,
,,559385f5fdf99b78e49c58e9,2022-09-08_13h33.40.049,CGTgamblingSpanTasks,2022.2.1,Win32,60.08171113,,,,,,,,3.1697,,,,,,,,,,,,,,1,v,0.8303,0,1,4.6697,1.5,,,,,,24.8002852,0,0.071848086,,,,,,,,,,,,,0,68,68,16,1,0.90783559,0,,,,,,,,,,,,,,,,,,,,,,,,,,,,,,,,,,,,,,,,,,,,,,,,,,,,,,,,,,,,,,,,,,,,,,,,,,,,,,,,
,,559385f5fdf99b78e49c58e9,2022-09-08_13h33.40.049,CGTgamblingSpanTasks,2022.2.1,Win32,60.08171113,,,,,,,,2.8653,,,,,,,,,,,,,,2,n,1.1347,0,1,4.3653,1.5,,,,,,17.4320197,0,1.448620949,,,,,,,,,,,,,0,69,69,30,1,0.545178213,1,,,,,,,,,,,,,,,,,,,,,,,,,,,,,,,,,,,,,,,,,,,,,,,,,,,,,,,,,,,,,,,,,,,,,,,,,,,,,,,,
,,559385f5fdf99b78e49c58e9,2022-09-08_13h33.40.049,CGTgamblingSpanTasks,2022.2.1,Win32,60.08171113,,,,,,,,0,,,,,,,,,,,,,,1,,,,,1,1,,,,,,28.9323758,0,2.893007023,,,,,,,,,,,,,0,70,70,11,1,0.497943321,1,,,,,,,,,,,,,,,,,,,,,,,,,,,,,,,,,,,,,,,,,,,,,,,,,,,,,,,,,,,,,,,,,,,,,,,,,,,,,,,,
,,559385f5fdf99b78e49c58e9,2022-09-08_13h33.40.049,CGTgamblingSpanTasks,2022.2.1,Win32,60.08171113,,,,,,,,1.5446,,,,,,,,,,,,,,2,v,2.4554,10.68505773,0,2.5446,1,,,,,,17.64114152,0,10.68505773,,,,,,,,,,,,,0,71,71,98,1,0.074299362,0,,,,,,,,,,,,,,,,,,,,,,,,,,,,,,,,,,,,,,,,,,,,,,,,,,,,,,,,,,,,,,,,,,,,,,,,,,,,,,,,
,,559385f5fdf99b78e49c58e9,2022-09-08_13h33.40.049,CGTgamblingSpanTasks,2022.2.1,Win32,60.08171113,,,,,,,,3.1515,,,,,,,,,,,,,,2,n,0.8485,24.479109,1,4.6515,1.5,,,,,,24.479109,0,0.089582697,,,,,,,,,,,,,0,72,72,89,1,0.900200232,0,,,,,,,,,,,,,,,,,,,,,,,,,,,,,,,,,,,,,,,,,,,,,,,,,,,,,,,,,,,,,,,,,,,,,,,,,,,,,,,,
,,559385f5fdf99b78e49c58e9,2022-09-08_13h33.40.049,CGTgamblingSpanTasks,2022.2.1,Win32,60.08171113,,,,,,,,3.1332,,,,,,,,,,,,,,2,v,0.8668,4.462262453,0,4.1332,1,,,,,,0.192759042,0,4.462262453,,,,,,,,,,,,,0,73,73,52,1,0.003553223,0,,,,,,,,,,,,,,,,,,,,,,,,,,,,,,,,,,,,,,,,,,,,,,,,,,,,,,,,,,,,,,,,,,,,,,,,,,,,,,,,
,,559385f5fdf99b78e49c58e9,2022-09-08_13h33.40.049,CGTgamblingSpanTasks,2022.2.1,Win32,60.08171113,,,,,,,,2.5967,,,,,,,,,,,,,,2,v,1.4033,11.61882862,0,4.0967,1.5,,,,,,4.022743614,0,11.61882862,,,,,,,,,,,,,0,74,74,38,1,0.011499376,0,,,,,,,,,,,,,,,,,,,,,,,,,,,,,,,,,,,,,,,,,,,,,,,,,,,,,,,,,,,,,,,,,,,,,,,,,,,,,,,,
,,559385f5fdf99b78e49c58e9,2022-09-08_13h33.40.049,CGTgamblingSpanTasks,2022.2.1,Win32,60.08171113,,,,,,,,3.0494,,,,,,,,,,,,,,1,v,0.9506,0,1,4.0494,1,,,,,,25.54604005,0,0.088845411,,,,,,,,,,,,,0,75,75,79,1,0.901957831,0,,,,,,,,,,,,,,,,,,,,,,,,,,,,,,,,,,,,,,,,,,,,,,,,,,,,,,,,,,,,,,,,,,,,,,,,,,,,,,,,
,,559385f5fdf99b78e49c58e9,2022-09-08_13h33.40.049,CGTgamblingSpanTasks,2022.2.1,Win32,60.08171113,,,,,,,,3.0957,,,,,,,,,,,,,,1,v,0.9043,0,1,4.5957,1.5,,,,,,22.62475578,0,2.397643354,,,,,,,,,,,,,0,76,76,93,1,0.482527609,1,,,,,,,,,,,,,,,,,,,,,,,,,,,,,,,,,,,,,,,,,,,,,,,,,,,,,,,,,,,,,,,,,,,,,,,,,,,,,,,,
,,559385f5fdf99b78e49c58e9,2022-09-08_13h33.40.049,CGTgamblingSpanTasks,2022.2.1,Win32,60.08171113,,,,,,,,3.0979,,,,,,,,,,,,,,2,n,0.9021,0,1,4.5979,1.5,,,,,,27.57491653,0,2.99133314,,,,,,,,,,,,,0,77,77,10,1,0.47625893,1,,,,,,,,,,,,,,,,,,,,,,,,,,,,,,,,,,,,,,,,,,,,,,,,,,,,,,,,,,,,,,,,,,,,,,,,,,,,,,,,
,,559385f5fdf99b78e49c58e9,2022-09-08_13h33.40.049,CGTgamblingSpanTasks,2022.2.1,Win32,60.08171113,,,,,,,,2.8354,,,,,,,,,,,,,,1,v,1.1646,23.24777057,1,3.8354,1,,,,,,23.24777057,0,2.003482335,,,,,,,,,,,,,0,78,78,59,1,0.536135174,1,,,,,,,,,,,,,,,,,,,,,,,,,,,,,,,,,,,,,,,,,,,,,,,,,,,,,,,,,,,,,,,,,,,,,,,,,,,,,,,,
,,559385f5fdf99b78e49c58e9,2022-09-08_13h33.40.049,CGTgamblingSpanTasks,2022.2.1,Win32,60.08171113,,,,,,,,3.2943,,,,,,,,,,,,,,2,n,0.7057,0,1,4.2943,1,,,,,,26.36733703,0,2.201057101,,,,,,,,,,,,,0,79,79,90,1,0.544064207,1,,,,,,,,,,,,,,,,,,,,,,,,,,,,,,,,,,,,,,,,,,,,,,,,,,,,,,,,,,,,,,,,,,,,,,,,,,,,,,,,
,,559385f5fdf99b78e49c58e9,2022-09-08_13h33.40.049,CGTgamblingSpanTasks,2022.2.1,Win32,60.08171113,,,,,,,,3.0989,,,,,,,,,,,,,,1,v,0.9011,27.94544945,1,4.5989,1.5,,,,,,27.94544945,0,2.32030209,,,,,,,,,,,,,0,80,80,115,1,0.545390564,1,,,,,,,,,,,,,,,,,,,,,,,,,,,,,,,,,,,,,,,,,,,,,,,,,,,,,,,,,,,,,,,,,,,,,,,,,,,,,,,,
,,559385f5fdf99b78e49c58e9,2022-09-08_13h33.40.049,CGTgamblingSpanTasks,2022.2.1,Win32,60.08171113,,,,,,,,3.0381,,,,,,,,,,,,,,1,v,0.9619,0,1,4.0381,1,,,,,,19.5450126,0,2.123581464,,,,,,,,,,,,,0,81,81,65,1,0.475836144,1,,,,,,,,,,,,,,,,,,,,,,,,,,,,,,,,,,,,,,,,,,,,,,,,,,,,,,,,,,,,,,,,,,,,,,,,,,,,,,,,
,,559385f5fdf99b78e49c58e9,2022-09-08_13h33.40.049,CGTgamblingSpanTasks,2022.2.1,Win32,60.08171113,,,,,,,,2.825,,,,,,,,,,,,,,2,n,1.175,22.87092517,1,3.825,1,,,,,,22.87092517,0,0.059276504,,,,,,,,,,,,,0,82,82,27,1,0.911114935,0,,,,,,,,,,,,,,,,,,,,,,,,,,,,,,,,,,,,,,,,,,,,,,,,,,,,,,,,,,,,,,,,,,,,,,,,,,,,,,,,
,,559385f5fdf99b78e49c58e9,2022-09-08_13h33.40.049,CGTgamblingSpanTasks,2022.2.1,Win32,60.08171113,,,,,,,,2.8468,,,,,,,,,,,,,,2,v,1.1532,8.512335864,0,4.3468,1.5,,,,,,10.05300841,0,8.512335864,,,,,,,,,,,,,0,83,83,74,1,0.040729225,0,,,,,,,,,,,,,,,,,,,,,,,,,,,,,,,,,,,,,,,,,,,,,,,,,,,,,,,,,,,,,,,,,,,,,,,,,,,,,,,,
,,559385f5fdf99b78e49c58e9,2022-09-08_13h33.40.049,CGTgamblingSpanTasks,2022.2.1,Win32,60.08171113,,,,,,,,3.2992,,,,,,,,,,,,,,2,n,0.7008,17.85020524,1,4.7992,1.5,,,,,,17.85020524,0,2.058701084,,,,,,,,,,,,,0,84,84,25,1,0.459662216,1,,,,,,,,,,,,,,,,,,,,,,,,,,,,,,,,,,,,,,,,,,,,,,,,,,,,,,,,,,,,,,,,,,,,,,,,,,,,,,,,
,,559385f5fdf99b78e49c58e9,2022-09-08_13h33.40.049,CGTgamblingSpanTasks,2022.2.1,Win32,60.08171113,,,,,,,,3.1317,,,,,,,,,,,,,,1,v,0.8683,27.37527992,1,4.6317,1.5,,,,,,27.37527992,0,2.860319095,,,,,,,,,,,,,0,85,85,39,1,0.486304156,1,,,,,,,,,,,,,,,,,,,,,,,,,,,,,,,,,,,,,,,,,,,,,,,,,,,,,,,,,,,,,,,,,,,,,,,,,,,,,,,,
,,559385f5fdf99b78e49c58e9,2022-09-08_13h33.40.049,CGTgamblingSpanTasks,2022.2.1,Win32,60.08171113,,,,,,,,3.0783,,,,,,,,,,,,,,1,v,0.9217,21.03408097,1,4.0783,1,,,,,,21.03408097,0,2.208275162,,,,,,,,,,,,,0,86,86,0,1,0.485031246,1,,,,,,,,,,,,,,,,,,,,,,,,,,,,,,,,,,,,,,,,,,,,,,,,,,,,,,,,,,,,,,,,,,,,,,,,,,,,,,,,
,,559385f5fdf99b78e49c58e9,2022-09-08_13h33.40.049,CGTgamblingSpanTasks,2022.2.1,Win32,60.08171113,,,,,,,,3.1251,,,,,,,,,,,,,,2,n,0.8749,13.96521039,1,4.6251,1.5,,,,,,13.96521039,0,1.591282699,,,,,,,,,,,,,0,87,87,49,1,0.462956344,1,,,,,,,,,,,,,,,,,,,,,,,,,,,,,,,,,,,,,,,,,,,,,,,,,,,,,,,,,,,,,,,,,,,,,,,,,,,,,,,,
,,559385f5fdf99b78e49c58e9,2022-09-08_13h33.40.049,CGTgamblingSpanTasks,2022.2.1,Win32,60.08171113,,,,,,,,3.1162,,,,,,,,,,,,,,1,v,0.8838,21.16780451,1,4.6162,1.5,,,,,,21.16780451,0,2.469465385,,,,,,,,,,,,,0,88,88,32,1,0.456531699,1,,,,,,,,,,,,,,,,,,,,,,,,,,,,,,,,,,,,,,,,,,,,,,,,,,,,,,,,,,,,,,,,,,,,,,,,,,,,,,,,
,,559385f5fdf99b78e49c58e9,2022-09-08_13h33.40.049,CGTgamblingSpanTasks,2022.2.1,Win32,60.08171113,,,,,,,,3.0498,,,,,,,,,,,,,,1,v,0.9502,0,1,4.5498,1.5,,,,,,29.75778644,0,2.810531415,,,,,,,,,,,,,0,89,89,113,1,0.512824233,1,,,,,,,,,,,,,,,,,,,,,,,,,,,,,,,,,,,,,,,,,,,,,,,,,,,,,,,,,,,,,,,,,,,,,,,,,,,,,,,,
,,559385f5fdf99b78e49c58e9,2022-09-08_13h33.40.049,CGTgamblingSpanTasks,2022.2.1,Win32,60.08171113,,,,,,,,3.2292,,,,,,,,,,,,,,1,v,0.7708,23.4214135,1,4.7292,1.5,,,,,,23.4214135,0,2.485985001,,,,,,,,,,,,,0,90,90,81,1,0.482105905,1,,,,,,,,,,,,,,,,,,,,,,,,,,,,,,,,,,,,,,,,,,,,,,,,,,,,,,,,,,,,,,,,,,,,,,,,,,,,,,,,
,,559385f5fdf99b78e49c58e9,2022-09-08_13h33.40.049,CGTgamblingSpanTasks,2022.2.1,Win32,60.08171113,,,,,,,,3.2781,,,,,,,,,,,,,,1,v,0.7219,0,1,4.2781,1,,,,,,27.38828234,0,0.0639233,,,,,,,,,,,,,0,91,91,43,1,0.914010176,0,,,,,,,,,,,,,,,,,,,,,,,,,,,,,,,,,,,,,,,,,,,,,,,,,,,,,,,,,,,,,,,,,,,,,,,,,,,,,,,,
,,559385f5fdf99b78e49c58e9,2022-09-08_13h33.40.049,CGTgamblingSpanTasks,2022.2.1,Win32,60.08171113,,,,,,,,2.9635,,,,,,,,,,,,,,1,v,1.0365,0,1,3.9635,1,,,,,,7.534278541,0,0.747140182,,,,,,,,,,,,,0,92,92,37,1,0.50012466,1,,,,,,,,,,,,,,,,,,,,,,,,,,,,,,,,,,,,,,,,,,,,,,,,,,,,,,,,,,,,,,,,,,,,,,,,,,,,,,,,
,,559385f5fdf99b78e49c58e9,2022-09-08_13h33.40.049,CGTgamblingSpanTasks,2022.2.1,Win32,60.08171113,,,,,,,,2.8712,,,,,,,,,,,,,,2,n,1.1288,26.4985979,1,4.3712,1.5,,,,,,26.4985979,0,0.051324376,,,,,,,,,,,,,0,93,93,106,1,0.918747215,0,,,,,,,,,,,,,,,,,,,,,,,,,,,,,,,,,,,,,,,,,,,,,,,,,,,,,,,,,,,,,,,,,,,,,,,,,,,,,,,,
,,559385f5fdf99b78e49c58e9,2022-09-08_13h33.40.049,CGTgamblingSpanTasks,2022.2.1,Win32,60.08171113,,,,,,,,2.781,,,,,,,,,,,,,,2,n,1.219,9.012590634,1,4.281,1.5,,,,,,9.012590634,0,1.002188111,,,,,,,,,,,,,0,94,94,12,1,0.46958041,1,,,,,,,,,,,,,,,,,,,,,,,,,,,,,,,,,,,,,,,,,,,,,,,,,,,,,,,,,,,,,,,,,,,,,,,,,,,,,,,,
,,559385f5fdf99b78e49c58e9,2022-09-08_13h33.40.049,CGTgamblingSpanTasks,2022.2.1,Win32,60.08171113,,,,,,,,1.4082,,,,,,,,,,,,,,2,n,2.5918,0,1,2.4082,1,,,,,,26.11188619,0,0.081942421,,,,,,,,,,,,,0,95,95,105,1,0.905343856,0,,,,,,,,,,,,,,,,,,,,,,,,,,,,,,,,,,,,,,,,,,,,,,,,,,,,,,,,,,,,,,,,,,,,,,,,,,,,,,,,
,,559385f5fdf99b78e49c58e9,2022-09-08_13h33.40.049,CGTgamblingSpanTasks,2022.2.1,Win32,60.08171113,,,,,,,,3.0328,,,,,,,,,,,,,,1,v,0.9672,0,1,4.0328,1,,,,,,21.46599803,0,0.059789256,,,,,,,,,,,,,0,96,96,8,1,0.909019081,0,,,,,,,,,,,,,,,,,,,,,,,,,,,,,,,,,,,,,,,,,,,,,,,,,,,,,,,,,,,,,,,,,,,,,,,,,,,,,,,,
,,559385f5fdf99b78e49c58e9,2022-09-08_13h33.40.049,CGTgamblingSpanTasks,2022.2.1,Win32,60.08171113,,,,,,,,3.2103,,,,,,,,,,,,,,2,n,0.7897,0,1,4.2103,1,,,,,,21.2188881,0,2.067660742,,,,,,,,,,,,,0,97,97,107,1,0.50470775,1,,,,,,,,,,,,,,,,,,,,,,,,,,,,,,,,,,,,,,,,,,,,,,,,,,,,,,,,,,,,,,,,,,,,,,,,,,,,,,,,
,,559385f5fdf99b78e49c58e9,2022-09-08_13h33.40.049,CGTgamblingSpanTasks,2022.2.1,Win32,60.08171113,,,,,,,,3.0942,,,,,,,,,,,,,,1,v,0.9058,21.48443242,1,4.0942,1,,,,,,21.48443242,0,2.229247341,,,,,,,,,,,,,0,98,98,63,1,0.488155912,1,,,,,,,,,,,,,,,,,,,,,,,,,,,,,,,,,,,,,,,,,,,,,,,,,,,,,,,,,,,,,,,,,,,,,,,,,,,,,,,,
,,559385f5fdf99b78e49c58e9,2022-09-08_13h33.40.049,CGTgamblingSpanTasks,2022.2.1,Win32,60.08171113,,,,,,,,2.7071,,,,,,,,,,,,,,2,v,1.2929,5.526483034,0,3.7071,1,,,,,,9.725876653,0,5.526483034,,,,,,,,,,,,,0,99,99,44,1,0.082550696,0,,,,,,,,,,,,,,,,,,,,,,,,,,,,,,,,,,,,,,,,,,,,,,,,,,,,,,,,,,,,,,,,,,,,,,,,,,,,,,,,
,,559385f5fdf99b78e49c58e9,2022-09-08_13h33.40.049,CGTgamblingSpanTasks,2022.2.1,Win32,60.08171113,,,,,,,,3.2471,,,,,,,,,,,,,,2,n,0.7529,27.53810185,1,4.7471,1.5,,,,,,27.53810185,0,0.097022401,,,,,,,,,,,,,0,100,100,50,1,0.901515865,0,,,,,,,,,,,,,,,,,,,,,,,,,,,,,,,,,,,,,,,,,,,,,,,,,,,,,,,,,,,,,,,,,,,,,,,,,,,,,,,,
,,559385f5fdf99b78e49c58e9,2022-09-08_13h33.40.049,CGTgamblingSpanTasks,2022.2.1,Win32,60.08171113,,,,,,,,3.2281,,,,,,,,,,,,,,2,n,0.7719,0,1,4.2281,1,,,,,,25.56803059,0,2.543951743,,,,,,,,,,,,,0,101,101,41,1,0.499247217,1,,,,,,,,,,,,,,,,,,,,,,,,,,,,,,,,,,,,,,,,,,,,,,,,,,,,,,,,,,,,,,,,,,,,,,,,,,,,,,,,
,,559385f5fdf99b78e49c58e9,2022-09-08_13h33.40.049,CGTgamblingSpanTasks,2022.2.1,Win32,60.08171113,,,,,,,,3.0481,,,,,,,,,,,,,,2,n,0.9519,13.84410806,1,4.5481,1.5,,,,,,13.84410806,0,1.535873964,,,,,,,,,,,,,0,102,102,88,1,0.470209002,1,,,,,,,,,,,,,,,,,,,,,,,,,,,,,,,,,,,,,,,,,,,,,,,,,,,,,,,,,,,,,,,,,,,,,,,,,,,,,,,,
,,559385f5fdf99b78e49c58e9,2022-09-08_13h33.40.049,CGTgamblingSpanTasks,2022.2.1,Win32,60.08171113,,,,,,,,2.6323,,,,,,,,,,,,,,1,n,1.3677,10.31611309,0,3.6323,1,,,,,,19.30622782,0,10.31611309,,,,,,,,,,,,,0,103,103,1,1,0.091105656,0,,,,,,,,,,,,,,,,,,,,,,,,,,,,,,,,,,,,,,,,,,,,,,,,,,,,,,,,,,,,,,,,,,,,,,,,,,,,,,,,
,,559385f5fdf99b78e49c58e9,2022-09-08_13h33.40.049,CGTgamblingSpanTasks,2022.2.1,Win32,60.08171113,,,,,,,,3.1818,,,,,,,,,,,,,,2,n,0.8182,0,1,4.1818,1,,,,,,14.3363647,0,1.396635362,,,,,,,,,,,,,0,104,104,78,1,0.504775474,1,,,,,,,,,,,,,,,,,,,,,,,,,,,,,,,,,,,,,,,,,,,,,,,,,,,,,,,,,,,,,,,,,,,,,,,,,,,,,,,,
,,559385f5fdf99b78e49c58e9,2022-09-08_13h33.40.049,CGTgamblingSpanTasks,2022.2.1,Win32,60.08171113,,,,,,,,3.1792,,,,,,,,,,,,,,1,v,0.8208,0,1,4.1792,1,,,,,,13.4287264,0,1.317368801,,,,,,,,,,,,,0,105,105,100,1,0.502953125,1,,,,,,,,,,,,,,,,,,,,,,,,,,,,,,,,,,,,,,,,,,,,,,,,,,,,,,,,,,,,,,,,,,,,,,,,,,,,,,,,
,,559385f5fdf99b78e49c58e9,2022-09-08_13h33.40.049,CGTgamblingSpanTasks,2022.2.1,Win32,60.08171113,,,,,,,,3.3092,,,,,,,,,,,,,,1,v,0.6908,0,1,4.8092,1.5,,,,,,27.2532142,0,0.08089327,,,,,,,,,,,,,0,106,106,119,1,0.907091845,0,,,,,,,,,,,,,,,,,,,,,,,,,,,,,,,,,,,,,,,,,,,,,,,,,,,,,,,,,,,,,,,,,,,,,,,,,,,,,,,,
,,559385f5fdf99b78e49c58e9,2022-09-08_13h33.40.049,CGTgamblingSpanTasks,2022.2.1,Win32,60.08171113,,,,,,,,3.1468,,,,,,,,,,,,,,1,v,0.8532,20.5726842,1,4.1468,1,,,,,,20.5726842,0,0.073558523,,,,,,,,,,,,,0,107,107,26,1,0.901008565,0,,,,,,,,,,,,,,,,,,,,,,,,,,,,,,,,,,,,,,,,,,,,,,,,,,,,,,,,,,,,,,,,,,,,,,,,,,,,,,,,
,,559385f5fdf99b78e49c58e9,2022-09-08_13h33.40.049,CGTgamblingSpanTasks,2022.2.1,Win32,60.08171113,,,,,,,,2.9224,,,,,,,,,,,,,,1,v,1.0776,28.68598705,1,3.9224,1,,,,,,28.68598705,0,0.050674956,,,,,,,,,,,,,0,108,108,62,1,0.920905497,0,,,,,,,,,,,,,,,,,,,,,,,,,,,,,,,,,,,,,,,,,,,,,,,,,,,,,,,,,,,,,,,,,,,,,,,,,,,,,,,,
,,559385f5fdf99b78e49c58e9,2022-09-08_13h33.40.049,CGTgamblingSpanTasks,2022.2.1,Win32,60.08171113,,,,,,,,3.0385,,,,,,,,,,,,,,2,n,0.9615,27.39221343,1,4.0385,1,,,,,,27.39221343,0,2.743407746,,,,,,,,,,,,,0,109,109,47,1,0.49752044,1,,,,,,,,,,,,,,,,,,,,,,,,,,,,,,,,,,,,,,,,,,,,,,,,,,,,,,,,,,,,,,,,,,,,,,,,,,,,,,,,
,,559385f5fdf99b78e49c58e9,2022-09-08_13h33.40.049,CGTgamblingSpanTasks,2022.2.1,Win32,60.08171113,,,,,,,,2.9149,,,,,,,,,,,,,,2,n,1.0851,27.60724521,1,3.9149,1,,,,,,27.60724521,0,0.088432325,,,,,,,,,,,,,0,110,110,17,1,0.904684186,0,,,,,,,,,,,,,,,,,,,,,,,,,,,,,,,,,,,,,,,,,,,,,,,,,,,,,,,,,,,,,,,,,,,,,,,,,,,,,,,,
,,559385f5fdf99b78e49c58e9,2022-09-08_13h33.40.049,CGTgamblingSpanTasks,2022.2.1,Win32,60.08171113,,,,,,,,3.137,,,,,,,,,,,,,,2,n,0.863,0,1,4.637,1.5,,,,,,21.7711579,0,2.502728921,,,,,,,,,,,,,0,111,111,101,1,0.460552621,1,,,,,,,,,,,,,,,,,,,,,,,,,,,,,,,,,,,,,,,,,,,,,,,,,,,,,,,,,,,,,,,,,,,,,,,,,,,,,,,,
,,559385f5fdf99b78e49c58e9,2022-09-08_13h33.40.049,CGTgamblingSpanTasks,2022.2.1,Win32,60.08171113,,,,,,,,3.3029,,,,,,,,,,,,,,2,n,0.6971,24.35708027,1,4.8029,1.5,,,,,,24.35708027,0,2.738695417,,,,,,,,,,,,,0,112,112,114,1,0.466573634,1,,,,,,,,,,,,,,,,,,,,,,,,,,,,,,,,,,,,,,,,,,,,,,,,,,,,,,,,,,,,,,,,,,,,,,,,,,,,,,,,
,,559385f5fdf99b78e49c58e9,2022-09-08_13h33.40.049,CGTgamblingSpanTasks,2022.2.1,Win32,60.08171113,,,,,,,,3.299,,,,,,,,,,,,,,2,n,0.701,27.93093084,1,4.299,1,,,,,,27.93093084,0,0.050207531,,,,,,,,,,,,,0,113,113,83,1,0.920505936,0,,,,,,,,,,,,,,,,,,,,,,,,,,,,,,,,,,,,,,,,,,,,,,,,,,,,,,,,,,,,,,,,,,,,,,,,,,,,,,,,
,,559385f5fdf99b78e49c58e9,2022-09-08_13h33.40.049,CGTgamblingSpanTasks,2022.2.1,Win32,60.08171113,,,,,,,,2.9261,,,,,,,,,,,,,,1,v,1.0739,0,1,3.9261,1,,,,,,8.17598802,0,11.19311486,,,,,,,,,,,,,0,114,114,110,1,0.021568003,0,,,,,,,,,,,,,,,,,,,,,,,,,,,,,,,,,,,,,,,,,,,,,,,,,,,,,,,,,,,,,,,,,,,,,,,,,,,,,,,,
,,559385f5fdf99b78e49c58e9,2022-09-08_13h33.40.049,CGTgamblingSpanTasks,2022.2.1,Win32,60.08171113,,,,,,,,2.466,,,,,,,,,,,,,,2,v,1.534,8.579385201,0,3.466,1,,,,,,14.11762686,0,8.579385201,,,,,,,,,,,,,0,115,115,60,1,0.073886959,0,,,,,,,,,,,,,,,,,,,,,,,,,,,,,,,,,,,,,,,,,,,,,,,,,,,,,,,,,,,,,,,,,,,,,,,,,,,,,,,,
,,559385f5fdf99b78e49c58e9,2022-09-08_13h33.40.049,CGTgamblingSpanTasks,2022.2.1,Win32,60.08171113,,,,,,,,1.9602,,,,,,,,,,,,,,2,v,2.0398,3.877530383,0,3.4602,1.5,,,,,,3.471484939,0,3.877530383,,,,,,,,,,,,,0,116,116,40,1,0.02623078,0,,,,,,,,,,,,,,,,,,,,,,,,,,,,,,,,,,,,,,,,,,,,,,,,,,,,,,,,,,,,,,,,,,,,,,,,,,,,,,,,
,,559385f5fdf99b78e49c58e9,2022-09-08_13h33.40.049,CGTgamblingSpanTasks,2022.2.1,Win32,60.08171113,,,,,,,,2.7817,,,,,,,,,,,,,,2,n,1.2183,7.066129113,1,4.2817,1.5,,,,,,7.066129113,0,0.585581699,,,,,,,,,,,,,0,117,117,19,1,0.545860632,1,,,,,,,,,,,,,,,,,,,,,,,,,,,,,,,,,,,,,,,,,,,,,,,,,,,,,,,,,,,,,,,,,,,,,,,,,,,,,,,,
,,559385f5fdf99b78e49c58e9,2022-09-08_13h33.40.049,CGTgamblingSpanTasks,2022.2.1,Win32,60.08171113,,,,,,,,3.1257,,,,,,,,,,,,,,1,v,0.8743,29.30724159,1,4.6257,1.5,,,,,,29.30724159,0,3.247012935,,,,,,,,,,,,,0,118,118,71,1,0.470571125,1,,,,,,,,,,,,,,,,,,,,,,,,,,,,,,,,,,,,,,,,,,,,,,,,,,,,,,,,,,,,,,,,,,,,,,,,,,,,,,,,
,,559385f5fdf99b78e49c58e9,2022-09-08_13h33.40.049,CGTgamblingSpanTasks,2022.2.1,Win32,60.08171113,,,,,,,,2.4593,,,,,,,,,,,,,,2,v,1.5407,10.3417501,0,3.4593,1,,,,,,15.21435748,0,10.3417501,,,,,,,,,,,,,0,119,119,72,1,0.060969226,0,,,,,,,,,,,,,,,,,,,,,,,,,,,,,,,,,,,,,,,,,,,,,,,,,,,,,,,,,,,,,,,,,,,,,,,,,,,,,,,,
,,559385f5fdf99b78e49c58e9,2022-09-08_13h33.40.049,CGTgamblingSpanTasks,2022.2.1,Win32,60.08171113,,,,,,,,,,,,,,,,,,,,,,,,,,,,,,,,,,,,,,,,,,,,,,,,,,,,,,,,return,627.7133,,,,,,,,,,,,,,,,,,,,,,,,,,,,,,,,,,,,,,,,,,,,,,,,,,,,,,,,,,,,,,,,,,,,,,,,,,,,,,
,,559385f5fdf99b78e49c58e9,2022-09-08_13h33.40.049,CGTgamblingSpanTasks,2022.2.1,Win32,60.08171113,,,,,,,,,,,,,,,,,,,,,,,,,,,,,,,,,,,,,,,,,,,,,,,,,,,,,,,,,,return,11.5081,,,,,,,,,,,,,,,,,,,,,,,,,,,,,,,,,,,,,,,,,,,,,,,,,,,,,,,,,,,,,,,,,,,,,,,,,,,,
,,559385f5fdf99b78e49c58e9,2022-09-08_13h33.40.049,CGTgamblingSpanTasks,2022.2.1,Win32,60.08171113,,,,,,,,,,,,,,,,,,,,,,,,,,,,,,,,,,,,,,,,,,,,,,,,,,,,,,,,,,,,return,11.579,,,,,,,,,,,,,,,,,,,,,,,,,,,,,,,,,,,,,,,,,,,,,,,,,,,,,,,,,,,,,,,,,,,,,,,,,,
,,559385f5fdf99b78e49c58e9,2022-09-08_13h33.40.049,CGTgamblingSpanTasks,2022.2.1,Win32,60.08171113,,,,,,,,,,,,,,,,,,,,,,,,,,,,,,,,,,,,,,,,,,,,,,,,,,,,,,,,,,,,,,342,1,0.044444444,-0.365740741,1,0,0,cont_buttonPractice,0,0,0,0,1,3,342,24,2,42,,,,,,,,,,,,,,,,,,,,,,,,,,,,,,,,,,,,,,,,,,,,,,,,,,,,,,,,
,,559385f5fdf99b78e49c58e9,2022-09-08_13h33.40.049,CGTgamblingSpanTasks,2022.2.1,Win32,60.08171113,,,,,,,,,,,,,,,,,,,,,,,,,,,,,,,,,,,,,,,,,,,,,,,,,,,,,,,,,,,,,,937,1,0.044444444,-0.407407407,1,0,0,cont_buttonPractice,0,1,1,1,1,3,937,73,2,37,,,,,,,,,,,,,,,,,,,,,,,,,,,,,,,,,,,,,,,,,,,,,,,,,,,,,,,,
,,559385f5fdf99b78e49c58e9,2022-09-08_13h33.40.049,CGTgamblingSpanTasks,2022.2.1,Win32,60.08171113,,,,,,,,,,,,,,,,,,,,,,,,,,,,,,,,,,,,,,,,,,,,,,,,,,,,,,,,,,,,,,,,,,,,,,,,,,,,,,,,return,7.8319,,,,,,,,,,,,,,,,,,,,,,,,,,,,,,,,,,,,,,,,,,,,,,,,,,,,,,
,,559385f5fdf99b78e49c58e9,2022-09-08_13h33.40.049,CGTgamblingSpanTasks,2022.2.1,Win32,60.08171113,,,,,,,,,,,,,,,,,,,,,,,,,,,,,,,,,,,,,,,,,,,,,,,,,,,,,,,,,,,,,,,,,,,,,,,,,,,,,,,,,,"[7,2,5]",0,0,0,0,1,,,,,,,,,,,,,,,,,,,,,,,,,,,,,,,,,,,,,,,,,,,,,,,,
,,559385f5fdf99b78e49c58e9,2022-09-08_13h33.40.049,CGTgamblingSpanTasks,2022.2.1,Win32,60.08171113,,,,,,,,,,,,,,,,,,,,,,,,,,,,,,,,,,,,,,,,,,,,,,,,,,,,,,,,,,,,,,,,,,,,,,,,,,,,,,,,,,"[7,2,5]",1,0,1,0,1,,,,,,,,,,,,,,,,,,,,,,,,,,,,,,,,,,,,,,,,,,,,,,,,
,,559385f5fdf99b78e49c58e9,2022-09-08_13h33.40.049,CGTgamblingSpanTasks,2022.2.1,Win32,60.08171113,,,,,,,,,,,,,,,,,,,,,,,,,,,,,,,,,,,,,,,,,,,,,,,,,,,,,,,,,,,,,,,,,,,,,,,,,,,,,,,,,,"[7,2,5]",2,0,2,0,1,,,,,,,,,,,,,,,,,,,,,,,,,,,,,,,,,,,,,,,,,,,,,,,,
,,559385f5fdf99b78e49c58e9,2022-09-08_13h33.40.049,CGTgamblingSpanTasks,2022.2.1,Win32,60.08171113,,,,,,,,,,,,,,,,,,,,,,,,,,,,,,,,,,,,,,,,,,,,,,,,,,,,,,,,,,,,,,,1,,,,,,,,,,,,,,,,,,,,,,,,,725,0.046296296,-0.400925926,1,0,0,cont_button,0,0,0,0,1,1,,,,,,,,,,,,,,,,,,,,,,,,,,,,,,,,,,,
,,559385f5fdf99b78e49c58e9,2022-09-08_13h33.40.049,CGTgamblingSpanTasks,2022.2.1,Win32,60.08171113,,,,,,,,,,,,,,,,,,,,,,,,,,,,,,,,,,,,,,,,,,,,,,,,,,,,,,,,,,,,,,,,,,,,,,,,,,,,,,,,,,"[1,9,8,3]",0,0,0,0,1,,,,,,,,,,,,,,,,,,,,,,,,,,,,,,,,,,,,,,,,,,,,,,,,
,,559385f5fdf99b78e49c58e9,2022-09-08_13h33.40.049,CGTgamblingSpanTasks,2022.2.1,Win32,60.08171113,,,,,,,,,,,,,,,,,,,,,,,,,,,,,,,,,,,,,,,,,,,,,,,,,,,,,,,,,,,,,,,,,,,,,,,,,,,,,,,,,,"[1,9,8,3]",1,0,1,0,1,,,,,,,,,,,,,,,,,,,,,,,,,,,,,,,,,,,,,,,,,,,,,,,,
,,559385f5fdf99b78e49c58e9,2022-09-08_13h33.40.049,CGTgamblingSpanTasks,2022.2.1,Win32,60.08171113,,,,,,,,,,,,,,,,,,,,,,,,,,,,,,,,,,,,,,,,,,,,,,,,,,,,,,,,,,,,,,,,,,,,,,,,,,,,,,,,,,"[1,9,8,3]",2,0,2,0,1,,,,,,,,,,,,,,,,,,,,,,,,,,,,,,,,,,,,,,,,,,,,,,,,
,,559385f5fdf99b78e49c58e9,2022-09-08_13h33.40.049,CGTgamblingSpanTasks,2022.2.1,Win32,60.08171113,,,,,,,,,,,,,,,,,,,,,,,,,,,,,,,,,,,,,,,,,,,,,,,,,,,,,,,,,,,,,,,,,,,,,,,,,,,,,,,,,,"[1,9,8,3]",3,0,3,0,1,,,,,,,,,,,,,,,,,,,,,,,,,,,,,,,,,,,,,,,,,,,,,,,,
,,559385f5fdf99b78e49c58e9,2022-09-08_13h33.40.049,CGTgamblingSpanTasks,2022.2.1,Win32,60.08171113,,,,,,,,,,,,,,,,,,,,,,,,,,,,,,,,,,,,,,,,,,,,,,,,,,,,,,,,,,,,,,,1,,,,,,,,,,,,,,,,,,,,,,,,,1983,0.046296296,-0.400925926,1,0,0,cont_button,0,1,1,1,1,2,,,,,,,,,,,,,,,,,,,,,,,,,,,,,,,,,,,
,,559385f5fdf99b78e49c58e9,2022-09-08_13h33.40.049,CGTgamblingSpanTasks,2022.2.1,Win32,60.08171113,,,,,,,,,,,,,,,,,,,,,,,,,,,,,,,,,,,,,,,,,,,,,,,,,,,,,,,,,,,,,,,,,,,,,,,,,,,,,,,,,,"[4,3,9,5,2]",0,0,0,0,1,,,,,,,,,,,,,,,,,,,,,,,,,,,,,,,,,,,,,,,,,,,,,,,,
,,559385f5fdf99b78e49c58e9,2022-09-08_13h33.40.049,CGTgamblingSpanTasks,2022.2.1,Win32,60.08171113,,,,,,,,,,,,,,,,,,,,,,,,,,,,,,,,,,,,,,,,,,,,,,,,,,,,,,,,,,,,,,,,,,,,,,,,,,,,,,,,,,"[4,3,9,5,2]",1,0,1,0,1,,,,,,,,,,,,,,,,,,,,,,,,,,,,,,,,,,,,,,,,,,,,,,,,
,,559385f5fdf99b78e49c58e9,2022-09-08_13h33.40.049,CGTgamblingSpanTasks,2022.2.1,Win32,60.08171113,,,,,,,,,,,,,,,,,,,,,,,,,,,,,,,,,,,,,,,,,,,,,,,,,,,,,,,,,,,,,,,,,,,,,,,,,,,,,,,,,,"[4,3,9,5,2]",2,0,2,0,1,,,,,,,,,,,,,,,,,,,,,,,,,,,,,,,,,,,,,,,,,,,,,,,,
,,559385f5fdf99b78e49c58e9,2022-09-08_13h33.40.049,CGTgamblingSpanTasks,2022.2.1,Win32,60.08171113,,,,,,,,,,,,,,,,,,,,,,,,,,,,,,,,,,,,,,,,,,,,,,,,,,,,,,,,,,,,,,,,,,,,,,,,,,,,,,,,,,"[4,3,9,5,2]",3,0,3,0,1,,,,,,,,,,,,,,,,,,,,,,,,,,,,,,,,,,,,,,,,,,,,,,,,
,,559385f5fdf99b78e49c58e9,2022-09-08_13h33.40.049,CGTgamblingSpanTasks,2022.2.1,Win32,60.08171113,,,,,,,,,,,,,,,,,,,,,,,,,,,,,,,,,,,,,,,,,,,,,,,,,,,,,,,,,,,,,,,,,,,,,,,,,,,,,,,,,,"[4,3,9,5,2]",4,0,4,0,1,,,,,,,,,,,,,,,,,,,,,,,,,,,,,,,,,,,,,,,,,,,,,,,,
,,559385f5fdf99b78e49c58e9,2022-09-08_13h33.40.049,CGTgamblingSpanTasks,2022.2.1,Win32,60.08171113,,,,,,,,,,,,,,,,,,,,,,,,,,,,,,,,,,,,,,,,,,,,,,,,,,,,,,,,,,,,,,,1,,,,,,,,,,,,,,,,,,,,,,,,,43952,0.033333333,-0.402777778,1,0,0,cont_button,0,2,2,2,1,3,,,,,,,,,,,,,,,,,,,,,,,,,,,,,,,,,,,
,,559385f5fdf99b78e49c58e9,2022-09-08_13h33.40.049,CGTgamblingSpanTasks,2022.2.1,Win32,60.08171113,,,,,,,,,,,,,,,,,,,,,,,,,,,,,,,,,,,,,,,,,,,,,,,,,,,,,,,,,,,,,,,,,,,,,,,,,,,,,,,,,,"[1,7,4,2,8,5]",0,0,0,0,1,,,,,,,,,,,,,,,,,,,,,,,,,,,,,,,,,,,,,,,,,,,,,,,,
,,559385f5fdf99b78e49c58e9,2022-09-08_13h33.40.049,CGTgamblingSpanTasks,2022.2.1,Win32,60.08171113,,,,,,,,,,,,,,,,,,,,,,,,,,,,,,,,,,,,,,,,,,,,,,,,,,,,,,,,,,,,,,,,,,,,,,,,,,,,,,,,,,"[1,7,4,2,8,5]",1,0,1,0,1,,,,,,,,,,,,,,,,,,,,,,,,,,,,,,,,,,,,,,,,,,,,,,,,
,,559385f5fdf99b78e49c58e9,2022-09-08_13h33.40.049,CGTgamblingSpanTasks,2022.2.1,Win32,60.08171113,,,,,,,,,,,,,,,,,,,,,,,,,,,,,,,,,,,,,,,,,,,,,,,,,,,,,,,,,,,,,,,,,,,,,,,,,,,,,,,,,,"[1,7,4,2,8,5]",2,0,2,0,1,,,,,,,,,,,,,,,,,,,,,,,,,,,,,,,,,,,,,,,,,,,,,,,,
,,559385f5fdf99b78e49c58e9,2022-09-08_13h33.40.049,CGTgamblingSpanTasks,2022.2.1,Win32,60.08171113,,,,,,,,,,,,,,,,,,,,,,,,,,,,,,,,,,,,,,,,,,,,,,,,,,,,,,,,,,,,,,,,,,,,,,,,,,,,,,,,,,"[1,7,4,2,8,5]",3,0,3,0,1,,,,,,,,,,,,,,,,,,,,,,,,,,,,,,,,,,,,,,,,,,,,,,,,
,,559385f5fdf99b78e49c58e9,2022-09-08_13h33.40.049,CGTgamblingSpanTasks,2022.2.1,Win32,60.08171113,,,,,,,,,,,,,,,,,,,,,,,,,,,,,,,,,,,,,,,,,,,,,,,,,,,,,,,,,,,,,,,,,,,,,,,,,,,,,,,,,,"[1,7,4,2,8,5]",4,0,4,0,1,,,,,,,,,,,,,,,,,,,,,,,,,,,,,,,,,,,,,,,,,,,,,,,,
,,559385f5fdf99b78e49c58e9,2022-09-08_13h33.40.049,CGTgamblingSpanTasks,2022.2.1,Win32,60.08171113,,,,,,,,,,,,,,,,,,,,,,,,,,,,,,,,,,,,,,,,,,,,,,,,,,,,,,,,,,,,,,,,,,,,,,,,,,,,,,,,,,"[1,7,4,2,8,5]",5,0,5,0,1,,,,,,,,,,,,,,,,,,,,,,,,,,,,,,,,,,,,,,,,,,,,,,,,
,,559385f5fdf99b78e49c58e9,2022-09-08_13h33.40.049,CGTgamblingSpanTasks,2022.2.1,Win32,60.08171113,,,,,,,,,,,,,,,,,,,,,,,,,,,,,,,,,,,,,,,,,,,,,,,,,,,,,,,,,,,,,,,1,,,,,,,,,,,,,,,,,,,,,,,,,174285,0.060185185,-0.397222222,1,0,0,cont_button,0,3,3,3,1,4,,,,,,,,,,,,,,,,,,,,,,,,,,,,,,,,,,,
,,559385f5fdf99b78e49c58e9,2022-09-08_13h33.40.049,CGTgamblingSpanTasks,2022.2.1,Win32,60.08171113,,,,,,,,,,,,,,,,,,,,,,,,,,,,,,,,,,,,,,,,,,,,,,,,,,,,,,,,,,,,,,,,,,,,,,,,,,,,,,,,,,"[2,5,7,3,8,9,4]",0,0,0,0,1,,,,,,,,,,,,,,,,,,,,,,,,,,,,,,,,,,,,,,,,,,,,,,,,
,,559385f5fdf99b78e49c58e9,2022-09-08_13h33.40.049,CGTgamblingSpanTasks,2022.2.1,Win32,60.08171113,,,,,,,,,,,,,,,,,,,,,,,,,,,,,,,,,,,,,,,,,,,,,,,,,,,,,,,,,,,,,,,,,,,,,,,,,,,,,,,,,,"[2,5,7,3,8,9,4]",1,0,1,0,1,,,,,,,,,,,,,,,,,,,,,,,,,,,,,,,,,,,,,,,,,,,,,,,,
,,559385f5fdf99b78e49c58e9,2022-09-08_13h33.40.049,CGTgamblingSpanTasks,2022.2.1,Win32,60.08171113,,,,,,,,,,,,,,,,,,,,,,,,,,,,,,,,,,,,,,,,,,,,,,,,,,,,,,,,,,,,,,,,,,,,,,,,,,,,,,,,,,"[2,5,7,3,8,9,4]",2,0,2,0,1,,,,,,,,,,,,,,,,,,,,,,,,,,,,,,,,,,,,,,,,,,,,,,,,
,,559385f5fdf99b78e49c58e9,2022-09-08_13h33.40.049,CGTgamblingSpanTasks,2022.2.1,Win32,60.08171113,,,,,,,,,,,,,,,,,,,,,,,,,,,,,,,,,,,,,,,,,,,,,,,,,,,,,,,,,,,,,,,,,,,,,,,,,,,,,,,,,,"[2,5,7,3,8,9,4]",3,0,3,0,1,,,,,,,,,,,,,,,,,,,,,,,,,,,,,,,,,,,,,,,,,,,,,,,,
,,559385f5fdf99b78e49c58e9,2022-09-08_13h33.40.049,CGTgamblingSpanTasks,2022.2.1,Win32,60.08171113,,,,,,,,,,,,,,,,,,,,,,,,,,,,,,,,,,,,,,,,,,,,,,,,,,,,,,,,,,,,,,,,,,,,,,,,,,,,,,,,,,"[2,5,7,3,8,9,4]",4,0,4,0,1,,,,,,,,,,,,,,,,,,,,,,,,,,,,,,,,,,,,,,,,,,,,,,,,
,,559385f5fdf99b78e49c58e9,2022-09-08_13h33.40.049,CGTgamblingSpanTasks,2022.2.1,Win32,60.08171113,,,,,,,,,,,,,,,,,,,,,,,,,,,,,,,,,,,,,,,,,,,,,,,,,,,,,,,,,,,,,,,,,,,,,,,,,,,,,,,,,,"[2,5,7,3,8,9,4]",5,0,5,0,1,,,,,,,,,,,,,,,,,,,,,,,,,,,,,,,,,,,,,,,,,,,,,,,,
,,559385f5fdf99b78e49c58e9,2022-09-08_13h33.40.049,CGTgamblingSpanTasks,2022.2.1,Win32,60.08171113,,,,,,,,,,,,,,,,,,,,,,,,,,,,,,,,,,,,,,,,,,,,,,,,,,,,,,,,,,,,,,,,,,,,,,,,,,,,,,,,,,"[2,5,7,3,8,9,4]",6,0,6,0,1,,,,,,,,,,,,,,,,,,,,,,,,,,,,,,,,,,,,,,,,,,,,,,,,
,,559385f5fdf99b78e49c58e9,2022-09-08_13h33.40.049,CGTgamblingSpanTasks,2022.2.1,Win32,60.08171113,,,,,,,,,,,,,,,,,,,,,,,,,,,,,,,,,,,,,,,,,,,,,,,,,,,,,,,,,,,,,,,1,,,,,,,,,,,,,,,,,,,,,,,,,2573894,0.088888889,-0.391666667,1,0,0,cont_button,0,4,4,4,1,5,,,,,,,,,,,,,,,,,,,,,,,,,,,,,,,,,,,
,,559385f5fdf99b78e49c58e9,2022-09-08_13h33.40.049,CGTgamblingSpanTasks,2022.2.1,Win32,60.08171113,,,,,,,,,,,,,,,,,,,,,,,,,,,,,,,,,,,,,,,,,,,,,,,,,,,,,,,,,,,,,,,,,,,,,,,,,,,,,,,,,,"[8,5,6,4,7,1,9,3]",0,0,0,0,1,,,,,,,,,,,,,,,,,,,,,,,,,,,,,,,,,,,,,,,,,,,,,,,,
,,559385f5fdf99b78e49c58e9,2022-09-08_13h33.40.049,CGTgamblingSpanTasks,2022.2.1,Win32,60.08171113,,,,,,,,,,,,,,,,,,,,,,,,,,,,,,,,,,,,,,,,,,,,,,,,,,,,,,,,,,,,,,,,,,,,,,,,,,,,,,,,,,"[8,5,6,4,7,1,9,3]",1,0,1,0,1,,,,,,,,,,,,,,,,,,,,,,,,,,,,,,,,,,,,,,,,,,,,,,,,
,,559385f5fdf99b78e49c58e9,2022-09-08_13h33.40.049,CGTgamblingSpanTasks,2022.2.1,Win32,60.08171113,,,,,,,,,,,,,,,,,,,,,,,,,,,,,,,,,,,,,,,,,,,,,,,,,,,,,,,,,,,,,,,,,,,,,,,,,,,,,,,,,,"[8,5,6,4,7,1,9,3]",2,0,2,0,1,,,,,,,,,,,,,,,,,,,,,,,,,,,,,,,,,,,,,,,,,,,,,,,,
,,559385f5fdf99b78e49c58e9,2022-09-08_13h33.40.049,CGTgamblingSpanTasks,2022.2.1,Win32,60.08171113,,,,,,,,,,,,,,,,,,,,,,,,,,,,,,,,,,,,,,,,,,,,,,,,,,,,,,,,,,,,,,,,,,,,,,,,,,,,,,,,,,"[8,5,6,4,7,1,9,3]",3,0,3,0,1,,,,,,,,,,,,,,,,,,,,,,,,,,,,,,,,,,,,,,,,,,,,,,,,
,,559385f5fdf99b78e49c58e9,2022-09-08_13h33.40.049,CGTgamblingSpanTasks,2022.2.1,Win32,60.08171113,,,,,,,,,,,,,,,,,,,,,,,,,,,,,,,,,,,,,,,,,,,,,,,,,,,,,,,,,,,,,,,,,,,,,,,,,,,,,,,,,,"[8,5,6,4,7,1,9,3]",4,0,4,0,1,,,,,,,,,,,,,,,,,,,,,,,,,,,,,,,,,,,,,,,,,,,,,,,,
,,559385f5fdf99b78e49c58e9,2022-09-08_13h33.40.049,CGTgamblingSpanTasks,2022.2.1,Win32,60.08171113,,,,,,,,,,,,,,,,,,,,,,,,,,,,,,,,,,,,,,,,,,,,,,,,,,,,,,,,,,,,,,,,,,,,,,,,,,,,,,,,,,"[8,5,6,4,7,1,9,3]",5,0,5,0,1,,,,,,,,,,,,,,,,,,,,,,,,,,,,,,,,,,,,,,,,,,,,,,,,
,,559385f5fdf99b78e49c58e9,2022-09-08_13h33.40.049,CGTgamblingSpanTasks,2022.2.1,Win32,60.08171113,,,,,,,,,,,,,,,,,,,,,,,,,,,,,,,,,,,,,,,,,,,,,,,,,,,,,,,,,,,,,,,,,,,,,,,,,,,,,,,,,,"[8,5,6,4,7,1,9,3]",6,0,6,0,1,,,,,,,,,,,,,,,,,,,,,,,,,,,,,,,,,,,,,,,,,,,,,,,,
,,559385f5fdf99b78e49c58e9,2022-09-08_13h33.40.049,CGTgamblingSpanTasks,2022.2.1,Win32,60.08171113,,,,,,,,,,,,,,,,,,,,,,,,,,,,,,,,,,,,,,,,,,,,,,,,,,,,,,,,,,,,,,,,,,,,,,,,,,,,,,,,,,"[8,5,6,4,7,1,9,3]",7,0,7,0,1,,,,,,,,,,,,,,,,,,,,,,,,,,,,,,,,,,,,,,,,,,,,,,,,
,,559385f5fdf99b78e49c58e9,2022-09-08_13h33.40.049,CGTgamblingSpanTasks,2022.2.1,Win32,60.08171113,,,,,,,,,,,,,,,,,,,,,,,,,,,,,,,,,,,,,,,,,,,,,,,,,,,,,,,,,,,,,,,1,,,,,,,,,,,,,,,,,,,,,,,,,85647193,0.02962963,-0.39537037,1,0,0,cont_button,0,5,5,5,1,6,,,,,,,,,,,,,,,,,,,,,,,,,,,,,,,,,,,
,,559385f5fdf99b78e49c58e9,2022-09-08_13h33.40.049,CGTgamblingSpanTasks,2022.2.1,Win32,60.08171113,,,,,,,,,,,,,,,,,,,,,,,,,,,,,,,,,,,,,,,,,,,,,,,,,,,,,,,,,,,,,,,,,,,,,,,,,,,,,,,,,,"[1,2,7,3,5,4,8,9,6]",0,0,0,0,1,,,,,,,,,,,,,,,,,,,,,,,,,,,,,,,,,,,,,,,,,,,,,,,,
,,559385f5fdf99b78e49c58e9,2022-09-08_13h33.40.049,CGTgamblingSpanTasks,2022.2.1,Win32,60.08171113,,,,,,,,,,,,,,,,,,,,,,,,,,,,,,,,,,,,,,,,,,,,,,,,,,,,,,,,,,,,,,,,,,,,,,,,,,,,,,,,,,"[1,2,7,3,5,4,8,9,6]",1,0,1,0,1,,,,,,,,,,,,,,,,,,,,,,,,,,,,,,,,,,,,,,,,,,,,,,,,
,,559385f5fdf99b78e49c58e9,2022-09-08_13h33.40.049,CGTgamblingSpanTasks,2022.2.1,Win32,60.08171113,,,,,,,,,,,,,,,,,,,,,,,,,,,,,,,,,,,,,,,,,,,,,,,,,,,,,,,,,,,,,,,,,,,,,,,,,,,,,,,,,,"[1,2,7,3,5,4,8,9,6]",2,0,2,0,1,,,,,,,,,,,,,,,,,,,,,,,,,,,,,,,,,,,,,,,,,,,,,,,,
,,559385f5fdf99b78e49c58e9,2022-09-08_13h33.40.049,CGTgamblingSpanTasks,2022.2.1,Win32,60.08171113,,,,,,,,,,,,,,,,,,,,,,,,,,,,,,,,,,,,,,,,,,,,,,,,,,,,,,,,,,,,,,,,,,,,,,,,,,,,,,,,,,"[1,2,7,3,5,4,8,9,6]",3,0,3,0,1,,,,,,,,,,,,,,,,,,,,,,,,,,,,,,,,,,,,,,,,,,,,,,,,
,,559385f5fdf99b78e49c58e9,2022-09-08_13h33.40.049,CGTgamblingSpanTasks,2022.2.1,Win32,60.08171113,,,,,,,,,,,,,,,,,,,,,,,,,,,,,,,,,,,,,,,,,,,,,,,,,,,,,,,,,,,,,,,,,,,,,,,,,,,,,,,,,,"[1,2,7,3,5,4,8,9,6]",4,0,4,0,1,,,,,,,,,,,,,,,,,,,,,,,,,,,,,,,,,,,,,,,,,,,,,,,,
,,559385f5fdf99b78e49c58e9,2022-09-08_13h33.40.049,CGTgamblingSpanTasks,2022.2.1,Win32,60.08171113,,,,,,,,,,,,,,,,,,,,,,,,,,,,,,,,,,,,,,,,,,,,,,,,,,,,,,,,,,,,,,,,,,,,,,,,,,,,,,,,,,"[1,2,7,3,5,4,8,9,6]",5,0,5,0,1,,,,,,,,,,,,,,,,,,,,,,,,,,,,,,,,,,,,,,,,,,,,,,,,
,,559385f5fdf99b78e49c58e9,2022-09-08_13h33.40.049,CGTgamblingSpanTasks,2022.2.1,Win32,60.08171113,,,,,,,,,,,,,,,,,,,,,,,,,,,,,,,,,,,,,,,,,,,,,,,,,,,,,,,,,,,,,,,,,,,,,,,,,,,,,,,,,,"[1,2,7,3,5,4,8,9,6]",6,0,6,0,1,,,,,,,,,,,,,,,,,,,,,,,,,,,,,,,,,,,,,,,,,,,,,,,,
,,559385f5fdf99b78e49c58e9,2022-09-08_13h33.40.049,CGTgamblingSpanTasks,2022.2.1,Win32,60.08171113,,,,,,,,,,,,,,,,,,,,,,,,,,,,,,,,,,,,,,,,,,,,,,,,,,,,,,,,,,,,,,,,,,,,,,,,,,,,,,,,,,"[1,2,7,3,5,4,8,9,6]",7,0,7,0,1,,,,,,,,,,,,,,,,,,,,,,,,,,,,,,,,,,,,,,,,,,,,,,,,
,,559385f5fdf99b78e49c58e9,2022-09-08_13h33.40.049,CGTgamblingSpanTasks,2022.2.1,Win32,60.08171113,,,,,,,,,,,,,,,,,,,,,,,,,,,,,,,,,,,,,,,,,,,,,,,,,,,,,,,,,,,,,,,,,,,,,,,,,,,,,,,,,,"[1,2,7,3,5,4,8,9,6]",8,0,8,0,1,,,,,,,,,,,,,,,,,,,,,,,,,,,,,,,,,,,,,,,,,,,,,,,,
,,559385f5fdf99b78e49c58e9,2022-09-08_13h33.40.049,CGTgamblingSpanTasks,2022.2.1,Win32,60.08171113,,,,,,,,,,,,,,,,,,,,,,,,,,,,,,,,,,,,,,,,,,,,,,,,,,,,,,,,,,,,,,,0,,,,,,,,,,,,,,,,,,,,,,,,,127853469,0.021296296,-0.390740741,1,0,0,cont_button,0,6,6,6,1,7,,,,,,,,,,,,,,,,,,,,,,,,,,,,,,,,,,,
,,559385f5fdf99b78e49c58e9,2022-09-08_13h33.40.049,CGTgamblingSpanTasks,2022.2.1,Win32,60.08171113,,,,,,,,,,,,,,,,,,,,,,,,,,,,,,,,,,,,,,,,,,,,,,,,,,,,,,,,,,,,,,,,,,,,,,,,,,,,,,,,,,"[7,1,8,5,2,3,9,6,4]",0,0,0,0,1,,,,,,,,,,,,,,,,,,,,,,,,,,,,,,,,,,,,,,,,,,,,,,,,
,,559385f5fdf99b78e49c58e9,2022-09-08_13h33.40.049,CGTgamblingSpanTasks,2022.2.1,Win32,60.08171113,,,,,,,,,,,,,,,,,,,,,,,,,,,,,,,,,,,,,,,,,,,,,,,,,,,,,,,,,,,,,,,,,,,,,,,,,,,,,,,,,,"[7,1,8,5,2,3,9,6,4]",1,0,1,0,1,,,,,,,,,,,,,,,,,,,,,,,,,,,,,,,,,,,,,,,,,,,,,,,,
,,559385f5fdf99b78e49c58e9,2022-09-08_13h33.40.049,CGTgamblingSpanTasks,2022.2.1,Win32,60.08171113,,,,,,,,,,,,,,,,,,,,,,,,,,,,,,,,,,,,,,,,,,,,,,,,,,,,,,,,,,,,,,,,,,,,,,,,,,,,,,,,,,"[7,1,8,5,2,3,9,6,4]",2,0,2,0,1,,,,,,,,,,,,,,,,,,,,,,,,,,,,,,,,,,,,,,,,,,,,,,,,
,,559385f5fdf99b78e49c58e9,2022-09-08_13h33.40.049,CGTgamblingSpanTasks,2022.2.1,Win32,60.08171113,,,,,,,,,,,,,,,,,,,,,,,,,,,,,,,,,,,,,,,,,,,,,,,,,,,,,,,,,,,,,,,,,,,,,,,,,,,,,,,,,,"[7,1,8,5,2,3,9,6,4]",3,0,3,0,1,,,,,,,,,,,,,,,,,,,,,,,,,,,,,,,,,,,,,,,,,,,,,,,,
,,559385f5fdf99b78e49c58e9,2022-09-08_13h33.40.049,CGTgamblingSpanTasks,2022.2.1,Win32,60.08171113,,,,,,,,,,,,,,,,,,,,,,,,,,,,,,,,,,,,,,,,,,,,,,,,,,,,,,,,,,,,,,,,,,,,,,,,,,,,,,,,,,"[7,1,8,5,2,3,9,6,4]",4,0,4,0,1,,,,,,,,,,,,,,,,,,,,,,,,,,,,,,,,,,,,,,,,,,,,,,,,
,,559385f5fdf99b78e49c58e9,2022-09-08_13h33.40.049,CGTgamblingSpanTasks,2022.2.1,Win32,60.08171113,,,,,,,,,,,,,,,,,,,,,,,,,,,,,,,,,,,,,,,,,,,,,,,,,,,,,,,,,,,,,,,,,,,,,,,,,,,,,,,,,,"[7,1,8,5,2,3,9,6,4]",5,0,5,0,1,,,,,,,,,,,,,,,,,,,,,,,,,,,,,,,,,,,,,,,,,,,,,,,,
,,559385f5fdf99b78e49c58e9,2022-09-08_13h33.40.049,CGTgamblingSpanTasks,2022.2.1,Win32,60.08171113,,,,,,,,,,,,,,,,,,,,,,,,,,,,,,,,,,,,,,,,,,,,,,,,,,,,,,,,,,,,,,,,,,,,,,,,,,,,,,,,,,"[7,1,8,5,2,3,9,6,4]",6,0,6,0,1,,,,,,,,,,,,,,,,,,,,,,,,,,,,,,,,,,,,,,,,,,,,,,,,
,,559385f5fdf99b78e49c58e9,2022-09-08_13h33.40.049,CGTgamblingSpanTasks,2022.2.1,Win32,60.08171113,,,,,,,,,,,,,,,,,,,,,,,,,,,,,,,,,,,,,,,,,,,,,,,,,,,,,,,,,,,,,,,,,,,,,,,,,,,,,,,,,,"[7,1,8,5,2,3,9,6,4]",7,0,7,0,1,,,,,,,,,,,,,,,,,,,,,,,,,,,,,,,,,,,,,,,,,,,,,,,,
,,559385f5fdf99b78e49c58e9,2022-09-08_13h33.40.049,CGTgamblingSpanTasks,2022.2.1,Win32,60.08171113,,,,,,,,,,,,,,,,,,,,,,,,,,,,,,,,,,,,,,,,,,,,,,,,,,,,,,,,,,,,,,,,,,,,,,,,,,,,,,,,,,"[7,1,8,5,2,3,9,6,4]",8,0,8,0,1,,,,,,,,,,,,,,,,,,,,,,,,,,,,,,,,,,,,,,,,,,,,,,,,
,,559385f5fdf99b78e49c58e9,2022-09-08_13h33.40.049,CGTgamblingSpanTasks,2022.2.1,Win32,60.08171113,,,,,,,,,,,,,,,,,,,,,,,,,,,,,,,,,,,,,,,,,,,,,,,,,,,,,,,,,,,,,,,1,,,,,,,,,,,,,,,,,,,,,,,,,718523964,0.025,-0.385185185,1,0,0,cont_button,0,7,7,7,1,8,,,,,,,,,,,,,,,,,,,,,,,,,,,,,,,,,,,
,,559385f5fdf99b78e49c58e9,2022-09-08_13h33.40.049,CGTgamblingSpanTasks,2022.2.1,Win32,60.08171113,,,,,,,,,,,,,,,,,,,,,,,,,,,,,,,,,,,,,,,,,,,,,,,,,,,,,,,,,,,,,,,,,,,,,,,,,,,,,,,,,,"[3,8,5,4,9,1,6,2,7,7]",0,0,0,0,1,,,,,,,,,,,,,,,,,,,,,,,,,,,,,,,,,,,,,,,,,,,,,,,,
,,559385f5fdf99b78e49c58e9,2022-09-08_13h33.40.049,CGTgamblingSpanTasks,2022.2.1,Win32,60.08171113,,,,,,,,,,,,,,,,,,,,,,,,,,,,,,,,,,,,,,,,,,,,,,,,,,,,,,,,,,,,,,,,,,,,,,,,,,,,,,,,,,"[3,8,5,4,9,1,6,2,7,7]",1,0,1,0,1,,,,,,,,,,,,,,,,,,,,,,,,,,,,,,,,,,,,,,,,,,,,,,,,
,,559385f5fdf99b78e49c58e9,2022-09-08_13h33.40.049,CGTgamblingSpanTasks,2022.2.1,Win32,60.08171113,,,,,,,,,,,,,,,,,,,,,,,,,,,,,,,,,,,,,,,,,,,,,,,,,,,,,,,,,,,,,,,,,,,,,,,,,,,,,,,,,,"[3,8,5,4,9,1,6,2,7,7]",2,0,2,0,1,,,,,,,,,,,,,,,,,,,,,,,,,,,,,,,,,,,,,,,,,,,,,,,,
,,559385f5fdf99b78e49c58e9,2022-09-08_13h33.40.049,CGTgamblingSpanTasks,2022.2.1,Win32,60.08171113,,,,,,,,,,,,,,,,,,,,,,,,,,,,,,,,,,,,,,,,,,,,,,,,,,,,,,,,,,,,,,,,,,,,,,,,,,,,,,,,,,"[3,8,5,4,9,1,6,2,7,7]",3,0,3,0,1,,,,,,,,,,,,,,,,,,,,,,,,,,,,,,,,,,,,,,,,,,,,,,,,
,,559385f5fdf99b78e49c58e9,2022-09-08_13h33.40.049,CGTgamblingSpanTasks,2022.2.1,Win32,60.08171113,,,,,,,,,,,,,,,,,,,,,,,,,,,,,,,,,,,,,,,,,,,,,,,,,,,,,,,,,,,,,,,,,,,,,,,,,,,,,,,,,,"[3,8,5,4,9,1,6,2,7,7]",4,0,4,0,1,,,,,,,,,,,,,,,,,,,,,,,,,,,,,,,,,,,,,,,,,,,,,,,,
,,559385f5fdf99b78e49c58e9,2022-09-08_13h33.40.049,CGTgamblingSpanTasks,2022.2.1,Win32,60.08171113,,,,,,,,,,,,,,,,,,,,,,,,,,,,,,,,,,,,,,,,,,,,,,,,,,,,,,,,,,,,,,,,,,,,,,,,,,,,,,,,,,"[3,8,5,4,9,1,6,2,7,7]",5,0,5,0,1,,,,,,,,,,,,,,,,,,,,,,,,,,,,,,,,,,,,,,,,,,,,,,,,
,,559385f5fdf99b78e49c58e9,2022-09-08_13h33.40.049,CGTgamblingSpanTasks,2022.2.1,Win32,60.08171113,,,,,,,,,,,,,,,,,,,,,,,,,,,,,,,,,,,,,,,,,,,,,,,,,,,,,,,,,,,,,,,,,,,,,,,,,,,,,,,,,,"[3,8,5,4,9,1,6,2,7,7]",6,0,6,0,1,,,,,,,,,,,,,,,,,,,,,,,,,,,,,,,,,,,,,,,,,,,,,,,,
,,559385f5fdf99b78e49c58e9,2022-09-08_13h33.40.049,CGTgamblingSpanTasks,2022.2.1,Win32,60.08171113,,,,,,,,,,,,,,,,,,,,,,,,,,,,,,,,,,,,,,,,,,,,,,,,,,,,,,,,,,,,,,,,,,,,,,,,,,,,,,,,,,"[3,8,5,4,9,1,6,2,7,7]",7,0,7,0,1,,,,,,,,,,,,,,,,,,,,,,,,,,,,,,,,,,,,,,,,,,,,,,,,
,,559385f5fdf99b78e49c58e9,2022-09-08_13h33.40.049,CGTgamblingSpanTasks,2022.2.1,Win32,60.08171113,,,,,,,,,,,,,,,,,,,,,,,,,,,,,,,,,,,,,,,,,,,,,,,,,,,,,,,,,,,,,,,,,,,,,,,,,,,,,,,,,,"[3,8,5,4,9,1,6,2,7,7]",8,0,8,0,1,,,,,,,,,,,,,,,,,,,,,,,,,,,,,,,,,,,,,,,,,,,,,,,,
,,559385f5fdf99b78e49c58e9,2022-09-08_13h33.40.049,CGTgamblingSpanTasks,2022.2.1,Win32,60.08171113,,,,,,,,,,,,,,,,,,,,,,,,,,,,,,,,,,,,,,,,,,,,,,,,,,,,,,,,,,,,,,,,,,,,,,,,,,,,,,,,,,"[3,8,5,4,9,1,6,2,7,7]",9,0,9,0,1,,,,,,,,,,,,,,,,,,,,,,,,,,,,,,,,,,,,,,,,,,,,,,,,
,,559385f5fdf99b78e49c58e9,2022-09-08_13h33.40.049,CGTgamblingSpanTasks,2022.2.1,Win32,60.08171113,,,,,,,,,,,,,,,,,,,,,,,,,,,,,,,,,,,,,,,,,,,,,,,,,,,,,,,,,,,,,,,1,,,,,,,,,,,,,,,,,,,,,,,,,3854916277,0.048148148,-0.394444444,1,0,0,cont_button,0,8,8,8,1,9,,,,,,,,,,,,,,,,,,,,,,,,,,,,,,,,,,,
,,559385f5fdf99b78e49c58e9,2022-09-08_13h33.40.049,CGTgamblingSpanTasks,2022.2.1,Win32,60.08171113,,,,,,,,,,,,,,,,,,,,,,,,,,,,,,,,,,,,,,,,,,,,,,,,,,,,,,,,,,,,,,,,,,,,,,,,,,,,,,,,,,"[4,1,6,3,9,2,7,5,8,8,7]",0,0,0,0,1,,,,,,,,,,,,,,,,,,,,,,,,,,,,,,,,,,,,,,,,,,,,,,,,
,,559385f5fdf99b78e49c58e9,2022-09-08_13h33.40.049,CGTgamblingSpanTasks,2022.2.1,Win32,60.08171113,,,,,,,,,,,,,,,,,,,,,,,,,,,,,,,,,,,,,,,,,,,,,,,,,,,,,,,,,,,,,,,,,,,,,,,,,,,,,,,,,,"[4,1,6,3,9,2,7,5,8,8,7]",1,0,1,0,1,,,,,,,,,,,,,,,,,,,,,,,,,,,,,,,,,,,,,,,,,,,,,,,,
,,559385f5fdf99b78e49c58e9,2022-09-08_13h33.40.049,CGTgamblingSpanTasks,2022.2.1,Win32,60.08171113,,,,,,,,,,,,,,,,,,,,,,,,,,,,,,,,,,,,,,,,,,,,,,,,,,,,,,,,,,,,,,,,,,,,,,,,,,,,,,,,,,"[4,1,6,3,9,2,7,5,8,8,7]",2,0,2,0,1,,,,,,,,,,,,,,,,,,,,,,,,,,,,,,,,,,,,,,,,,,,,,,,,
,,559385f5fdf99b78e49c58e9,2022-09-08_13h33.40.049,CGTgamblingSpanTasks,2022.2.1,Win32,60.08171113,,,,,,,,,,,,,,,,,,,,,,,,,,,,,,,,,,,,,,,,,,,,,,,,,,,,,,,,,,,,,,,,,,,,,,,,,,,,,,,,,,"[4,1,6,3,9,2,7,5,8,8,7]",3,0,3,0,1,,,,,,,,,,,,,,,,,,,,,,,,,,,,,,,,,,,,,,,,,,,,,,,,
,,559385f5fdf99b78e49c58e9,2022-09-08_13h33.40.049,CGTgamblingSpanTasks,2022.2.1,Win32,60.08171113,,,,,,,,,,,,,,,,,,,,,,,,,,,,,,,,,,,,,,,,,,,,,,,,,,,,,,,,,,,,,,,,,,,,,,,,,,,,,,,,,,"[4,1,6,3,9,2,7,5,8,8,7]",4,0,4,0,1,,,,,,,,,,,,,,,,,,,,,,,,,,,,,,,,,,,,,,,,,,,,,,,,
,,559385f5fdf99b78e49c58e9,2022-09-08_13h33.40.049,CGTgamblingSpanTasks,2022.2.1,Win32,60.08171113,,,,,,,,,,,,,,,,,,,,,,,,,,,,,,,,,,,,,,,,,,,,,,,,,,,,,,,,,,,,,,,,,,,,,,,,,,,,,,,,,,"[4,1,6,3,9,2,7,5,8,8,7]",5,0,5,0,1,,,,,,,,,,,,,,,,,,,,,,,,,,,,,,,,,,,,,,,,,,,,,,,,
,,559385f5fdf99b78e49c58e9,2022-09-08_13h33.40.049,CGTgamblingSpanTasks,2022.2.1,Win32,60.08171113,,,,,,,,,,,,,,,,,,,,,,,,,,,,,,,,,,,,,,,,,,,,,,,,,,,,,,,,,,,,,,,,,,,,,,,,,,,,,,,,,,"[4,1,6,3,9,2,7,5,8,8,7]",6,0,6,0,1,,,,,,,,,,,,,,,,,,,,,,,,,,,,,,,,,,,,,,,,,,,,,,,,
,,559385f5fdf99b78e49c58e9,2022-09-08_13h33.40.049,CGTgamblingSpanTasks,2022.2.1,Win32,60.08171113,,,,,,,,,,,,,,,,,,,,,,,,,,,,,,,,,,,,,,,,,,,,,,,,,,,,,,,,,,,,,,,,,,,,,,,,,,,,,,,,,,"[4,1,6,3,9,2,7,5,8,8,7]",7,0,7,0,1,,,,,,,,,,,,,,,,,,,,,,,,,,,,,,,,,,,,,,,,,,,,,,,,
,,559385f5fdf99b78e49c58e9,2022-09-08_13h33.40.049,CGTgamblingSpanTasks,2022.2.1,Win32,60.08171113,,,,,,,,,,,,,,,,,,,,,,,,,,,,,,,,,,,,,,,,,,,,,,,,,,,,,,,,,,,,,,,,,,,,,,,,,,,,,,,,,,"[4,1,6,3,9,2,7,5,8,8,7]",8,0,8,0,1,,,,,,,,,,,,,,,,,,,,,,,,,,,,,,,,,,,,,,,,,,,,,,,,
,,559385f5fdf99b78e49c58e9,2022-09-08_13h33.40.049,CGTgamblingSpanTasks,2022.2.1,Win32,60.08171113,,,,,,,,,,,,,,,,,,,,,,,,,,,,,,,,,,,,,,,,,,,,,,,,,,,,,,,,,,,,,,,,,,,,,,,,,,,,,,,,,,"[4,1,6,3,9,2,7,5,8,8,7]",9,0,9,0,1,,,,,,,,,,,,,,,,,,,,,,,,,,,,,,,,,,,,,,,,,,,,,,,,
,,559385f5fdf99b78e49c58e9,2022-09-08_13h33.40.049,CGTgamblingSpanTasks,2022.2.1,Win32,60.08171113,,,,,,,,,,,,,,,,,,,,,,,,,,,,,,,,,,,,,,,,,,,,,,,,,,,,,,,,,,,,,,,,,,,,,,,,,,,,,,,,,,"[4,1,6,3,9,2,7,5,8,8,7]",10,0,10,0,1,,,,,,,,,,,,,,,,,,,,,,,,,,,,,,,,,,,,,,,,,,,,,,,,
,,559385f5fdf99b78e49c58e9,2022-09-08_13h33.40.049,CGTgamblingSpanTasks,2022.2.1,Win32,60.08171113,,,,,,,,,,,,,,,,,,,,,,,,,,,,,,,,,,,,,,,,,,,,,,,,,,,,,,,,,,,,,,,0,,,,,,,,,,,,,,,,,,,,,,,,,4967825787,0.071296296,-0.412037037,1,0,0,cont_button,0,9,9,9,1,10,,,,,,,,,,,,,,,,,,,,,,,,,,,,,,,,,,,
,,559385f5fdf99b78e49c58e9,2022-09-08_13h33.40.049,CGTgamblingSpanTasks,2022.2.1,Win32,60.08171113,,,,,,,,,,,,,,,,,,,,,,,,,,,,,,,,,,,,,,,,,,,,,,,,,,,,,,,,,,,,,,,,,,,,,,,,,,,,,,,,,,"[2,7,5,4,9,1,6,8,3,3,2]",0,0,0,0,1,,,,,,,,,,,,,,,,,,,,,,,,,,,,,,,,,,,,,,,,,,,,,,,,
,,559385f5fdf99b78e49c58e9,2022-09-08_13h33.40.049,CGTgamblingSpanTasks,2022.2.1,Win32,60.08171113,,,,,,,,,,,,,,,,,,,,,,,,,,,,,,,,,,,,,,,,,,,,,,,,,,,,,,,,,,,,,,,,,,,,,,,,,,,,,,,,,,"[2,7,5,4,9,1,6,8,3,3,2]",1,0,1,0,1,,,,,,,,,,,,,,,,,,,,,,,,,,,,,,,,,,,,,,,,,,,,,,,,
,,559385f5fdf99b78e49c58e9,2022-09-08_13h33.40.049,CGTgamblingSpanTasks,2022.2.1,Win32,60.08171113,,,,,,,,,,,,,,,,,,,,,,,,,,,,,,,,,,,,,,,,,,,,,,,,,,,,,,,,,,,,,,,,,,,,,,,,,,,,,,,,,,"[2,7,5,4,9,1,6,8,3,3,2]",2,0,2,0,1,,,,,,,,,,,,,,,,,,,,,,,,,,,,,,,,,,,,,,,,,,,,,,,,
,,559385f5fdf99b78e49c58e9,2022-09-08_13h33.40.049,CGTgamblingSpanTasks,2022.2.1,Win32,60.08171113,,,,,,,,,,,,,,,,,,,,,,,,,,,,,,,,,,,,,,,,,,,,,,,,,,,,,,,,,,,,,,,,,,,,,,,,,,,,,,,,,,"[2,7,5,4,9,1,6,8,3,3,2]",3,0,3,0,1,,,,,,,,,,,,,,,,,,,,,,,,,,,,,,,,,,,,,,,,,,,,,,,,
,,559385f5fdf99b78e49c58e9,2022-09-08_13h33.40.049,CGTgamblingSpanTasks,2022.2.1,Win32,60.08171113,,,,,,,,,,,,,,,,,,,,,,,,,,,,,,,,,,,,,,,,,,,,,,,,,,,,,,,,,,,,,,,,,,,,,,,,,,,,,,,,,,"[2,7,5,4,9,1,6,8,3,3,2]",4,0,4,0,1,,,,,,,,,,,,,,,,,,,,,,,,,,,,,,,,,,,,,,,,,,,,,,,,
,,559385f5fdf99b78e49c58e9,2022-09-08_13h33.40.049,CGTgamblingSpanTasks,2022.2.1,Win32,60.08171113,,,,,,,,,,,,,,,,,,,,,,,,,,,,,,,,,,,,,,,,,,,,,,,,,,,,,,,,,,,,,,,,,,,,,,,,,,,,,,,,,,"[2,7,5,4,9,1,6,8,3,3,2]",5,0,5,0,1,,,,,,,,,,,,,,,,,,,,,,,,,,,,,,,,,,,,,,,,,,,,,,,,
,,559385f5fdf99b78e49c58e9,2022-09-08_13h33.40.049,CGTgamblingSpanTasks,2022.2.1,Win32,60.08171113,,,,,,,,,,,,,,,,,,,,,,,,,,,,,,,,,,,,,,,,,,,,,,,,,,,,,,,,,,,,,,,,,,,,,,,,,,,,,,,,,,"[2,7,5,4,9,1,6,8,3,3,2]",6,0,6,0,1,,,,,,,,,,,,,,,,,,,,,,,,,,,,,,,,,,,,,,,,,,,,,,,,
,,559385f5fdf99b78e49c58e9,2022-09-08_13h33.40.049,CGTgamblingSpanTasks,2022.2.1,Win32,60.08171113,,,,,,,,,,,,,,,,,,,,,,,,,,,,,,,,,,,,,,,,,,,,,,,,,,,,,,,,,,,,,,,,,,,,,,,,,,,,,,,,,,"[2,7,5,4,9,1,6,8,3,3,2]",7,0,7,0,1,,,,,,,,,,,,,,,,,,,,,,,,,,,,,,,,,,,,,,,,,,,,,,,,
,,559385f5fdf99b78e49c58e9,2022-09-08_13h33.40.049,CGTgamblingSpanTasks,2022.2.1,Win32,60.08171113,,,,,,,,,,,,,,,,,,,,,,,,,,,,,,,,,,,,,,,,,,,,,,,,,,,,,,,,,,,,,,,,,,,,,,,,,,,,,,,,,,"[2,7,5,4,9,1,6,8,3,3,2]",8,0,8,0,1,,,,,,,,,,,,,,,,,,,,,,,,,,,,,,,,,,,,,,,,,,,,,,,,
,,559385f5fdf99b78e49c58e9,2022-09-08_13h33.40.049,CGTgamblingSpanTasks,2022.2.1,Win32,60.08171113,,,,,,,,,,,,,,,,,,,,,,,,,,,,,,,,,,,,,,,,,,,,,,,,,,,,,,,,,,,,,,,,,,,,,,,,,,,,,,,,,,"[2,7,5,4,9,1,6,8,3,3,2]",9,0,9,0,1,,,,,,,,,,,,,,,,,,,,,,,,,,,,,,,,,,,,,,,,,,,,,,,,
,,559385f5fdf99b78e49c58e9,2022-09-08_13h33.40.049,CGTgamblingSpanTasks,2022.2.1,Win32,60.08171113,,,,,,,,,,,,,,,,,,,,,,,,,,,,,,,,,,,,,,,,,,,,,,,,,,,,,,,,,,,,,,,,,,,,,,,,,,,,,,,,,,"[2,7,5,4,9,1,6,8,3,3,2]",10,0,10,0,1,,,,,,,,,,,,,,,,,,,,,,,,,,,,,,,,,,,,,,,,,,,,,,,,
,,559385f5fdf99b78e49c58e9,2022-09-08_13h33.40.049,CGTgamblingSpanTasks,2022.2.1,Win32,60.08171113,,,,,,,,,,,,,,,,,,,,,,,,,,,,,,,,,,,,,,,,,,,,,,,,,,,,,,,,,,,,,,,0,,,,,,,,,,,,,,,,,,,,,,,,,279198485,-0.030555556,-0.381481481,1,0,0,cont_button,0,10,10,10,1,11,,,,,,,,,,,,,,,,,,,,,,,,,,,,,,,,,,,
,,559385f5fdf99b78e49c58e9,2022-09-08_13h33.40.049,CGTgamblingSpanTasks,2022.2.1,Win32,60.08171113,,,,,,,,,,,,,,,,,,,,,,,,,,,,,,,,,,,,,,,,,,,,,,,,,,,,,,,,,,,,,,,,,,,,,,,,,,,,,,,,,,"[8,3,4,6,2,1,7,9,5,5]",0,0,0,0,1,,,,,,,,,,,,,,,,,,,,,,,,,,,,,,,,,,,,,,,,,,,,,,,,
,,559385f5fdf99b78e49c58e9,2022-09-08_13h33.40.049,CGTgamblingSpanTasks,2022.2.1,Win32,60.08171113,,,,,,,,,,,,,,,,,,,,,,,,,,,,,,,,,,,,,,,,,,,,,,,,,,,,,,,,,,,,,,,,,,,,,,,,,,,,,,,,,,"[8,3,4,6,2,1,7,9,5,5]",1,0,1,0,1,,,,,,,,,,,,,,,,,,,,,,,,,,,,,,,,,,,,,,,,,,,,,,,,
,,559385f5fdf99b78e49c58e9,2022-09-08_13h33.40.049,CGTgamblingSpanTasks,2022.2.1,Win32,60.08171113,,,,,,,,,,,,,,,,,,,,,,,,,,,,,,,,,,,,,,,,,,,,,,,,,,,,,,,,,,,,,,,,,,,,,,,,,,,,,,,,,,"[8,3,4,6,2,1,7,9,5,5]",2,0,2,0,1,,,,,,,,,,,,,,,,,,,,,,,,,,,,,,,,,,,,,,,,,,,,,,,,
,,559385f5fdf99b78e49c58e9,2022-09-08_13h33.40.049,CGTgamblingSpanTasks,2022.2.1,Win32,60.08171113,,,,,,,,,,,,,,,,,,,,,,,,,,,,,,,,,,,,,,,,,,,,,,,,,,,,,,,,,,,,,,,,,,,,,,,,,,,,,,,,,,"[8,3,4,6,2,1,7,9,5,5]",3,0,3,0,1,,,,,,,,,,,,,,,,,,,,,,,,,,,,,,,,,,,,,,,,,,,,,,,,
,,559385f5fdf99b78e49c58e9,2022-09-08_13h33.40.049,CGTgamblingSpanTasks,2022.2.1,Win32,60.08171113,,,,,,,,,,,,,,,,,,,,,,,,,,,,,,,,,,,,,,,,,,,,,,,,,,,,,,,,,,,,,,,,,,,,,,,,,,,,,,,,,,"[8,3,4,6,2,1,7,9,5,5]",4,0,4,0,1,,,,,,,,,,,,,,,,,,,,,,,,,,,,,,,,,,,,,,,,,,,,,,,,
,,559385f5fdf99b78e49c58e9,2022-09-08_13h33.40.049,CGTgamblingSpanTasks,2022.2.1,Win32,60.08171113,,,,,,,,,,,,,,,,,,,,,,,,,,,,,,,,,,,,,,,,,,,,,,,,,,,,,,,,,,,,,,,,,,,,,,,,,,,,,,,,,,"[8,3,4,6,2,1,7,9,5,5]",5,0,5,0,1,,,,,,,,,,,,,,,,,,,,,,,,,,,,,,,,,,,,,,,,,,,,,,,,
,,559385f5fdf99b78e49c58e9,2022-09-08_13h33.40.049,CGTgamblingSpanTasks,2022.2.1,Win32,60.08171113,,,,,,,,,,,,,,,,,,,,,,,,,,,,,,,,,,,,,,,,,,,,,,,,,,,,,,,,,,,,,,,,,,,,,,,,,,,,,,,,,,"[8,3,4,6,2,1,7,9,5,5]",6,0,6,0,1,,,,,,,,,,,,,,,,,,,,,,,,,,,,,,,,,,,,,,,,,,,,,,,,
,,559385f5fdf99b78e49c58e9,2022-09-08_13h33.40.049,CGTgamblingSpanTasks,2022.2.1,Win32,60.08171113,,,,,,,,,,,,,,,,,,,,,,,,,,,,,,,,,,,,,,,,,,,,,,,,,,,,,,,,,,,,,,,,,,,,,,,,,,,,,,,,,,"[8,3,4,6,2,1,7,9,5,5]",7,0,7,0,1,,,,,,,,,,,,,,,,,,,,,,,,,,,,,,,,,,,,,,,,,,,,,,,,
,,559385f5fdf99b78e49c58e9,2022-09-08_13h33.40.049,CGTgamblingSpanTasks,2022.2.1,Win32,60.08171113,,,,,,,,,,,,,,,,,,,,,,,,,,,,,,,,,,,,,,,,,,,,,,,,,,,,,,,,,,,,,,,,,,,,,,,,,,,,,,,,,,"[8,3,4,6,2,1,7,9,5,5]",8,0,8,0,1,,,,,,,,,,,,,,,,,,,,,,,,,,,,,,,,,,,,,,,,,,,,,,,,
,,559385f5fdf99b78e49c58e9,2022-09-08_13h33.40.049,CGTgamblingSpanTasks,2022.2.1,Win32,60.08171113,,,,,,,,,,,,,,,,,,,,,,,,,,,,,,,,,,,,,,,,,,,,,,,,,,,,,,,,,,,,,,,,,,,,,,,,,,,,,,,,,,"[8,3,4,6,2,1,7,9,5,5]",9,0,9,0,1,,,,,,,,,,,,,,,,,,,,,,,,,,,,,,,,,,,,,,,,,,,,,,,,
,,559385f5fdf99b78e49c58e9,2022-09-08_13h33.40.049,CGTgamblingSpanTasks,2022.2.1,Win32,60.08171113,,,,,,,,,,,,,,,,,,,,,,,,,,,,,,,,,,,,,,,,,,,,,,,,,,,,,,,,,,,,,,,0,,,,,,,,,,,,,,,,,,,,,,,,,834621755,0.065740741,-0.401851852,1,0,0,cont_button,0,11,11,11,1,12,,,,,,,,,,,,,,,,,,,,,,,,,,,,,,,,,,,
,,559385f5fdf99b78e49c58e9,2022-09-08_13h33.40.049,CGTgamblingSpanTasks,2022.2.1,Win32,60.08171113,,,,,,,,,,,,,,,,,,,,,,,,,,,,,,,,,,,,,,,,,,,,,,,,,,,,,,,,,,,,,,,,,,,,,,,,,,,,,,,,,,"[5,2,4,7,8,3,9,1,6,6]",0,0,0,0,1,,,,,,,,,,,,,,,,,,,,,,,,,,,,,,,,,,,,,,,,,,,,,,,,
,,559385f5fdf99b78e49c58e9,2022-09-08_13h33.40.049,CGTgamblingSpanTasks,2022.2.1,Win32,60.08171113,,,,,,,,,,,,,,,,,,,,,,,,,,,,,,,,,,,,,,,,,,,,,,,,,,,,,,,,,,,,,,,,,,,,,,,,,,,,,,,,,,"[5,2,4,7,8,3,9,1,6,6]",1,0,1,0,1,,,,,,,,,,,,,,,,,,,,,,,,,,,,,,,,,,,,,,,,,,,,,,,,
,,559385f5fdf99b78e49c58e9,2022-09-08_13h33.40.049,CGTgamblingSpanTasks,2022.2.1,Win32,60.08171113,,,,,,,,,,,,,,,,,,,,,,,,,,,,,,,,,,,,,,,,,,,,,,,,,,,,,,,,,,,,,,,,,,,,,,,,,,,,,,,,,,"[5,2,4,7,8,3,9,1,6,6]",2,0,2,0,1,,,,,,,,,,,,,,,,,,,,,,,,,,,,,,,,,,,,,,,,,,,,,,,,
,,559385f5fdf99b78e49c58e9,2022-09-08_13h33.40.049,CGTgamblingSpanTasks,2022.2.1,Win32,60.08171113,,,,,,,,,,,,,,,,,,,,,,,,,,,,,,,,,,,,,,,,,,,,,,,,,,,,,,,,,,,,,,,,,,,,,,,,,,,,,,,,,,"[5,2,4,7,8,3,9,1,6,6]",3,0,3,0,1,,,,,,,,,,,,,,,,,,,,,,,,,,,,,,,,,,,,,,,,,,,,,,,,
,,559385f5fdf99b78e49c58e9,2022-09-08_13h33.40.049,CGTgamblingSpanTasks,2022.2.1,Win32,60.08171113,,,,,,,,,,,,,,,,,,,,,,,,,,,,,,,,,,,,,,,,,,,,,,,,,,,,,,,,,,,,,,,,,,,,,,,,,,,,,,,,,,"[5,2,4,7,8,3,9,1,6,6]",4,0,4,0,1,,,,,,,,,,,,,,,,,,,,,,,,,,,,,,,,,,,,,,,,,,,,,,,,
,,559385f5fdf99b78e49c58e9,2022-09-08_13h33.40.049,CGTgamblingSpanTasks,2022.2.1,Win32,60.08171113,,,,,,,,,,,,,,,,,,,,,,,,,,,,,,,,,,,,,,,,,,,,,,,,,,,,,,,,,,,,,,,,,,,,,,,,,,,,,,,,,,"[5,2,4,7,8,3,9,1,6,6]",5,0,5,0,1,,,,,,,,,,,,,,,,,,,,,,,,,,,,,,,,,,,,,,,,,,,,,,,,
,,559385f5fdf99b78e49c58e9,2022-09-08_13h33.40.049,CGTgamblingSpanTasks,2022.2.1,Win32,60.08171113,,,,,,,,,,,,,,,,,,,,,,,,,,,,,,,,,,,,,,,,,,,,,,,,,,,,,,,,,,,,,,,,,,,,,,,,,,,,,,,,,,"[5,2,4,7,8,3,9,1,6,6]",6,0,6,0,1,,,,,,,,,,,,,,,,,,,,,,,,,,,,,,,,,,,,,,,,,,,,,,,,
,,559385f5fdf99b78e49c58e9,2022-09-08_13h33.40.049,CGTgamblingSpanTasks,2022.2.1,Win32,60.08171113,,,,,,,,,,,,,,,,,,,,,,,,,,,,,,,,,,,,,,,,,,,,,,,,,,,,,,,,,,,,,,,,,,,,,,,,,,,,,,,,,,"[5,2,4,7,8,3,9,1,6,6]",7,0,7,0,1,,,,,,,,,,,,,,,,,,,,,,,,,,,,,,,,,,,,,,,,,,,,,,,,
,,559385f5fdf99b78e49c58e9,2022-09-08_13h33.40.049,CGTgamblingSpanTasks,2022.2.1,Win32,60.08171113,,,,,,,,,,,,,,,,,,,,,,,,,,,,,,,,,,,,,,,,,,,,,,,,,,,,,,,,,,,,,,,,,,,,,,,,,,,,,,,,,,"[5,2,4,7,8,3,9,1,6,6]",8,0,8,0,1,,,,,,,,,,,,,,,,,,,,,,,,,,,,,,,,,,,,,,,,,,,,,,,,
,,559385f5fdf99b78e49c58e9,2022-09-08_13h33.40.049,CGTgamblingSpanTasks,2022.2.1,Win32,60.08171113,,,,,,,,,,,,,,,,,,,,,,,,,,,,,,,,,,,,,,,,,,,,,,,,,,,,,,,,,,,,,,,,,,,,,,,,,,,,,,,,,,"[5,2,4,7,8,3,9,1,6,6]",9,0,9,0,1,,,,,,,,,,,,,,,,,,,,,,,,,,,,,,,,,,,,,,,,,,,,,,,,
,,559385f5fdf99b78e49c58e9,2022-09-08_13h33.40.049,CGTgamblingSpanTasks,2022.2.1,Win32,60.08171113,,,,,,,,,,,,,,,,,,,,,,,,,,,,,,,,,,,,,,,,,,,,,,,,,,,,,,,,,,,,,,,1,,,,,,,,,,,,,,,,,,,,,,,,,5247839166,0.014814815,-0.413888889,1,0,0,cont_button,0,12,12,12,1,13,,,,,,,,,,,,,,,,,,,,,,,,,,,,,,,,,,,
,,559385f5fdf99b78e49c58e9,2022-09-08_13h33.40.049,CGTgamblingSpanTasks,2022.2.1,Win32,60.08171113,,,,,,,,,,,,,,,,,,,,,,,,,,,,,,,,,,,,,,,,,,,,,,,,,,,,,,,,,,,,,,,,,,,,,,,,,,,,,,,,,,"[6,5,1,4,2,3,8,9,7,7,8]",0,0,0,0,1,,,,,,,,,,,,,,,,,,,,,,,,,,,,,,,,,,,,,,,,,,,,,,,,
,,559385f5fdf99b78e49c58e9,2022-09-08_13h33.40.049,CGTgamblingSpanTasks,2022.2.1,Win32,60.08171113,,,,,,,,,,,,,,,,,,,,,,,,,,,,,,,,,,,,,,,,,,,,,,,,,,,,,,,,,,,,,,,,,,,,,,,,,,,,,,,,,,"[6,5,1,4,2,3,8,9,7,7,8]",1,0,1,0,1,,,,,,,,,,,,,,,,,,,,,,,,,,,,,,,,,,,,,,,,,,,,,,,,
,,559385f5fdf99b78e49c58e9,2022-09-08_13h33.40.049,CGTgamblingSpanTasks,2022.2.1,Win32,60.08171113,,,,,,,,,,,,,,,,,,,,,,,,,,,,,,,,,,,,,,,,,,,,,,,,,,,,,,,,,,,,,,,,,,,,,,,,,,,,,,,,,,"[6,5,1,4,2,3,8,9,7,7,8]",2,0,2,0,1,,,,,,,,,,,,,,,,,,,,,,,,,,,,,,,,,,,,,,,,,,,,,,,,
,,559385f5fdf99b78e49c58e9,2022-09-08_13h33.40.049,CGTgamblingSpanTasks,2022.2.1,Win32,60.08171113,,,,,,,,,,,,,,,,,,,,,,,,,,,,,,,,,,,,,,,,,,,,,,,,,,,,,,,,,,,,,,,,,,,,,,,,,,,,,,,,,,"[6,5,1,4,2,3,8,9,7,7,8]",3,0,3,0,1,,,,,,,,,,,,,,,,,,,,,,,,,,,,,,,,,,,,,,,,,,,,,,,,
,,559385f5fdf99b78e49c58e9,2022-09-08_13h33.40.049,CGTgamblingSpanTasks,2022.2.1,Win32,60.08171113,,,,,,,,,,,,,,,,,,,,,,,,,,,,,,,,,,,,,,,,,,,,,,,,,,,,,,,,,,,,,,,,,,,,,,,,,,,,,,,,,,"[6,5,1,4,2,3,8,9,7,7,8]",4,0,4,0,1,,,,,,,,,,,,,,,,,,,,,,,,,,,,,,,,,,,,,,,,,,,,,,,,
,,559385f5fdf99b78e49c58e9,2022-09-08_13h33.40.049,CGTgamblingSpanTasks,2022.2.1,Win32,60.08171113,,,,,,,,,,,,,,,,,,,,,,,,,,,,,,,,,,,,,,,,,,,,,,,,,,,,,,,,,,,,,,,,,,,,,,,,,,,,,,,,,,"[6,5,1,4,2,3,8,9,7,7,8]",5,0,5,0,1,,,,,,,,,,,,,,,,,,,,,,,,,,,,,,,,,,,,,,,,,,,,,,,,
,,559385f5fdf99b78e49c58e9,2022-09-08_13h33.40.049,CGTgamblingSpanTasks,2022.2.1,Win32,60.08171113,,,,,,,,,,,,,,,,,,,,,,,,,,,,,,,,,,,,,,,,,,,,,,,,,,,,,,,,,,,,,,,,,,,,,,,,,,,,,,,,,,"[6,5,1,4,2,3,8,9,7,7,8]",6,0,6,0,1,,,,,,,,,,,,,,,,,,,,,,,,,,,,,,,,,,,,,,,,,,,,,,,,
,,559385f5fdf99b78e49c58e9,2022-09-08_13h33.40.049,CGTgamblingSpanTasks,2022.2.1,Win32,60.08171113,,,,,,,,,,,,,,,,,,,,,,,,,,,,,,,,,,,,,,,,,,,,,,,,,,,,,,,,,,,,,,,,,,,,,,,,,,,,,,,,,,"[6,5,1,4,2,3,8,9,7,7,8]",7,0,7,0,1,,,,,,,,,,,,,,,,,,,,,,,,,,,,,,,,,,,,,,,,,,,,,,,,
,,559385f5fdf99b78e49c58e9,2022-09-08_13h33.40.049,CGTgamblingSpanTasks,2022.2.1,Win32,60.08171113,,,,,,,,,,,,,,,,,,,,,,,,,,,,,,,,,,,,,,,,,,,,,,,,,,,,,,,,,,,,,,,,,,,,,,,,,,,,,,,,,,"[6,5,1,4,2,3,8,9,7,7,8]",8,0,8,0,1,,,,,,,,,,,,,,,,,,,,,,,,,,,,,,,,,,,,,,,,,,,,,,,,
,,559385f5fdf99b78e49c58e9,2022-09-08_13h33.40.049,CGTgamblingSpanTasks,2022.2.1,Win32,60.08171113,,,,,,,,,,,,,,,,,,,,,,,,,,,,,,,,,,,,,,,,,,,,,,,,,,,,,,,,,,,,,,,,,,,,,,,,,,,,,,,,,,"[6,5,1,4,2,3,8,9,7,7,8]",9,0,9,0,1,,,,,,,,,,,,,,,,,,,,,,,,,,,,,,,,,,,,,,,,,,,,,,,,
,,559385f5fdf99b78e49c58e9,2022-09-08_13h33.40.049,CGTgamblingSpanTasks,2022.2.1,Win32,60.08171113,,,,,,,,,,,,,,,,,,,,,,,,,,,,,,,,,,,,,,,,,,,,,,,,,,,,,,,,,,,,,,,,,,,,,,,,,,,,,,,,,,"[6,5,1,4,2,3,8,9,7,7,8]",10,0,10,0,1,,,,,,,,,,,,,,,,,,,,,,,,,,,,,,,,,,,,,,,,,,,,,,,,
,,559385f5fdf99b78e49c58e9,2022-09-08_13h33.40.049,CGTgamblingSpanTasks,2022.2.1,Win32,60.08171113,,,,,,,,,,,,,,,,,,,,,,,,,,,,,,,,,,,,,,,,,,,,,,,,,,,,,,,,,,,,,,,0,,,,,,,,,,,,,,,,,,,,,,,,,652143188,0.025925926,-0.378703704,1,0,0,cont_button,0,13,13,13,1,14,,,,,,,,,,,,,,,,,,,,,,,,,,,,,,,,,,,
,,559385f5fdf99b78e49c58e9,2022-09-08_13h33.40.049,CGTgamblingSpanTasks,2022.2.1,Win32,60.08171113,,,,,,,,,,,,,,,,,,,,,,,,,,,,,,,,,,,,,,,,,,,,,,,,,,,,,,,,,,,,,,,,,,,,,,,,,,,,,,,,,,,,,,,,,,,,,,,,,,,,,return,4.2398,,,,,,,,,,,,,,,,,,,,,,,,,,,,,,,,,
,,559385f5fdf99b78e49c58e9,2022-09-08_13h33.40.049,CGTgamblingSpanTasks,2022.2.1,Win32,60.08171113,,,,,,,,,,,,,,,,,,,,,,,,,,,,,,,,,,,,,,,,,,,,,,,,,,,,,,,,,,,,,,,,,,,,,,,,,,,,,,,,,,,,,,,,,,,,,,,,,,,,,,,return,3.7379,,,,,,,,,,,,,,,,,,,,,,,,,,,,,,,
,,559385f5fdf99b78e49c58e9,2022-09-08_13h33.40.049,CGTgamblingSpanTasks,2022.2.1,Win32,60.08171113,,,,,,,,,,,,,,,,,,,,,,,,,,,,,,,,,,,,,,,,,,,,,,,,,,,,,,,,,,,,,,,1,,,,,,,,,,,,3,342,24,2,42,,,,,,,,,,,,,,,,,,,,,,,,,,42,0.085185185,-0.413888889,1,0,0,cont_buttonPractice_2,0,0,0,0,1,,,,,,,,,,,,,,,,,,,
,,559385f5fdf99b78e49c58e9,2022-09-08_13h33.40.049,CGTgamblingSpanTasks,2022.2.1,Win32,60.08171113,,,,,,,,,,,,,,,,,,,,,,,,,,,,,,,,,,,,,,,,,,,,,,,,,,,,,,,,,,,,,,,1,,,,,,,,,,,,3,937,73,2,37,,,,,,,,,,,,,,,,,,,,,,,,,,37,0.041666667,-0.378703704,1,0,0,cont_buttonPractice_2,0,1,1,1,1,,,,,,,,,,,,,,,,,,,
,,559385f5fdf99b78e49c58e9,2022-09-08_13h33.40.049,CGTgamblingSpanTasks,2022.2.1,Win32,60.08171113,,,,,,,,,,,,,,,,,,,,,,,,,,,,,,,,,,,,,,,,,,,,,,,,,,,,,,,,,,,,,,,,,,,,,,,,,,,,,,,,,,,,,,,,,,,,,,,,,,,,,,,,,,,,,,,,,,,,,return,5.4236,,,,,,,,,,,,,,,,,
,,559385f5fdf99b78e49c58e9,2022-09-08_13h33.40.049,CGTgamblingSpanTasks,2022.2.1,Win32,60.08171113,,,,,,,,,,,,,,,,,,,,,,,,,,,,,,,,,,,,,,,,,,,,,,,,,,,,,,,,,,,,,,,,,,,,,,,,,,,,,,,,,,"[6,2]",,,,,,,,,,,,,,,,,,,,,,,,,,,,,,,,,,,,,0,0,0,0,1,,,,,,,,,,,,
,,559385f5fdf99b78e49c58e9,2022-09-08_13h33.40.049,CGTgamblingSpanTasks,2022.2.1,Win32,60.08171113,,,,,,,,,,,,,,,,,,,,,,,,,,,,,,,,,,,,,,,,,,,,,,,,,,,,,,,,,,,,,,,,,,,,,,,,,,,,,,,,,,"[6,2]",,,,,,,,,,,,,,,,,,,,,,,,,,,,,,,,,,,,,1,0,1,0,1,,,,,,,,,,,,
,,559385f5fdf99b78e49c58e9,2022-09-08_13h33.40.049,CGTgamblingSpanTasks,2022.2.1,Win32,60.08171113,,,,,,,,,,,,,,,,,,,,,,,,,,,,,,,,,,,,,,,,,,,,,,,,,,,,,,,,,,,,,,,1,,,,,,,,,,,,,,,,,,,,,,,,,,,,,,,,,,,,,1,,,,,,,,,,,,,,,,,,,,,,,,26,0.082407407,-0.37962963,1,0,0,cont_buttonBS,0,0,0,0,1
,,559385f5fdf99b78e49c58e9,2022-09-08_13h33.40.049,CGTgamblingSpanTasks,2022.2.1,Win32,60.08171113,,,,,,,,,,,,,,,,,,,,,,,,,,,,,,,,,,,,,,,,,,,,,,,,,,,,,,,,,,,,,,,,,,,,,,,,,,,,,,,,,,"[6,9,4]",,,,,,,,,,,,,,,,,,,,,,,,,,,,,,,,,,,,,0,0,0,0,1,,,,,,,,,,,,
,,559385f5fdf99b78e49c58e9,2022-09-08_13h33.40.049,CGTgamblingSpanTasks,2022.2.1,Win32,60.08171113,,,,,,,,,,,,,,,,,,,,,,,,,,,,,,,,,,,,,,,,,,,,,,,,,,,,,,,,,,,,,,,,,,,,,,,,,,,,,,,,,,"[6,9,4]",,,,,,,,,,,,,,,,,,,,,,,,,,,,,,,,,,,,,1,0,1,0,1,,,,,,,,,,,,
,,559385f5fdf99b78e49c58e9,2022-09-08_13h33.40.049,CGTgamblingSpanTasks,2022.2.1,Win32,60.08171113,,,,,,,,,,,,,,,,,,,,,,,,,,,,,,,,,,,,,,,,,,,,,,,,,,,,,,,,,,,,,,,,,,,,,,,,,,,,,,,,,,"[6,9,4]",,,,,,,,,,,,,,,,,,,,,,,,,,,,,,,,,,,,,2,0,2,0,1,,,,,,,,,,,,
,,559385f5fdf99b78e49c58e9,2022-09-08_13h33.40.049,CGTgamblingSpanTasks,2022.2.1,Win32,60.08171113,,,,,,,,,,,,,,,,,,,,,,,,,,,,,,,,,,,,,,,,,,,,,,,,,,,,,,,,,,,,,,,1,,,,,,,,,,,,,,,,,,,,,,,,,,,,,,,,,,,,,2,,,,,,,,,,,,,,,,,,,,,,,,496,0.037037037,-0.402777778,1,0,0,cont_buttonBS,0,1,1,1,1
,,559385f5fdf99b78e49c58e9,2022-09-08_13h33.40.049,CGTgamblingSpanTasks,2022.2.1,Win32,60.08171113,,,,,,,,,,,,,,,,,,,,,,,,,,,,,,,,,,,,,,,,,,,,,,,,,,,,,,,,,,,,,,,,,,,,,,,,,,,,,,,,,,"[7,2,8,4]",,,,,,,,,,,,,,,,,,,,,,,,,,,,,,,,,,,,,0,0,0,0,1,,,,,,,,,,,,
,,559385f5fdf99b78e49c58e9,2022-09-08_13h33.40.049,CGTgamblingSpanTasks,2022.2.1,Win32,60.08171113,,,,,,,,,,,,,,,,,,,,,,,,,,,,,,,,,,,,,,,,,,,,,,,,,,,,,,,,,,,,,,,,,,,,,,,,,,,,,,,,,,"[7,2,8,4]",,,,,,,,,,,,,,,,,,,,,,,,,,,,,,,,,,,,,1,0,1,0,1,,,,,,,,,,,,
,,559385f5fdf99b78e49c58e9,2022-09-08_13h33.40.049,CGTgamblingSpanTasks,2022.2.1,Win32,60.08171113,,,,,,,,,,,,,,,,,,,,,,,,,,,,,,,,,,,,,,,,,,,,,,,,,,,,,,,,,,,,,,,,,,,,,,,,,,,,,,,,,,"[7,2,8,4]",,,,,,,,,,,,,,,,,,,,,,,,,,,,,,,,,,,,,2,0,2,0,1,,,,,,,,,,,,
,,559385f5fdf99b78e49c58e9,2022-09-08_13h33.40.049,CGTgamblingSpanTasks,2022.2.1,Win32,60.08171113,,,,,,,,,,,,,,,,,,,,,,,,,,,,,,,,,,,,,,,,,,,,,,,,,,,,,,,,,,,,,,,,,,,,,,,,,,,,,,,,,,"[7,2,8,4]",,,,,,,,,,,,,,,,,,,,,,,,,,,,,,,,,,,,,3,0,3,0,1,,,,,,,,,,,,
,,559385f5fdf99b78e49c58e9,2022-09-08_13h33.40.049,CGTgamblingSpanTasks,2022.2.1,Win32,60.08171113,,,,,,,,,,,,,,,,,,,,,,,,,,,,,,,,,,,,,,,,,,,,,,,,,,,,,,,,,,,,,,,1,,,,,,,,,,,,,,,,,,,,,,,,,,,,,,,,,,,,,3,,,,,,,,,,,,,,,,,,,,,,,,4827,0.049074074,-0.42037037,1,0,0,cont_buttonBS,0,2,2,2,1
,,559385f5fdf99b78e49c58e9,2022-09-08_13h33.40.049,CGTgamblingSpanTasks,2022.2.1,Win32,60.08171113,,,,,,,,,,,,,,,,,,,,,,,,,,,,,,,,,,,,,,,,,,,,,,,,,,,,,,,,,,,,,,,,,,,,,,,,,,,,,,,,,,"[7,6,9,1,4]",,,,,,,,,,,,,,,,,,,,,,,,,,,,,,,,,,,,,0,0,0,0,1,,,,,,,,,,,,
,,559385f5fdf99b78e49c58e9,2022-09-08_13h33.40.049,CGTgamblingSpanTasks,2022.2.1,Win32,60.08171113,,,,,,,,,,,,,,,,,,,,,,,,,,,,,,,,,,,,,,,,,,,,,,,,,,,,,,,,,,,,,,,,,,,,,,,,,,,,,,,,,,"[7,6,9,1,4]",,,,,,,,,,,,,,,,,,,,,,,,,,,,,,,,,,,,,1,0,1,0,1,,,,,,,,,,,,
,,559385f5fdf99b78e49c58e9,2022-09-08_13h33.40.049,CGTgamblingSpanTasks,2022.2.1,Win32,60.08171113,,,,,,,,,,,,,,,,,,,,,,,,,,,,,,,,,,,,,,,,,,,,,,,,,,,,,,,,,,,,,,,,,,,,,,,,,,,,,,,,,,"[7,6,9,1,4]",,,,,,,,,,,,,,,,,,,,,,,,,,,,,,,,,,,,,2,0,2,0,1,,,,,,,,,,,,
,,559385f5fdf99b78e49c58e9,2022-09-08_13h33.40.049,CGTgamblingSpanTasks,2022.2.1,Win32,60.08171113,,,,,,,,,,,,,,,,,,,,,,,,,,,,,,,,,,,,,,,,,,,,,,,,,,,,,,,,,,,,,,,,,,,,,,,,,,,,,,,,,,"[7,6,9,1,4]",,,,,,,,,,,,,,,,,,,,,,,,,,,,,,,,,,,,,3,0,3,0,1,,,,,,,,,,,,
,,559385f5fdf99b78e49c58e9,2022-09-08_13h33.40.049,CGTgamblingSpanTasks,2022.2.1,Win32,60.08171113,,,,,,,,,,,,,,,,,,,,,,,,,,,,,,,,,,,,,,,,,,,,,,,,,,,,,,,,,,,,,,,,,,,,,,,,,,,,,,,,,,"[7,6,9,1,4]",,,,,,,,,,,,,,,,,,,,,,,,,,,,,,,,,,,,,4,0,4,0,1,,,,,,,,,,,,
,,559385f5fdf99b78e49c58e9,2022-09-08_13h33.40.049,CGTgamblingSpanTasks,2022.2.1,Win32,60.08171113,,,,,,,,,,,,,,,,,,,,,,,,,,,,,,,,,,,,,,,,,,,,,,,,,,,,,,,,,,,,,,,1,,,,,,,,,,,,,,,,,,,,,,,,,,,,,,,,,,,,,4,,,,,,,,,,,,,,,,,,,,,,,,41967,0.001851852,-0.419444444,1,0,0,cont_buttonBS,0,3,3,3,1
,,559385f5fdf99b78e49c58e9,2022-09-08_13h33.40.049,CGTgamblingSpanTasks,2022.2.1,Win32,60.08171113,,,,,,,,,,,,,,,,,,,,,,,,,,,,,,,,,,,,,,,,,,,,,,,,,,,,,,,,,,,,,,,,,,,,,,,,,,,,,,,,,,"[7,9,2,8,1,4]",,,,,,,,,,,,,,,,,,,,,,,,,,,,,,,,,,,,,0,0,0,0,1,,,,,,,,,,,,
,,559385f5fdf99b78e49c58e9,2022-09-08_13h33.40.049,CGTgamblingSpanTasks,2022.2.1,Win32,60.08171113,,,,,,,,,,,,,,,,,,,,,,,,,,,,,,,,,,,,,,,,,,,,,,,,,,,,,,,,,,,,,,,,,,,,,,,,,,,,,,,,,,"[7,9,2,8,1,4]",,,,,,,,,,,,,,,,,,,,,,,,,,,,,,,,,,,,,1,0,1,0,1,,,,,,,,,,,,
,,559385f5fdf99b78e49c58e9,2022-09-08_13h33.40.049,CGTgamblingSpanTasks,2022.2.1,Win32,60.08171113,,,,,,,,,,,,,,,,,,,,,,,,,,,,,,,,,,,,,,,,,,,,,,,,,,,,,,,,,,,,,,,,,,,,,,,,,,,,,,,,,,"[7,9,2,8,1,4]",,,,,,,,,,,,,,,,,,,,,,,,,,,,,,,,,,,,,2,0,2,0,1,,,,,,,,,,,,
,,559385f5fdf99b78e49c58e9,2022-09-08_13h33.40.049,CGTgamblingSpanTasks,2022.2.1,Win32,60.08171113,,,,,,,,,,,,,,,,,,,,,,,,,,,,,,,,,,,,,,,,,,,,,,,,,,,,,,,,,,,,,,,,,,,,,,,,,,,,,,,,,,"[7,9,2,8,1,4]",,,,,,,,,,,,,,,,,,,,,,,,,,,,,,,,,,,,,3,0,3,0,1,,,,,,,,,,,,
,,559385f5fdf99b78e49c58e9,2022-09-08_13h33.40.049,CGTgamblingSpanTasks,2022.2.1,Win32,60.08171113,,,,,,,,,,,,,,,,,,,,,,,,,,,,,,,,,,,,,,,,,,,,,,,,,,,,,,,,,,,,,,,,,,,,,,,,,,,,,,,,,,"[7,9,2,8,1,4]",,,,,,,,,,,,,,,,,,,,,,,,,,,,,,,,,,,,,4,0,4,0,1,,,,,,,,,,,,
,,559385f5fdf99b78e49c58e9,2022-09-08_13h33.40.049,CGTgamblingSpanTasks,2022.2.1,Win32,60.08171113,,,,,,,,,,,,,,,,,,,,,,,,,,,,,,,,,,,,,,,,,,,,,,,,,,,,,,,,,,,,,,,,,,,,,,,,,,,,,,,,,,"[7,9,2,8,1,4]",,,,,,,,,,,,,,,,,,,,,,,,,,,,,,,,,,,,,5,0,5,0,1,,,,,,,,,,,,
