initITIstatic,initITIdynamic,participant,date,expName,psychopyVersion,OS,frameRate,inst1.keys,inst1.rt,startPracResp.keys,startPracResp.rt,choice1.keys,choice1.rt,outcome,extraITI,trials.thisRepN,trials.thisTrialN,trials.thisN,trials.thisIndex,trials.ran,riskyGain,riskyLoss,alternative,isi,iti,loc,postPractResp.keys,postPractResp.rt,realloc,realChoice.keys,realChoice.rt,outcomes,choices,actualITI,init ITI,staticRDM.thisRepN,staticRDM.thisTrialN,staticRDM.thisN,staticRDM.thisIndex,staticRDM.ran,riskyoption1,riskyoption2,safeoption,ischecktrial,dynamicChoiceSetName,dynamicChoiceSetPath,bestRho,bestMu,trials_2.thisRepN,trials_2.thisTrialN,trials_2.thisN,trials_2.thisIndex,trials_2.ran,key_resp.keys,key_resp.rt,dynamicRDM.thisRepN,dynamicRDM.thisTrialN,dynamicRDM.thisN,dynamicRDM.thisIndex,dynamicRDM.ran,choiceP,easy0difficult1,stopBreak.keys,stopBreak.rt,movealong.keys,movealong.rt,startPractice.keys,startPractice.rt,textboxPractice.text,correct,mousePractice.x,mousePractice.y,mousePractice.leftButton,mousePractice.midButton,mousePractice.rightButton,mousePractice.clicked_name,trialFSPractice.thisRepN,trialFSPractice.thisTrialN,trialFSPractice.thisN,trialFSPractice.thisIndex,trialFSPractice.ran,digitSpanForward,digits,digitsReverse,digitSpanReverse,digitsReverseCorrAnswer,startFSreal.keys,startFSreal.rt,digitsForTrial,digitLoop.thisRepN,digitLoop.thisTrialN,digitLoop.thisN,digitLoop.thisIndex,digitLoop.ran,textbox.text,mouse_3.x,mouse_3.y,mouse_3.leftButton,mouse_3.midButton,mouse_3.rightButton,mouse_3.clicked_name,trialsFS.thisRepN,trialsFS.thisTrialN,trialsFS.thisN,trialsFS.thisIndex,trialsFS.ran,trialNumber,moveToBS.keys,moveToBS.rt,startBSprac.keys,startBSprac.rt,textboxPractice_2.text,mousePractice_2.x,mousePractice_2.y,mousePractice_2.leftButton,mousePractice_2.midButton,mousePractice_2.rightButton,mousePractice_2.clicked_name,trialsPracticeBS.thisRepN,trialsPracticeBS.thisTrialN,trialsPracticeBS.thisN,trialsPracticeBS.thisIndex,trialsPracticeBS.ran,startBSreal.keys,startBSreal.rt,digitLoopBS.thisRepN,digitLoopBS.thisTrialN,digitLoopBS.thisN,digitLoopBS.thisIndex,digitLoopBS.ran,textboxBS.text,mouseBS.x,mouseBS.y,mouseBS.leftButton,mouseBS.midButton,mouseBS.rightButton,mouseBS.clicked_name,trialsBS.thisRepN,trialsBS.thisTrialN,trialsBS.thisN,trialsBS.thisIndex,trialsBS.ran
"[1,1,1.5,1.5,1,1.5,1.5,1.5,1.5,1.5,1,1,1.5,1,1,1,1.5,1,1,1.5,1,1,1.5,1,1.5,1,1,1.5,1,1,1,1.5,1.5,1.5,1.5,1,1.5,1,1.5,1,1.5,1.5,1,1,1.5,1,1.5,1.5,1,1.5]","[1.5,1.5,1.5,1.5,1,1,1,1.5,1.5,1,1.5,1,1,1.5,1.5,1,1.5,1.5,1,1.5,1.5,1.5,1,1.5,1,1.5,1.5,1,1,1.5,1.5,1.5,1,1,1,1.5,1,1.5,1.5,1.5,1,1,1.5,1.5,1.5,1.5,1,1,1,1,1,1.5,1,1,1,1.5,1,1,1.5,1,1,1,1,1.5,1,1.5,1.5,1.5,1,1,1.5,1.5,1,1.5,1,1,1.5,1.5,1,1.5,1.5,1.5,1.5,1.5,1,1.5,1,1,1,1,1.5,1.5,1,1.5,1,1.5,1.5,1,1,1.5,1,1,1.5,1,1,1.5,1,1.5,1,1.5,1,1,1,1,1.5,1.5,1.5,1,1,1.5]",60fefe75aa12dfd51d3fbe4e,2022-09-08_11h53.51.875,CGTgamblingSpanTasks,2022.2.1,MacIntel,58.82352941,,,,,,,,,,,,,,,,,,,,,,,,,,,,,,,,,,,,,,,,,,,,,,,,,,,,,,,,,,,,,,,,,,,,,,,,,,,,,,,,,,,,,,,,,,,,,,,,,,,,,,,,,,,,,,,,,,,,,,,,,,,,,,,,,,,,,,,
,,60fefe75aa12dfd51d3fbe4e,2022-09-08_11h53.51.875,CGTgamblingSpanTasks,2022.2.1,MacIntel,58.82352941,return,7.418,,,,,,,,,,,,,,,,,,,,,,,,,,,,,,,,,,,,,,,,,,,,,,,,,,,,,,,,,,,,,,,,,,,,,,,,,,,,,,,,,,,,,,,,,,,,,,,,,,,,,,,,,,,,,,,,,,,,,,,,,,,,,,,,,,,,,
,,60fefe75aa12dfd51d3fbe4e,2022-09-08_11h53.51.875,CGTgamblingSpanTasks,2022.2.1,MacIntel,58.82352941,,,v,3.487,,,,,,,,,,,,,,,,,,,,,,,,,,,,,,,,,,,,,,,,,,,,,,,,,,,,,,,,,,,,,,,,,,,,,,,,,,,,,,,,,,,,,,,,,,,,,,,,,,,,,,,,,,,,,,,,,,,,,,,,,,,,,,,,,,,
,,60fefe75aa12dfd51d3fbe4e,2022-09-08_11h53.51.875,CGTgamblingSpanTasks,2022.2.1,MacIntel,58.82352941,,,,,v,1.685,18.23,2.315,0,0,0,0,1,18.23,0,9.45,2,1,1,,,,,,,,,,,,,,,,,,,,,,,,,,,,,,,,,,,,,,,,,,,,,,,,,,,,,,,,,,,,,,,,,,,,,,,,,,,,,,,,,,,,,,,,,,,,,,,,,,,,,,,,,,,,,,,,,,,,
,,60fefe75aa12dfd51d3fbe4e,2022-09-08_11h53.51.875,CGTgamblingSpanTasks,2022.2.1,MacIntel,58.82352941,,,,,n,1.19,35.16,2.81,0,1,1,1,1,53.27,0,35.16,1,1.5,1,,,,,,,,,,,,,,,,,,,,,,,,,,,,,,,,,,,,,,,,,,,,,,,,,,,,,,,,,,,,,,,,,,,,,,,,,,,,,,,,,,,,,,,,,,,,,,,,,,,,,,,,,,,,,,,,,,,,
,,60fefe75aa12dfd51d3fbe4e,2022-09-08_11h53.51.875,CGTgamblingSpanTasks,2022.2.1,MacIntel,58.82352941,,,,,n,1.81,8.27,2.19,0,2,2,2,1,8.27,0,1.15,1,1.5,2,,,,,,,,,,,,,,,,,,,,,,,,,,,,,,,,,,,,,,,,,,,,,,,,,,,,,,,,,,,,,,,,,,,,,,,,,,,,,,,,,,,,,,,,,,,,,,,,,,,,,,,,,,,,,,,,,,,,
,,60fefe75aa12dfd51d3fbe4e,2022-09-08_11h53.51.875,CGTgamblingSpanTasks,2022.2.1,MacIntel,58.82352941,,,,,v,0.892,45.88,3.108,0,3,3,3,1,45.88,0,40.41,3,1,1,,,,,,,,,,,,,,,,,,,,,,,,,,,,,,,,,,,,,,,,,,,,,,,,,,,,,,,,,,,,,,,,,,,,,,,,,,,,,,,,,,,,,,,,,,,,,,,,,,,,,,,,,,,,,,,,,,,,
,,60fefe75aa12dfd51d3fbe4e,2022-09-08_11h53.51.875,CGTgamblingSpanTasks,2022.2.1,MacIntel,58.82352941,,,,,v,1.308,11.96,2.692,0,4,4,4,1,21.56,0,11.96,1,1.5,2,,,,,,,,,,,,,,,,,,,,,,,,,,,,,,,,,,,,,,,,,,,,,,,,,,,,,,,,,,,,,,,,,,,,,,,,,,,,,,,,,,,,,,,,,,,,,,,,,,,,,,,,,,,,,,,,,,,,
,,60fefe75aa12dfd51d3fbe4e,2022-09-08_11h53.51.875,CGTgamblingSpanTasks,2022.2.1,MacIntel,58.82352941,,,,,,,,,,,,,,,,,,,,v,2.161,,,,,,,,,,,,,,,,,,,,,,,,,,,,,,,,,,,,,,,,,,,,,,,,,,,,,,,,,,,,,,,,,,,,,,,,,,,,,,,,,,,,,,,,,,,,,,,,,,,,,,,,,,,,,,,,,,
,,60fefe75aa12dfd51d3fbe4e,2022-09-08_11h53.51.875,CGTgamblingSpanTasks,2022.2.1,MacIntel,58.82352941,,,,,,,,2.766,,,,,,,,,,,,,,2,n,1.234,10.24,1,3.766,1,0,0,0,36,1,10.24,0,6.88,0,,,,,,,,,,,,,,,,,,,,,,,,,,,,,,,,,,,,,,,,,,,,,,,,,,,,,,,,,,,,,,,,,,,,,,,,,,,,,,,,,,,,,,,,,,,,,,,,,,
,,60fefe75aa12dfd51d3fbe4e,2022-09-08_11h53.51.875,CGTgamblingSpanTasks,2022.2.1,MacIntel,58.82352941,,,,,,,,2.933,,,,,,,,,,,,,,2,v,1.067,10.68,0,3.933,1,0,1,1,48,1,10.68,0,10.68,1,,,,,,,,,,,,,,,,,,,,,,,,,,,,,,,,,,,,,,,,,,,,,,,,,,,,,,,,,,,,,,,,,,,,,,,,,,,,,,,,,,,,,,,,,,,,,,,,,,
,,60fefe75aa12dfd51d3fbe4e,2022-09-08_11h53.51.875,CGTgamblingSpanTasks,2022.2.1,MacIntel,58.82352941,,,,,,,,2.693,,,,,,,,,,,,,,2,n,1.307,17.73,1,4.193,1.5,0,2,2,2,1,17.73,0,3.13,0,,,,,,,,,,,,,,,,,,,,,,,,,,,,,,,,,,,,,,,,,,,,,,,,,,,,,,,,,,,,,,,,,,,,,,,,,,,,,,,,,,,,,,,,,,,,,,,,,,
,,60fefe75aa12dfd51d3fbe4e,2022-09-08_11h53.51.875,CGTgamblingSpanTasks,2022.2.1,MacIntel,58.82352941,,,,,,,,2.888,,,,,,,,,,,,,,1,n,1.112,9.7,0,4.388,1.5,0,3,3,27,1,16.6,0,9.7,0,,,,,,,,,,,,,,,,,,,,,,,,,,,,,,,,,,,,,,,,,,,,,,,,,,,,,,,,,,,,,,,,,,,,,,,,,,,,,,,,,,,,,,,,,,,,,,,,,,
,,60fefe75aa12dfd51d3fbe4e,2022-09-08_11h53.51.875,CGTgamblingSpanTasks,2022.2.1,MacIntel,58.82352941,,,,,,,,2.842,,,,,,,,,,,,,,1,v,1.158,0,1,3.842,1,0,4,4,8,1,13.94,0,5.03,0,,,,,,,,,,,,,,,,,,,,,,,,,,,,,,,,,,,,,,,,,,,,,,,,,,,,,,,,,,,,,,,,,,,,,,,,,,,,,,,,,,,,,,,,,,,,,,,,,,
,,60fefe75aa12dfd51d3fbe4e,2022-09-08_11h53.51.875,CGTgamblingSpanTasks,2022.2.1,MacIntel,58.82352941,,,,,,,,2.574,,,,,,,,,,,,,,2,n,1.426,0,1,4.074,1.5,0,5,5,35,1,15.47,0,10.27,0,,,,,,,,,,,,,,,,,,,,,,,,,,,,,,,,,,,,,,,,,,,,,,,,,,,,,,,,,,,,,,,,,,,,,,,,,,,,,,,,,,,,,,,,,,,,,,,,,,
,,60fefe75aa12dfd51d3fbe4e,2022-09-08_11h53.51.875,CGTgamblingSpanTasks,2022.2.1,MacIntel,58.82352941,,,,,,,,2.725,,,,,,,,,,,,,,1,n,1.275,10.25,0,4.225,1.5,0,6,6,46,1,0,0,10.25,1,,,,,,,,,,,,,,,,,,,,,,,,,,,,,,,,,,,,,,,,,,,,,,,,,,,,,,,,,,,,,,,,,,,,,,,,,,,,,,,,,,,,,,,,,,,,,,,,,,
,,60fefe75aa12dfd51d3fbe4e,2022-09-08_11h53.51.875,CGTgamblingSpanTasks,2022.2.1,MacIntel,58.82352941,,,,,,,,2.65,,,,,,,,,,,,,,2,n,1.35,19.86,1,4.15,1.5,0,7,7,42,1,19.86,0,0,1,,,,,,,,,,,,,,,,,,,,,,,,,,,,,,,,,,,,,,,,,,,,,,,,,,,,,,,,,,,,,,,,,,,,,,,,,,,,,,,,,,,,,,,,,,,,,,,,,,
,,60fefe75aa12dfd51d3fbe4e,2022-09-08_11h53.51.875,CGTgamblingSpanTasks,2022.2.1,MacIntel,58.82352941,,,,,,,,2.907,,,,,,,,,,,,,,1,n,1.093,6.63,0,4.407,1.5,0,8,8,30,1,10.73,0,6.63,0,,,,,,,,,,,,,,,,,,,,,,,,,,,,,,,,,,,,,,,,,,,,,,,,,,,,,,,,,,,,,,,,,,,,,,,,,,,,,,,,,,,,,,,,,,,,,,,,,,
,,60fefe75aa12dfd51d3fbe4e,2022-09-08_11h53.51.875,CGTgamblingSpanTasks,2022.2.1,MacIntel,58.82352941,,,,,,,,2.775,,,,,,,,,,,,,,1,v,1.225,0,1,4.275,1.5,0,9,9,15,1,18.77,0,8.61,0,,,,,,,,,,,,,,,,,,,,,,,,,,,,,,,,,,,,,,,,,,,,,,,,,,,,,,,,,,,,,,,,,,,,,,,,,,,,,,,,,,,,,,,,,,,,,,,,,,
,,60fefe75aa12dfd51d3fbe4e,2022-09-08_11h53.51.875,CGTgamblingSpanTasks,2022.2.1,MacIntel,58.82352941,,,,,,,,3.007,,,,,,,,,,,,,,1,n,0.993,6.4,0,4.007,1,0,10,10,26,1,11.2,0,6.4,0,,,,,,,,,,,,,,,,,,,,,,,,,,,,,,,,,,,,,,,,,,,,,,,,,,,,,,,,,,,,,,,,,,,,,,,,,,,,,,,,,,,,,,,,,,,,,,,,,,
,,60fefe75aa12dfd51d3fbe4e,2022-09-08_11h53.51.875,CGTgamblingSpanTasks,2022.2.1,MacIntel,58.82352941,,,,,,,,3.075,,,,,,,,,,,,,,1,v,0.925,10.35,1,4.075,1,0,11,11,40,1,10.35,0,0,1,,,,,,,,,,,,,,,,,,,,,,,,,,,,,,,,,,,,,,,,,,,,,,,,,,,,,,,,,,,,,,,,,,,,,,,,,,,,,,,,,,,,,,,,,,,,,,,,,,
,,60fefe75aa12dfd51d3fbe4e,2022-09-08_11h53.51.875,CGTgamblingSpanTasks,2022.2.1,MacIntel,58.82352941,,,,,,,,2.993,,,,,,,,,,,,,,1,v,1.007,7.73,1,4.493,1.5,0,12,12,44,1,13.1,7.73,4.68,1,,,,,,,,,,,,,,,,,,,,,,,,,,,,,,,,,,,,,,,,,,,,,,,,,,,,,,,,,,,,,,,,,,,,,,,,,,,,,,,,,,,,,,,,,,,,,,,,,,
,,60fefe75aa12dfd51d3fbe4e,2022-09-08_11h53.51.875,CGTgamblingSpanTasks,2022.2.1,MacIntel,58.82352941,,,,,,,,2.676,,,,,,,,,,,,,,1,v,1.324,0,1,3.676,1,0,13,13,41,1,14.26,0,0,1,,,,,,,,,,,,,,,,,,,,,,,,,,,,,,,,,,,,,,,,,,,,,,,,,,,,,,,,,,,,,,,,,,,,,,,,,,,,,,,,,,,,,,,,,,,,,,,,,,
,,60fefe75aa12dfd51d3fbe4e,2022-09-08_11h53.51.875,CGTgamblingSpanTasks,2022.2.1,MacIntel,58.82352941,,,,,,,,2.685,,,,,,,,,,,,,,1,n,1.315,9.36,0,3.685,1,0,14,14,23,1,17.28,0,9.36,0,,,,,,,,,,,,,,,,,,,,,,,,,,,,,,,,,,,,,,,,,,,,,,,,,,,,,,,,,,,,,,,,,,,,,,,,,,,,,,,,,,,,,,,,,,,,,,,,,,
,,60fefe75aa12dfd51d3fbe4e,2022-09-08_11h53.51.875,CGTgamblingSpanTasks,2022.2.1,MacIntel,58.82352941,,,,,,,,3.075,,,,,,,,,,,,,,1,n,0.925,6.29,0,4.075,1,0,15,15,24,1,11.43,0,6.29,0,,,,,,,,,,,,,,,,,,,,,,,,,,,,,,,,,,,,,,,,,,,,,,,,,,,,,,,,,,,,,,,,,,,,,,,,,,,,,,,,,,,,,,,,,,,,,,,,,,
,,60fefe75aa12dfd51d3fbe4e,2022-09-08_11h53.51.875,CGTgamblingSpanTasks,2022.2.1,MacIntel,58.82352941,,,,,,,,2.874,,,,,,,,,,,,,,1,n,1.126,6.19,0,4.374,1.5,0,16,16,22,1,11.62,0,6.19,0,,,,,,,,,,,,,,,,,,,,,,,,,,,,,,,,,,,,,,,,,,,,,,,,,,,,,,,,,,,,,,,,,,,,,,,,,,,,,,,,,,,,,,,,,,,,,,,,,,
,,60fefe75aa12dfd51d3fbe4e,2022-09-08_11h53.51.875,CGTgamblingSpanTasks,2022.2.1,MacIntel,58.82352941,,,,,,,,2.922,,,,,,,,,,,,,,2,n,1.078,0,1,3.922,1,0,17,17,37,1,15.27,0,10.37,0,,,,,,,,,,,,,,,,,,,,,,,,,,,,,,,,,,,,,,,,,,,,,,,,,,,,,,,,,,,,,,,,,,,,,,,,,,,,,,,,,,,,,,,,,,,,,,,,,,
,,60fefe75aa12dfd51d3fbe4e,2022-09-08_11h53.51.875,CGTgamblingSpanTasks,2022.2.1,MacIntel,58.82352941,,,,,,,,2.774,,,,,,,,,,,,,,1,n,1.226,4,0,3.774,1,0,18,18,4,1,16,0,4,0,,,,,,,,,,,,,,,,,,,,,,,,,,,,,,,,,,,,,,,,,,,,,,,,,,,,,,,,,,,,,,,,,,,,,,,,,,,,,,,,,,,,,,,,,,,,,,,,,,
,,60fefe75aa12dfd51d3fbe4e,2022-09-08_11h53.51.875,CGTgamblingSpanTasks,2022.2.1,MacIntel,58.82352941,,,,,,,,2.657,,,,,,,,,,,,,,1,v,1.343,0,1,4.157,1.5,0,19,19,14,1,12.68,0,5.66,0,,,,,,,,,,,,,,,,,,,,,,,,,,,,,,,,,,,,,,,,,,,,,,,,,,,,,,,,,,,,,,,,,,,,,,,,,,,,,,,,,,,,,,,,,,,,,,,,,,
,,60fefe75aa12dfd51d3fbe4e,2022-09-08_11h53.51.875,CGTgamblingSpanTasks,2022.2.1,MacIntel,58.82352941,,,,,,,,3.134,,,,,,,,,,,,,,2,v,0.866,9.2,0,4.134,1,0,20,20,21,1,17.59,0,9.2,0,,,,,,,,,,,,,,,,,,,,,,,,,,,,,,,,,,,,,,,,,,,,,,,,,,,,,,,,,,,,,,,,,,,,,,,,,,,,,,,,,,,,,,,,,,,,,,,,,,
,,60fefe75aa12dfd51d3fbe4e,2022-09-08_11h53.51.875,CGTgamblingSpanTasks,2022.2.1,MacIntel,58.82352941,,,,,,,,2.809,,,,,,,,,,,,,,2,v,1.191,5.48,0,3.809,1,0,21,21,12,1,13.04,0,5.48,0,,,,,,,,,,,,,,,,,,,,,,,,,,,,,,,,,,,,,,,,,,,,,,,,,,,,,,,,,,,,,,,,,,,,,,,,,,,,,,,,,,,,,,,,,,,,,,,,,,
,,60fefe75aa12dfd51d3fbe4e,2022-09-08_11h53.51.875,CGTgamblingSpanTasks,2022.2.1,MacIntel,58.82352941,,,,,,,,2.958,,,,,,,,,,,,,,1,v,1.042,20.03,1,4.458,1.5,0,22,22,0,1,20.03,0,1.99,0,,,,,,,,,,,,,,,,,,,,,,,,,,,,,,,,,,,,,,,,,,,,,,,,,,,,,,,,,,,,,,,,,,,,,,,,,,,,,,,,,,,,,,,,,,,,,,,,,,
,,60fefe75aa12dfd51d3fbe4e,2022-09-08_11h53.51.875,CGTgamblingSpanTasks,2022.2.1,MacIntel,58.82352941,,,,,,,,3.057,,,,,,,,,,,,,,1,v,0.943,0,1,4.057,1,0,23,23,9,1,20.53,0,7.73,0,,,,,,,,,,,,,,,,,,,,,,,,,,,,,,,,,,,,,,,,,,,,,,,,,,,,,,,,,,,,,,,,,,,,,,,,,,,,,,,,,,,,,,,,,,,,,,,,,,
,,60fefe75aa12dfd51d3fbe4e,2022-09-08_11h53.51.875,CGTgamblingSpanTasks,2022.2.1,MacIntel,58.82352941,,,,,,,,2.856,,,,,,,,,,,,,,1,v,1.144,0,1,4.356,1.5,0,24,24,11,1,19.86,0,8.07,0,,,,,,,,,,,,,,,,,,,,,,,,,,,,,,,,,,,,,,,,,,,,,,,,,,,,,,,,,,,,,,,,,,,,,,,,,,,,,,,,,,,,,,,,,,,,,,,,,,
,,60fefe75aa12dfd51d3fbe4e,2022-09-08_11h53.51.875,CGTgamblingSpanTasks,2022.2.1,MacIntel,58.82352941,,,,,,,,2.959,,,,,,,,,,,,,,1,v,1.041,0,1,3.959,1,0,25,25,7,1,21.32,0,7.34,0,,,,,,,,,,,,,,,,,,,,,,,,,,,,,,,,,,,,,,,,,,,,,,,,,,,,,,,,,,,,,,,,,,,,,,,,,,,,,,,,,,,,,,,,,,,,,,,,,,
,,60fefe75aa12dfd51d3fbe4e,2022-09-08_11h53.51.875,CGTgamblingSpanTasks,2022.2.1,MacIntel,58.82352941,,,,,,,,2.808,,,,,,,,,,,,,,2,n,1.192,16.26,1,3.808,1,0,26,26,29,1,16.26,0,9.87,0,,,,,,,,,,,,,,,,,,,,,,,,,,,,,,,,,,,,,,,,,,,,,,,,,,,,,,,,,,,,,,,,,,,,,,,,,,,,,,,,,,,,,,,,,,,,,,,,,,
,,60fefe75aa12dfd51d3fbe4e,2022-09-08_11h53.51.875,CGTgamblingSpanTasks,2022.2.1,MacIntel,58.82352941,,,,,,,,2.858,,,,,,,,,,,,,,2,n,1.142,0,1,4.358,1.5,0,27,27,5,1,22.97,0,6.51,0,,,,,,,,,,,,,,,,,,,,,,,,,,,,,,,,,,,,,,,,,,,,,,,,,,,,,,,,,,,,,,,,,,,,,,,,,,,,,,,,,,,,,,,,,,,,,,,,,,
,,60fefe75aa12dfd51d3fbe4e,2022-09-08_11h53.51.875,CGTgamblingSpanTasks,2022.2.1,MacIntel,58.82352941,,,,,,,,3.104,,,,,,,,,,,,,,2,n,0.896,0,1,4.104,1,0,28,28,1,1,28.21,0,3.89,0,,,,,,,,,,,,,,,,,,,,,,,,,,,,,,,,,,,,,,,,,,,,,,,,,,,,,,,,,,,,,,,,,,,,,,,,,,,,,,,,,,,,,,,,,,,,,,,,,,
,,60fefe75aa12dfd51d3fbe4e,2022-09-08_11h53.51.875,CGTgamblingSpanTasks,2022.2.1,MacIntel,58.82352941,,,,,,,,3.288,,,,,,,,,,,,,,2,v,0.712,5.27,0,4.288,1,0,29,29,10,1,13.45,0,5.27,0,,,,,,,,,,,,,,,,,,,,,,,,,,,,,,,,,,,,,,,,,,,,,,,,,,,,,,,,,,,,,,,,,,,,,,,,,,,,,,,,,,,,,,,,,,,,,,,,,,
,,60fefe75aa12dfd51d3fbe4e,2022-09-08_11h53.51.875,CGTgamblingSpanTasks,2022.2.1,MacIntel,58.82352941,,,,,,,,3.042,,,,,,,,,,,,,,2,v,0.958,8.84,0,4.042,1,0,30,30,17,1,18.33,0,8.84,0,,,,,,,,,,,,,,,,,,,,,,,,,,,,,,,,,,,,,,,,,,,,,,,,,,,,,,,,,,,,,,,,,,,,,,,,,,,,,,,,,,,,,,,,,,,,,,,,,,
,,60fefe75aa12dfd51d3fbe4e,2022-09-08_11h53.51.875,CGTgamblingSpanTasks,2022.2.1,MacIntel,58.82352941,,,,,,,,3.219,,,,,,,,,,,,,,2,v,0.781,5.82,0,4.719,1.5,0,31,31,16,1,12.36,0,5.82,0,,,,,,,,,,,,,,,,,,,,,,,,,,,,,,,,,,,,,,,,,,,,,,,,,,,,,,,,,,,,,,,,,,,,,,,,,,,,,,,,,,,,,,,,,,,,,,,,,,
,,60fefe75aa12dfd51d3fbe4e,2022-09-08_11h53.51.875,CGTgamblingSpanTasks,2022.2.1,MacIntel,58.82352941,,,,,,,,3.34,,,,,,,,,,,,,,2,v,0.66,6.08,0,4.84,1.5,0,32,32,20,1,11.84,0,6.08,0,,,,,,,,,,,,,,,,,,,,,,,,,,,,,,,,,,,,,,,,,,,,,,,,,,,,,,,,,,,,,,,,,,,,,,,,,,,,,,,,,,,,,,,,,,,,,,,,,,
,,60fefe75aa12dfd51d3fbe4e,2022-09-08_11h53.51.875,CGTgamblingSpanTasks,2022.2.1,MacIntel,58.82352941,,,,,,,,2.951,,,,,,,,,,,,,,1,n,1.049,3.13,0,4.451,1.5,0,33,33,47,1,0,0,3.13,1,,,,,,,,,,,,,,,,,,,,,,,,,,,,,,,,,,,,,,,,,,,,,,,,,,,,,,,,,,,,,,,,,,,,,,,,,,,,,,,,,,,,,,,,,,,,,,,,,,
,,60fefe75aa12dfd51d3fbe4e,2022-09-08_11h53.51.875,CGTgamblingSpanTasks,2022.2.1,MacIntel,58.82352941,,,,,,,,2.653,,,,,,,,,,,,,,1,v,1.347,0,1,4.153,1.5,0,34,34,19,1,17.94,0,9.03,0,,,,,,,,,,,,,,,,,,,,,,,,,,,,,,,,,,,,,,,,,,,,,,,,,,,,,,,,,,,,,,,,,,,,,,,,,,,,,,,,,,,,,,,,,,,,,,,,,,
,,60fefe75aa12dfd51d3fbe4e,2022-09-08_11h53.51.875,CGTgamblingSpanTasks,2022.2.1,MacIntel,58.82352941,,,,,,,,3.269,,,,,,,,,,,,,,2,v,0.731,5.4,0,4.269,1,0,35,35,3,1,25.2,0,5.4,0,,,,,,,,,,,,,,,,,,,,,,,,,,,,,,,,,,,,,,,,,,,,,,,,,,,,,,,,,,,,,,,,,,,,,,,,,,,,,,,,,,,,,,,,,,,,,,,,,,
,,60fefe75aa12dfd51d3fbe4e,2022-09-08_11h53.51.875,CGTgamblingSpanTasks,2022.2.1,MacIntel,58.82352941,,,,,,,,3.024,,,,,,,,,,,,,,1,n,0.976,5.96,0,4.524,1.5,0,36,36,18,1,12.08,0,5.96,0,,,,,,,,,,,,,,,,,,,,,,,,,,,,,,,,,,,,,,,,,,,,,,,,,,,,,,,,,,,,,,,,,,,,,,,,,,,,,,,,,,,,,,,,,,,,,,,,,,
,,60fefe75aa12dfd51d3fbe4e,2022-09-08_11h53.51.875,CGTgamblingSpanTasks,2022.2.1,MacIntel,58.82352941,,,,,,,,3.169,,,,,,,,,,,,,,1,n,0.831,6.94,0,4.169,1,0,37,37,38,1,10.12,0,6.94,0,,,,,,,,,,,,,,,,,,,,,,,,,,,,,,,,,,,,,,,,,,,,,,,,,,,,,,,,,,,,,,,,,,,,,,,,,,,,,,,,,,,,,,,,,,,,,,,,,,
,,60fefe75aa12dfd51d3fbe4e,2022-09-08_11h53.51.875,CGTgamblingSpanTasks,2022.2.1,MacIntel,58.82352941,,,,,,,,2.957,,,,,,,,,,,,,,2,v,1.043,4.64,0,4.457,1.5,0,38,38,6,1,14.72,0,4.64,0,,,,,,,,,,,,,,,,,,,,,,,,,,,,,,,,,,,,,,,,,,,,,,,,,,,,,,,,,,,,,,,,,,,,,,,,,,,,,,,,,,,,,,,,,,,,,,,,,,
,,60fefe75aa12dfd51d3fbe4e,2022-09-08_11h53.51.875,CGTgamblingSpanTasks,2022.2.1,MacIntel,58.82352941,,,,,,,,2.699,,,,,,,,,,,,,,1,n,1.301,6.81,0,3.699,1,0,39,39,34,1,10.39,0,6.81,0,,,,,,,,,,,,,,,,,,,,,,,,,,,,,,,,,,,,,,,,,,,,,,,,,,,,,,,,,,,,,,,,,,,,,,,,,,,,,,,,,,,,,,,,,,,,,,,,,,
,,60fefe75aa12dfd51d3fbe4e,2022-09-08_11h53.51.875,CGTgamblingSpanTasks,2022.2.1,MacIntel,58.82352941,,,,,,,,3.208,,,,,,,,,,,,,,2,v,0.792,8.36,0,4.708,1.5,0,40,40,13,1,19.28,0,8.36,0,,,,,,,,,,,,,,,,,,,,,,,,,,,,,,,,,,,,,,,,,,,,,,,,,,,,,,,,,,,,,,,,,,,,,,,,,,,,,,,,,,,,,,,,,,,,,,,,,,
,,60fefe75aa12dfd51d3fbe4e,2022-09-08_11h53.51.875,CGTgamblingSpanTasks,2022.2.1,MacIntel,58.82352941,,,,,,,,3.337,,,,,,,,,,,,,,1,n,0.663,10.02,0,4.837,1.5,0,41,41,31,1,15.96,0,10.02,0,,,,,,,,,,,,,,,,,,,,,,,,,,,,,,,,,,,,,,,,,,,,,,,,,,,,,,,,,,,,,,,,,,,,,,,,,,,,,,,,,,,,,,,,,,,,,,,,,,
,,60fefe75aa12dfd51d3fbe4e,2022-09-08_11h53.51.875,CGTgamblingSpanTasks,2022.2.1,MacIntel,58.82352941,,,,,,,,3.224,,,,,,,,,,,,,,2,v,0.776,6.53,0,4.224,1,0,42,42,28,1,10.95,0,6.53,0,,,,,,,,,,,,,,,,,,,,,,,,,,,,,,,,,,,,,,,,,,,,,,,,,,,,,,,,,,,,,,,,,,,,,,,,,,,,,,,,,,,,,,,,,,,,,,,,,,
,,60fefe75aa12dfd51d3fbe4e,2022-09-08_11h53.51.875,CGTgamblingSpanTasks,2022.2.1,MacIntel,58.82352941,,,,,,,,3.24,,,,,,,,,,,,,,1,n,0.76,6.73,0,4.24,1,0,43,43,32,1,10.55,0,6.73,0,,,,,,,,,,,,,,,,,,,,,,,,,,,,,,,,,,,,,,,,,,,,,,,,,,,,,,,,,,,,,,,,,,,,,,,,,,,,,,,,,,,,,,,,,,,,,,,,,,
,,60fefe75aa12dfd51d3fbe4e,2022-09-08_11h53.51.875,CGTgamblingSpanTasks,2022.2.1,MacIntel,58.82352941,,,,,,,,3.123,,,,,,,,,,,,,,1,n,0.877,9.92,0,4.623,1.5,0,44,44,49,1,6.79,0,9.92,1,,,,,,,,,,,,,,,,,,,,,,,,,,,,,,,,,,,,,,,,,,,,,,,,,,,,,,,,,,,,,,,,,,,,,,,,,,,,,,,,,,,,,,,,,,,,,,,,,,
,,60fefe75aa12dfd51d3fbe4e,2022-09-08_11h53.51.875,CGTgamblingSpanTasks,2022.2.1,MacIntel,58.82352941,,,,,,,,3.423,,,,,,,,,,,,,,1,n,0.577,10.46,0,4.423,1,0,45,45,39,1,15.09,0,10.46,0,,,,,,,,,,,,,,,,,,,,,,,,,,,,,,,,,,,,,,,,,,,,,,,,,,,,,,,,,,,,,,,,,,,,,,,,,,,,,,,,,,,,,,,,,,,,,,,,,,
,,60fefe75aa12dfd51d3fbe4e,2022-09-08_11h53.51.875,CGTgamblingSpanTasks,2022.2.1,MacIntel,58.82352941,,,,,,,,3.227,,,,,,,,,,,,,,1,n,0.773,6.99,0,4.727,1.5,0,46,46,43,1,16.11,6.99,6.99,1,,,,,,,,,,,,,,,,,,,,,,,,,,,,,,,,,,,,,,,,,,,,,,,,,,,,,,,,,,,,,,,,,,,,,,,,,,,,,,,,,,,,,,,,,,,,,,,,,,
,,60fefe75aa12dfd51d3fbe4e,2022-09-08_11h53.51.875,CGTgamblingSpanTasks,2022.2.1,MacIntel,58.82352941,,,,,,,,2.542,,,,,,,,,,,,,,1,v,1.458,15.7,1,4.042,1.5,0,47,47,33,1,15.7,0,10.15,0,,,,,,,,,,,,,,,,,,,,,,,,,,,,,,,,,,,,,,,,,,,,,,,,,,,,,,,,,,,,,,,,,,,,,,,,,,,,,,,,,,,,,,,,,,,,,,,,,,
,,60fefe75aa12dfd51d3fbe4e,2022-09-08_11h53.51.875,CGTgamblingSpanTasks,2022.2.1,MacIntel,58.82352941,,,,,,,,2.59,,,,,,,,,,,,,,1,n,1.41,7.55,0,3.59,1,0,48,48,45,1,0,0,7.55,1,,,,,,,,,,,,,,,,,,,,,,,,,,,,,,,,,,,,,,,,,,,,,,,,,,,,,,,,,,,,,,,,,,,,,,,,,,,,,,,,,,,,,,,,,,,,,,,,,,
,,60fefe75aa12dfd51d3fbe4e,2022-09-08_11h53.51.875,CGTgamblingSpanTasks,2022.2.1,MacIntel,58.82352941,,,,,,,,2.653,,,,,,,,,,,,,,1,n,1.347,9.5,0,4.153,1.5,0,49,49,25,1,17,0,9.5,0,,,,,,,,,,,,,,,,,,,,,,,,,,,,,,,,,,,,,,,,,,,,,,,,,,,,,,,,,,,,,,,,,,,,,,,,,,,,,,,,,,,,,,,,,,,,,,,,,,
,,60fefe75aa12dfd51d3fbe4e,2022-09-08_11h53.51.875,CGTgamblingSpanTasks,2022.2.1,MacIntel,58.82352941,,,,,,,,,,,,,,,,,,,,,,,,,,,,,,,,,,,,,,bespoke_choiceset_rhoInd037_muInd001.csv,bespoke_choicesets/bespoke_choiceset_rhoInd037_muInd001.csv,37,1,0,0,0,0,1,,,,,,,,,,,,,,,,,,,,,,,,,,,,,,,,,,,,,,,,,,,,,,,,,,,,,,,,,,,,,,,,,,,,,,,,,,,,,,,,,,,,,,,,,
,,60fefe75aa12dfd51d3fbe4e,2022-09-08_11h53.51.875,CGTgamblingSpanTasks,2022.2.1,MacIntel,58.82352941,,,,,,,,,,,,,,,,,,,,,,,,,,,,,,,,,,,,,,,,,,,,,,,,,,,,,,,,,,,,,,,,,,,,,,,,,,,,,,,,,,,,,,,,,,,,,,,,,,,,,,,,,,,,,,,,,,,,,,,,,,,,,,,,,,,,,,,
,,60fefe75aa12dfd51d3fbe4e,2022-09-08_11h53.51.875,CGTgamblingSpanTasks,2022.2.1,MacIntel,58.82352941,,,,,,,,,,,,,,,,,,,,,,,,,,,,,,,,,,,,,,,,,,,,,,,v,16.96,,,,,,,,,,,,,,,,,,,,,,,,,,,,,,,,,,,,,,,,,,,,,,,,,,,,,,,,,,,,,,,,,,,,,,,,,,,,,,,,,,,,,,,
,,60fefe75aa12dfd51d3fbe4e,2022-09-08_11h53.51.875,CGTgamblingSpanTasks,2022.2.1,MacIntel,58.82352941,,,,,,,,2.647,,,,,,,,,,,,,,1,v,1.353,0,1,4.147,1.5,,,,,,13.84410806,0,1.535873964,,,,,,,,,,,,,0,0,0,88,1,0.470209002,1,,,,,,,,,,,,,,,,,,,,,,,,,,,,,,,,,,,,,,,,,,,,,,,,,,,,,,,,,,,,,,,,,,,,,,,,,,,,,,,,
,,60fefe75aa12dfd51d3fbe4e,2022-09-08_11h53.51.875,CGTgamblingSpanTasks,2022.2.1,MacIntel,58.82352941,,,,,,,,3.202,,,,,,,,,,,,,,1,n,0.798,2.464662219,0,4.702,1.5,,,,,,23.59556381,0,2.464662219,,,,,,,,,,,,,0,1,1,22,1,0.486383205,1,,,,,,,,,,,,,,,,,,,,,,,,,,,,,,,,,,,,,,,,,,,,,,,,,,,,,,,,,,,,,,,,,,,,,,,,,,,,,,,,
,,60fefe75aa12dfd51d3fbe4e,2022-09-08_11h53.51.875,CGTgamblingSpanTasks,2022.2.1,MacIntel,58.82352941,,,,,,,,2.988,,,,,,,,,,,,,,1,n,1.012,1.207538756,0,4.488,1.5,,,,,,11.08143071,0,1.207538756,,,,,,,,,,,,,0,2,2,84,1,0.475047453,1,,,,,,,,,,,,,,,,,,,,,,,,,,,,,,,,,,,,,,,,,,,,,,,,,,,,,,,,,,,,,,,,,,,,,,,,,,,,,,,,
,,60fefe75aa12dfd51d3fbe4e,2022-09-08_11h53.51.875,CGTgamblingSpanTasks,2022.2.1,MacIntel,58.82352941,,,,,,,,3.341,,,,,,,,,,,,,,2,n,0.659,19.30622782,1,4.841,1.5,,,,,,19.30622782,0,10.31611309,,,,,,,,,,,,,0,3,3,1,1,0.091105656,0,,,,,,,,,,,,,,,,,,,,,,,,,,,,,,,,,,,,,,,,,,,,,,,,,,,,,,,,,,,,,,,,,,,,,,,,,,,,,,,,
,,60fefe75aa12dfd51d3fbe4e,2022-09-08_11h53.51.875,CGTgamblingSpanTasks,2022.2.1,MacIntel,58.82352941,,,,,,,,2.726,,,,,,,,,,,,,,1,n,1.274,2.502728921,0,3.726,1,,,,,,21.7711579,0,2.502728921,,,,,,,,,,,,,0,4,4,101,1,0.460552621,1,,,,,,,,,,,,,,,,,,,,,,,,,,,,,,,,,,,,,,,,,,,,,,,,,,,,,,,,,,,,,,,,,,,,,,,,,,,,,,,,
,,60fefe75aa12dfd51d3fbe4e,2022-09-08_11h53.51.875,CGTgamblingSpanTasks,2022.2.1,MacIntel,58.82352941,,,,,,,,3.09,,,,,,,,,,,,,,1,n,0.91,1.878232496,0,4.09,1,,,,,,17.92584289,0,1.878232496,,,,,,,,,,,,,0,5,5,5,1,0.485559263,1,,,,,,,,,,,,,,,,,,,,,,,,,,,,,,,,,,,,,,,,,,,,,,,,,,,,,,,,,,,,,,,,,,,,,,,,,,,,,,,,
,,60fefe75aa12dfd51d3fbe4e,2022-09-08_11h53.51.875,CGTgamblingSpanTasks,2022.2.1,MacIntel,58.82352941,,,,,,,,2.9,,,,,,,,,,,,,,2,n,1.1,0,1,3.9,1,,,,,,27.4965044,0,2.461467004,,,,,,,,,,,,,0,6,6,36,1,0.526550878,1,,,,,,,,,,,,,,,,,,,,,,,,,,,,,,,,,,,,,,,,,,,,,,,,,,,,,,,,,,,,,,,,,,,,,,,,,,,,,,,,
,,60fefe75aa12dfd51d3fbe4e,2022-09-08_11h53.51.875,CGTgamblingSpanTasks,2022.2.1,MacIntel,58.82352941,,,,,,,,0.983,,,,,,,,,,,,,,1,v,3.017,4.622707531,1,2.483,1.5,,,,,,4.622707531,0,7.850775577,,,,,,,,,,,,,0,7,7,6,1,0.017737407,0,,,,,,,,,,,,,,,,,,,,,,,,,,,,,,,,,,,,,,,,,,,,,,,,,,,,,,,,,,,,,,,,,,,,,,,,,,,,,,,,
,,60fefe75aa12dfd51d3fbe4e,2022-09-08_11h53.51.875,CGTgamblingSpanTasks,2022.2.1,MacIntel,58.82352941,,,,,,,,2.223,,,,,,,,,,,,,,1,v,1.777,0,1,3.723,1.5,,,,,,12.9904115,0,11.42134125,,,,,,,,,,,,,0,8,8,118,1,0.037876033,0,,,,,,,,,,,,,,,,,,,,,,,,,,,,,,,,,,,,,,,,,,,,,,,,,,,,,,,,,,,,,,,,,,,,,,,,,,,,,,,,
,,60fefe75aa12dfd51d3fbe4e,2022-09-08_11h53.51.875,CGTgamblingSpanTasks,2022.2.1,MacIntel,58.82352941,,,,,,,,2.64,,,,,,,,,,,,,,1,v,1.36,28.68598705,1,3.64,1,,,,,,28.68598705,0,0.050674956,,,,,,,,,,,,,0,9,9,62,1,0.920905497,0,,,,,,,,,,,,,,,,,,,,,,,,,,,,,,,,,,,,,,,,,,,,,,,,,,,,,,,,,,,,,,,,,,,,,,,,,,,,,,,,
,,60fefe75aa12dfd51d3fbe4e,2022-09-08_11h53.51.875,CGTgamblingSpanTasks,2022.2.1,MacIntel,58.82352941,,,,,,,,2.62,,,,,,,,,,,,,,2,n,1.38,26.4985979,1,4.12,1.5,,,,,,26.4985979,0,0.051324376,,,,,,,,,,,,,0,10,10,106,1,0.918747215,0,,,,,,,,,,,,,,,,,,,,,,,,,,,,,,,,,,,,,,,,,,,,,,,,,,,,,,,,,,,,,,,,,,,,,,,,,,,,,,,,
,,60fefe75aa12dfd51d3fbe4e,2022-09-08_11h53.51.875,CGTgamblingSpanTasks,2022.2.1,MacIntel,58.82352941,,,,,,,,1.804,,,,,,,,,,,,,,2,v,2.196,2.387726776,0,2.804,1,,,,,,23.0613391,0,2.387726776,,,,,,,,,,,,,0,11,11,69,1,0.488727763,1,,,,,,,,,,,,,,,,,,,,,,,,,,,,,,,,,,,,,,,,,,,,,,,,,,,,,,,,,,,,,,,,,,,,,,,,,,,,,,,,
,,60fefe75aa12dfd51d3fbe4e,2022-09-08_11h53.51.875,CGTgamblingSpanTasks,2022.2.1,MacIntel,58.82352941,,,,,,,,3.369,,,,,,,,,,,,,,1,n,0.631,0.067969053,0,4.369,1,,,,,,21.00799273,0,0.067969053,,,,,,,,,,,,,0,12,12,92,1,0.904360262,0,,,,,,,,,,,,,,,,,,,,,,,,,,,,,,,,,,,,,,,,,,,,,,,,,,,,,,,,,,,,,,,,,,,,,,,,,,,,,,,,
,,60fefe75aa12dfd51d3fbe4e,2022-09-08_11h53.51.875,CGTgamblingSpanTasks,2022.2.1,MacIntel,58.82352941,,,,,,,,2.156,,,,,,,,,,,,,,2,n,1.844,0,1,3.656,1.5,,,,,,25.65316415,0,0.079652925,,,,,,,,,,,,,0,13,13,109,1,0.90568168,0,,,,,,,,,,,,,,,,,,,,,,,,,,,,,,,,,,,,,,,,,,,,,,,,,,,,,,,,,,,,,,,,,,,,,,,,,,,,,,,,
,,60fefe75aa12dfd51d3fbe4e,2022-09-08_11h53.51.875,CGTgamblingSpanTasks,2022.2.1,MacIntel,58.82352941,,,,,,,,3.323,,,,,,,,,,,,,,2,n,0.677,0,1,4.823,1.5,,,,,,17.23907308,0,2.055848574,,,,,,,,,,,,,0,14,14,66,1,0.450504458,1,,,,,,,,,,,,,,,,,,,,,,,,,,,,,,,,,,,,,,,,,,,,,,,,,,,,,,,,,,,,,,,,,,,,,,,,,,,,,,,,
,,60fefe75aa12dfd51d3fbe4e,2022-09-08_11h53.51.875,CGTgamblingSpanTasks,2022.2.1,MacIntel,58.82352941,,,,,,,,3.289,,,,,,,,,,,,,,2,v,0.711,7.646213173,0,4.289,1,,,,,,2.042350179,0,7.646213173,,,,,,,,,,,,,0,15,15,53,1,0.009522273,0,,,,,,,,,,,,,,,,,,,,,,,,,,,,,,,,,,,,,,,,,,,,,,,,,,,,,,,,,,,,,,,,,,,,,,,,,,,,,,,,
,,60fefe75aa12dfd51d3fbe4e,2022-09-08_11h53.51.875,CGTgamblingSpanTasks,2022.2.1,MacIntel,58.82352941,,,,,,,,3.259,,,,,,,,,,,,,,2,v,0.741,8.42547829,0,4.759,1.5,,,,,,15.87668502,0,8.42547829,,,,,,,,,,,,,0,16,16,56,1,0.092099462,0,,,,,,,,,,,,,,,,,,,,,,,,,,,,,,,,,,,,,,,,,,,,,,,,,,,,,,,,,,,,,,,,,,,,,,,,,,,,,,,,
,,60fefe75aa12dfd51d3fbe4e,2022-09-08_11h53.51.875,CGTgamblingSpanTasks,2022.2.1,MacIntel,58.82352941,,,,,,,,2.241,,,,,,,,,,,,,,1,v,1.759,0,1,3.741,1.5,,,,,,29.77342428,0,2.838865588,,,,,,,,,,,,,0,17,17,57,1,0.510363415,1,,,,,,,,,,,,,,,,,,,,,,,,,,,,,,,,,,,,,,,,,,,,,,,,,,,,,,,,,,,,,,,,,,,,,,,,,,,,,,,,
,,60fefe75aa12dfd51d3fbe4e,2022-09-08_11h53.51.875,CGTgamblingSpanTasks,2022.2.1,MacIntel,58.82352941,,,,,,,,2.694,,,,,,,,,,,,,,1,v,1.306,18.51345298,1,3.694,1,,,,,,18.51345298,0,1.932334278,,,,,,,,,,,,,0,18,18,31,1,0.48658696,1,,,,,,,,,,,,,,,,,,,,,,,,,,,,,,,,,,,,,,,,,,,,,,,,,,,,,,,,,,,,,,,,,,,,,,,,,,,,,,,,
,,60fefe75aa12dfd51d3fbe4e,2022-09-08_11h53.51.875,CGTgamblingSpanTasks,2022.2.1,MacIntel,58.82352941,,,,,,,,2.592,,,,,,,,,,,,,,1,v,1.408,17.5608285,1,4.092,1.5,,,,,,17.5608285,0,1.825111303,,,,,,,,,,,,,0,19,19,104,1,0.487721116,1,,,,,,,,,,,,,,,,,,,,,,,,,,,,,,,,,,,,,,,,,,,,,,,,,,,,,,,,,,,,,,,,,,,,,,,,,,,,,,,,
,,60fefe75aa12dfd51d3fbe4e,2022-09-08_11h53.51.875,CGTgamblingSpanTasks,2022.2.1,MacIntel,58.82352941,,,,,,,,0.506,,,,,,,,,,,,,,1,v,3.494,0,1,2.006,1.5,,,,,,27.2532142,0,0.08089327,,,,,,,,,,,,,0,20,20,119,1,0.907091845,0,,,,,,,,,,,,,,,,,,,,,,,,,,,,,,,,,,,,,,,,,,,,,,,,,,,,,,,,,,,,,,,,,,,,,,,,,,,,,,,,
,,60fefe75aa12dfd51d3fbe4e,2022-09-08_11h53.51.875,CGTgamblingSpanTasks,2022.2.1,MacIntel,58.82352941,,,,,,,,3.439,,,,,,,,,,,,,,1,v,0.561,0,1,4.939,1.5,,,,,,25.54604005,0,0.088845411,,,,,,,,,,,,,0,21,21,79,1,0.901957831,0,,,,,,,,,,,,,,,,,,,,,,,,,,,,,,,,,,,,,,,,,,,,,,,,,,,,,,,,,,,,,,,,,,,,,,,,,,,,,,,,
,,60fefe75aa12dfd51d3fbe4e,2022-09-08_11h53.51.875,CGTgamblingSpanTasks,2022.2.1,MacIntel,58.82352941,,,,,,,,3.224,,,,,,,,,,,,,,2,v,0.776,2.32030209,0,4.224,1,,,,,,27.94544945,0,2.32030209,,,,,,,,,,,,,0,22,22,115,1,0.545390564,1,,,,,,,,,,,,,,,,,,,,,,,,,,,,,,,,,,,,,,,,,,,,,,,,,,,,,,,,,,,,,,,,,,,,,,,,,,,,,,,,
,,60fefe75aa12dfd51d3fbe4e,2022-09-08_11h53.51.875,CGTgamblingSpanTasks,2022.2.1,MacIntel,58.82352941,,,,,,,,2.809,,,,,,,,,,,,,,1,n,1.191,2.208275162,0,4.309,1.5,,,,,,21.03408097,0,2.208275162,,,,,,,,,,,,,0,23,23,0,1,0.485031246,1,,,,,,,,,,,,,,,,,,,,,,,,,,,,,,,,,,,,,,,,,,,,,,,,,,,,,,,,,,,,,,,,,,,,,,,,,,,,,,,,
,,60fefe75aa12dfd51d3fbe4e,2022-09-08_11h53.51.875,CGTgamblingSpanTasks,2022.2.1,MacIntel,58.82352941,,,,,,,,2.291,,,,,,,,,,,,,,2,n,1.709,24.35708027,1,3.291,1,,,,,,24.35708027,0,2.738695417,,,,,,,,,,,,,0,24,24,114,1,0.466573634,1,,,,,,,,,,,,,,,,,,,,,,,,,,,,,,,,,,,,,,,,,,,,,,,,,,,,,,,,,,,,,,,,,,,,,,,,,,,,,,,,
,,60fefe75aa12dfd51d3fbe4e,2022-09-08_11h53.51.875,CGTgamblingSpanTasks,2022.2.1,MacIntel,58.82352941,,,,,,,,2.456,,,,,,,,,,,,,,1,v,1.544,0,1,3.956,1.5,,,,,,28.14876717,0,3.117906378,,,,,,,,,,,,,0,25,25,76,1,0.470636736,1,,,,,,,,,,,,,,,,,,,,,,,,,,,,,,,,,,,,,,,,,,,,,,,,,,,,,,,,,,,,,,,,,,,,,,,,,,,,,,,,
,,60fefe75aa12dfd51d3fbe4e,2022-09-08_11h53.51.875,CGTgamblingSpanTasks,2022.2.1,MacIntel,58.82352941,,,,,,,,0,,,,,,,,,,,,,,2,,,,,1.5,1.5,,,,,,9.725876653,0,5.526483034,,,,,,,,,,,,,0,26,26,44,1,0.082550696,0,,,,,,,,,,,,,,,,,,,,,,,,,,,,,,,,,,,,,,,,,,,,,,,,,,,,,,,,,,,,,,,,,,,,,,,,,,,,,,,,
,,60fefe75aa12dfd51d3fbe4e,2022-09-08_11h53.51.875,CGTgamblingSpanTasks,2022.2.1,MacIntel,58.82352941,,,,,,,,3.536,,,,,,,,,,,,,,2,n,0.464,25.0707644,1,4.536,1,,,,,,25.0707644,0,0.067651625,,,,,,,,,,,,,0,27,27,70,1,0.909952349,0,,,,,,,,,,,,,,,,,,,,,,,,,,,,,,,,,,,,,,,,,,,,,,,,,,,,,,,,,,,,,,,,,,,,,,,,,,,,,,,,
,,60fefe75aa12dfd51d3fbe4e,2022-09-08_11h53.51.875,CGTgamblingSpanTasks,2022.2.1,MacIntel,58.82352941,,,,,,,,3.373,,,,,,,,,,,,,,1,v,0.627,0,1,4.373,1,,,,,,26.36733703,0,2.201057101,,,,,,,,,,,,,0,28,28,90,1,0.544064207,1,,,,,,,,,,,,,,,,,,,,,,,,,,,,,,,,,,,,,,,,,,,,,,,,,,,,,,,,,,,,,,,,,,,,,,,,,,,,,,,,
,,60fefe75aa12dfd51d3fbe4e,2022-09-08_11h53.51.875,CGTgamblingSpanTasks,2022.2.1,MacIntel,58.82352941,,,,,,,,3.391,,,,,,,,,,,,,,2,v,0.609,2.771762788,0,4.891,1.5,,,,,,27.88092897,0,2.771762788,,,,,,,,,,,,,0,29,29,117,1,0.499466648,1,,,,,,,,,,,,,,,,,,,,,,,,,,,,,,,,,,,,,,,,,,,,,,,,,,,,,,,,,,,,,,,,,,,,,,,,,,,,,,,,
,,60fefe75aa12dfd51d3fbe4e,2022-09-08_11h53.51.875,CGTgamblingSpanTasks,2022.2.1,MacIntel,58.82352941,,,,,,,,2.567,,,,,,,,,,,,,,2,n,1.433,0,1,4.067,1.5,,,,,,25.76582409,0,2.393193076,,,,,,,,,,,,,0,30,30,46,1,0.517129855,1,,,,,,,,,,,,,,,,,,,,,,,,,,,,,,,,,,,,,,,,,,,,,,,,,,,,,,,,,,,,,,,,,,,,,,,,,,,,,,,,
,,60fefe75aa12dfd51d3fbe4e,2022-09-08_11h53.51.875,CGTgamblingSpanTasks,2022.2.1,MacIntel,58.82352941,,,,,,,,3.322,,,,,,,,,,,,,,2,n,0.678,0,1,4.822,1.5,,,,,,27.60724521,0,0.088432325,,,,,,,,,,,,,0,31,31,17,1,0.904684186,0,,,,,,,,,,,,,,,,,,,,,,,,,,,,,,,,,,,,,,,,,,,,,,,,,,,,,,,,,,,,,,,,,,,,,,,,,,,,,,,,
,,60fefe75aa12dfd51d3fbe4e,2022-09-08_11h53.51.875,CGTgamblingSpanTasks,2022.2.1,MacIntel,58.82352941,,,,,,,,3.07,,,,,,,,,,,,,,2,n,0.93,21.17800335,1,4.07,1,,,,,,21.17800335,0,0.059830985,,,,,,,,,,,,,0,32,32,67,1,0.908594974,0,,,,,,,,,,,,,,,,,,,,,,,,,,,,,,,,,,,,,,,,,,,,,,,,,,,,,,,,,,,,,,,,,,,,,,,,,,,,,,,,
,,60fefe75aa12dfd51d3fbe4e,2022-09-08_11h53.51.875,CGTgamblingSpanTasks,2022.2.1,MacIntel,58.82352941,,,,,,,,2.864,,,,,,,,,,,,,,2,n,1.136,8.670591867,1,3.864,1,,,,,,8.670591867,0,1.025847652,,,,,,,,,,,,,0,33,33,18,1,0.452680459,1,,,,,,,,,,,,,,,,,,,,,,,,,,,,,,,,,,,,,,,,,,,,,,,,,,,,,,,,,,,,,,,,,,,,,,,,,,,,,,,,
,,60fefe75aa12dfd51d3fbe4e,2022-09-08_11h53.51.875,CGTgamblingSpanTasks,2022.2.1,MacIntel,58.82352941,,,,,,,,2.941,,,,,,,,,,,,,,2,n,1.059,21.46599803,1,3.941,1,,,,,,21.46599803,0,0.059789256,,,,,,,,,,,,,0,34,34,8,1,0.909019081,0,,,,,,,,,,,,,,,,,,,,,,,,,,,,,,,,,,,,,,,,,,,,,,,,,,,,,,,,,,,,,,,,,,,,,,,,,,,,,,,,
,,60fefe75aa12dfd51d3fbe4e,2022-09-08_11h53.51.875,CGTgamblingSpanTasks,2022.2.1,MacIntel,58.82352941,,,,,,,,2.154,,,,,,,,,,,,,,1,v,1.846,17.67865084,1,3.654,1.5,,,,,,17.67865084,0,11.35147481,,,,,,,,,,,,,0,35,35,91,1,0.067304606,0,,,,,,,,,,,,,,,,,,,,,,,,,,,,,,,,,,,,,,,,,,,,,,,,,,,,,,,,,,,,,,,,,,,,,,,,,,,,,,,,
,,60fefe75aa12dfd51d3fbe4e,2022-09-08_11h53.51.875,CGTgamblingSpanTasks,2022.2.1,MacIntel,58.82352941,,,,,,,,2.407,,,,,,,,,,,,,,1,v,1.593,23.4214135,1,3.407,1,,,,,,23.4214135,0,2.485985001,,,,,,,,,,,,,0,36,36,81,1,0.482105905,1,,,,,,,,,,,,,,,,,,,,,,,,,,,,,,,,,,,,,,,,,,,,,,,,,,,,,,,,,,,,,,,,,,,,,,,,,,,,,,,,
,,60fefe75aa12dfd51d3fbe4e,2022-09-08_11h53.51.875,CGTgamblingSpanTasks,2022.2.1,MacIntel,58.82352941,,,,,,,,2.559,,,,,,,,,,,,,,2,n,1.441,14.3363647,1,4.059,1.5,,,,,,14.3363647,0,1.396635362,,,,,,,,,,,,,0,37,37,78,1,0.504775474,1,,,,,,,,,,,,,,,,,,,,,,,,,,,,,,,,,,,,,,,,,,,,,,,,,,,,,,,,,,,,,,,,,,,,,,,,,,,,,,,,
,,60fefe75aa12dfd51d3fbe4e,2022-09-08_11h53.51.875,CGTgamblingSpanTasks,2022.2.1,MacIntel,58.82352941,,,,,,,,2.493,,,,,,,,,,,,,,1,v,1.507,18.50662664,1,3.993,1.5,,,,,,18.50662664,0,0.052546026,,,,,,,,,,,,,0,38,38,112,1,0.908444837,0,,,,,,,,,,,,,,,,,,,,,,,,,,,,,,,,,,,,,,,,,,,,,,,,,,,,,,,,,,,,,,,,,,,,,,,,,,,,,,,,
,,60fefe75aa12dfd51d3fbe4e,2022-09-08_11h53.51.875,CGTgamblingSpanTasks,2022.2.1,MacIntel,58.82352941,,,,,,,,2.291,,,,,,,,,,,,,,1,v,1.709,0,1,3.791,1.5,,,,,,18.20422443,0,1.635040165,,,,,,,,,,,,,0,39,39,82,1,0.525708991,1,,,,,,,,,,,,,,,,,,,,,,,,,,,,,,,,,,,,,,,,,,,,,,,,,,,,,,,,,,,,,,,,,,,,,,,,,,,,,,,,
,,60fefe75aa12dfd51d3fbe4e,2022-09-08_11h53.51.875,CGTgamblingSpanTasks,2022.2.1,MacIntel,58.82352941,,,,,,,,2.856,,,,,,,,,,,,,,1,v,1.144,28.9381277,1,3.856,1,,,,,,28.9381277,0,2.663622024,,,,,,,,,,,,,0,40,40,103,1,0.519453367,1,,,,,,,,,,,,,,,,,,,,,,,,,,,,,,,,,,,,,,,,,,,,,,,,,,,,,,,,,,,,,,,,,,,,,,,,,,,,,,,,
,,60fefe75aa12dfd51d3fbe4e,2022-09-08_11h53.51.875,CGTgamblingSpanTasks,2022.2.1,MacIntel,58.82352941,,,,,,,,2.924,,,,,,,,,,,,,,2,n,1.076,0,1,3.924,1,,,,,,28.33977875,0,2.768313633,,,,,,,,,,,,,0,41,41,116,1,0.50406901,1,,,,,,,,,,,,,,,,,,,,,,,,,,,,,,,,,,,,,,,,,,,,,,,,,,,,,,,,,,,,,,,,,,,,,,,,,,,,,,,,
,,60fefe75aa12dfd51d3fbe4e,2022-09-08_11h53.51.875,CGTgamblingSpanTasks,2022.2.1,MacIntel,58.82352941,,,,,,,,0,,,,,,,,,,,,,,1,,,,,1.5,1.5,,,,,,19.68065872,0,1.843597162,,,,,,,,,,,,,0,42,42,80,1,0.514941058,1,,,,,,,,,,,,,,,,,,,,,,,,,,,,,,,,,,,,,,,,,,,,,,,,,,,,,,,,,,,,,,,,,,,,,,,,,,,,,,,,
,,60fefe75aa12dfd51d3fbe4e,2022-09-08_11h53.51.875,CGTgamblingSpanTasks,2022.2.1,MacIntel,58.82352941,,,,,,,,3.525,,,,,,,,,,,,,,1,v,0.475,4.698775357,1,5.025,1.5,,,,,,4.698775357,0,4.904872644,,,,,,,,,,,,,0,43,43,75,1,0.028064484,0,,,,,,,,,,,,,,,,,,,,,,,,,,,,,,,,,,,,,,,,,,,,,,,,,,,,,,,,,,,,,,,,,,,,,,,,,,,,,,,,
,,60fefe75aa12dfd51d3fbe4e,2022-09-08_11h53.51.875,CGTgamblingSpanTasks,2022.2.1,MacIntel,58.82352941,,,,,,,,2.874,,,,,,,,,,,,,,1,v,1.126,22.72923833,1,4.374,1.5,,,,,,22.72923833,0,0.067170781,,,,,,,,,,,,,0,44,44,86,1,0.907226703,0,,,,,,,,,,,,,,,,,,,,,,,,,,,,,,,,,,,,,,,,,,,,,,,,,,,,,,,,,,,,,,,,,,,,,,,,,,,,,,,,
,,60fefe75aa12dfd51d3fbe4e,2022-09-08_11h53.51.875,CGTgamblingSpanTasks,2022.2.1,MacIntel,58.82352941,,,,,,,,2.611,,,,,,,,,,,,,,2,n,1.389,8.17598802,1,4.111,1.5,,,,,,8.17598802,0,11.19311486,,,,,,,,,,,,,0,45,45,110,1,0.021568003,0,,,,,,,,,,,,,,,,,,,,,,,,,,,,,,,,,,,,,,,,,,,,,,,,,,,,,,,,,,,,,,,,,,,,,,,,,,,,,,,,
,,60fefe75aa12dfd51d3fbe4e,2022-09-08_11h53.51.875,CGTgamblingSpanTasks,2022.2.1,MacIntel,58.82352941,,,,,,,,2.374,,,,,,,,,,,,,,2,n,1.626,24.66627941,1,3.374,1,,,,,,24.66627941,0,2.765426402,,,,,,,,,,,,,0,46,46,24,1,0.467360588,1,,,,,,,,,,,,,,,,,,,,,,,,,,,,,,,,,,,,,,,,,,,,,,,,,,,,,,,,,,,,,,,,,,,,,,,,,,,,,,,,
,,60fefe75aa12dfd51d3fbe4e,2022-09-08_11h53.51.875,CGTgamblingSpanTasks,2022.2.1,MacIntel,58.82352941,,,,,,,,2.258,,,,,,,,,,,,,,1,n,1.742,10.3417501,0,3.258,1,,,,,,15.21435748,0,10.3417501,,,,,,,,,,,,,0,47,47,72,1,0.060969226,0,,,,,,,,,,,,,,,,,,,,,,,,,,,,,,,,,,,,,,,,,,,,,,,,,,,,,,,,,,,,,,,,,,,,,,,,,,,,,,,,
,,60fefe75aa12dfd51d3fbe4e,2022-09-08_11h53.51.875,CGTgamblingSpanTasks,2022.2.1,MacIntel,58.82352941,,,,,,,,3.175,,,,,,,,,,,,,,2,n,0.825,0,1,4.175,1,,,,,,22.25959835,0,0.065383587,,,,,,,,,,,,,0,48,48,97,1,0.907413875,0,,,,,,,,,,,,,,,,,,,,,,,,,,,,,,,,,,,,,,,,,,,,,,,,,,,,,,,,,,,,,,,,,,,,,,,,,,,,,,,,
,,60fefe75aa12dfd51d3fbe4e,2022-09-08_11h53.51.875,CGTgamblingSpanTasks,2022.2.1,MacIntel,58.82352941,,,,,,,,0,,,,,,,,,,,,,,1,,,,,1,1,,,,,,21.39646914,0,0.072474078,,,,,,,,,,,,,0,49,49,3,1,0.902848133,0,,,,,,,,,,,,,,,,,,,,,,,,,,,,,,,,,,,,,,,,,,,,,,,,,,,,,,,,,,,,,,,,,,,,,,,,,,,,,,,,
,,60fefe75aa12dfd51d3fbe4e,2022-09-08_11h53.51.875,CGTgamblingSpanTasks,2022.2.1,MacIntel,58.82352941,,,,,,,,0.924,,,,,,,,,,,,,,1,n,3.076,10.41201161,0,1.924,1,,,,,,6.307062696,0,10.41201161,,,,,,,,,,,,,0,50,50,23,1,0.018187109,0,,,,,,,,,,,,,,,,,,,,,,,,,,,,,,,,,,,,,,,,,,,,,,,,,,,,,,,,,,,,,,,,,,,,,,,,,,,,,,,,
,,60fefe75aa12dfd51d3fbe4e,2022-09-08_11h53.51.875,CGTgamblingSpanTasks,2022.2.1,MacIntel,58.82352941,,,,,,,,3.354,,,,,,,,,,,,,,1,v,0.646,22.62475578,1,4.854,1.5,,,,,,22.62475578,0,2.397643354,,,,,,,,,,,,,0,51,51,93,1,0.482527609,1,,,,,,,,,,,,,,,,,,,,,,,,,,,,,,,,,,,,,,,,,,,,,,,,,,,,,,,,,,,,,,,,,,,,,,,,,,,,,,,,
,,60fefe75aa12dfd51d3fbe4e,2022-09-08_11h53.51.875,CGTgamblingSpanTasks,2022.2.1,MacIntel,58.82352941,,,,,,,,3.407,,,,,,,,,,,,,,1,n,0.593,2.99133314,0,4.407,1,,,,,,27.57491653,0,2.99133314,,,,,,,,,,,,,0,52,52,10,1,0.47625893,1,,,,,,,,,,,,,,,,,,,,,,,,,,,,,,,,,,,,,,,,,,,,,,,,,,,,,,,,,,,,,,,,,,,,,,,,,,,,,,,,
,,60fefe75aa12dfd51d3fbe4e,2022-09-08_11h53.51.875,CGTgamblingSpanTasks,2022.2.1,MacIntel,58.82352941,,,,,,,,2.675,,,,,,,,,,,,,,2,n,1.325,0,1,3.675,1,,,,,,24.479109,0,0.089582697,,,,,,,,,,,,,0,53,53,89,1,0.900200232,0,,,,,,,,,,,,,,,,,,,,,,,,,,,,,,,,,,,,,,,,,,,,,,,,,,,,,,,,,,,,,,,,,,,,,,,,,,,,,,,,
,,60fefe75aa12dfd51d3fbe4e,2022-09-08_11h53.51.875,CGTgamblingSpanTasks,2022.2.1,MacIntel,58.82352941,,,,,,,,3.874,,,,,,,,,,,,,,1,v,0.126,0,1,4.874,1,,,,,,14.11762686,0,8.579385201,,,,,,,,,,,,,0,54,54,60,1,0.073886959,0,,,,,,,,,,,,,,,,,,,,,,,,,,,,,,,,,,,,,,,,,,,,,,,,,,,,,,,,,,,,,,,,,,,,,,,,,,,,,,,,
,,60fefe75aa12dfd51d3fbe4e,2022-09-08_11h53.51.875,CGTgamblingSpanTasks,2022.2.1,MacIntel,58.82352941,,,,,,,,0,,,,,,,,,,,,,,1,,,,,1.5,1.5,,,,,,17.30137174,0,1.716380842,,,,,,,,,,,,,0,55,55,20,1,0.500020285,1,,,,,,,,,,,,,,,,,,,,,,,,,,,,,,,,,,,,,,,,,,,,,,,,,,,,,,,,,,,,,,,,,,,,,,,,,,,,,,,,
,,60fefe75aa12dfd51d3fbe4e,2022-09-08_11h53.51.875,CGTgamblingSpanTasks,2022.2.1,MacIntel,58.82352941,,,,,,,,0,,,,,,,,,,,,,,2,,,,,1,1,,,,,,25.21882231,0,0.085746782,,,,,,,,,,,,,0,56,56,64,1,0.90272076,0,,,,,,,,,,,,,,,,,,,,,,,,,,,,,,,,,,,,,,,,,,,,,,,,,,,,,,,,,,,,,,,,,,,,,,,,,,,,,,,,
,,60fefe75aa12dfd51d3fbe4e,2022-09-08_11h53.51.875,CGTgamblingSpanTasks,2022.2.1,MacIntel,58.82352941,,,,,,,,3.007,,,,,,,,,,,,,,1,v,0.993,13.96521039,1,4.007,1,,,,,,13.96521039,0,1.591282699,,,,,,,,,,,,,0,57,57,49,1,0.462956344,1,,,,,,,,,,,,,,,,,,,,,,,,,,,,,,,,,,,,,,,,,,,,,,,,,,,,,,,,,,,,,,,,,,,,,,,,,,,,,,,,
,,60fefe75aa12dfd51d3fbe4e,2022-09-08_11h53.51.875,CGTgamblingSpanTasks,2022.2.1,MacIntel,58.82352941,,,,,,,,3.209,,,,,,,,,,,,,,1,v,0.791,17.85020524,1,4.709,1.5,,,,,,17.85020524,0,2.058701084,,,,,,,,,,,,,0,58,58,25,1,0.459662216,1,,,,,,,,,,,,,,,,,,,,,,,,,,,,,,,,,,,,,,,,,,,,,,,,,,,,,,,,,,,,,,,,,,,,,,,,,,,,,,,,
,,60fefe75aa12dfd51d3fbe4e,2022-09-08_11h53.51.875,CGTgamblingSpanTasks,2022.2.1,MacIntel,58.82352941,,,,,,,,3.024,,,,,,,,,,,,,,2,n,0.976,0,1,4.024,1,,,,,,22.86604061,0,2.293289792,,,,,,,,,,,,,0,59,59,51,1,0.49715382,1,,,,,,,,,,,,,,,,,,,,,,,,,,,,,,,,,,,,,,,,,,,,,,,,,,,,,,,,,,,,,,,,,,,,,,,,,,,,,,,,
,,60fefe75aa12dfd51d3fbe4e,2022-09-08_11h53.51.875,CGTgamblingSpanTasks,2022.2.1,MacIntel,58.82352941,,,,,,,,0,,,,,,,,,,,,,,1,,,,,1,1,,,,,,26.11188619,0,0.081942421,,,,,,,,,,,,,0,60,60,105,1,0.905343856,0,,,,,,,,,,,,,,,,,,,,,,,,,,,,,,,,,,,,,,,,,,,,,,,,,,,,,,,,,,,,,,,,,,,,,,,,,,,,,,,,
,,60fefe75aa12dfd51d3fbe4e,2022-09-08_11h53.51.875,CGTgamblingSpanTasks,2022.2.1,MacIntel,58.82352941,,,,,,,,3.332,,,,,,,,,,,,,,2,n,0.668,27.77179191,1,4.332,1,,,,,,27.77179191,0,0.074524436,,,,,,,,,,,,,0,61,61,99,1,0.910114387,0,,,,,,,,,,,,,,,,,,,,,,,,,,,,,,,,,,,,,,,,,,,,,,,,,,,,,,,,,,,,,,,,,,,,,,,,,,,,,,,,
,,60fefe75aa12dfd51d3fbe4e,2022-09-08_11h53.51.875,CGTgamblingSpanTasks,2022.2.1,MacIntel,58.82352941,,,,,,,,3.319,,,,,,,,,,,,,,1,v,0.681,27.7711693,1,4.319,1,,,,,,27.7711693,0,2.320849632,,,,,,,,,,,,,0,62,62,94,1,0.543786368,1,,,,,,,,,,,,,,,,,,,,,,,,,,,,,,,,,,,,,,,,,,,,,,,,,,,,,,,,,,,,,,,,,,,,,,,,,,,,,,,,
,,60fefe75aa12dfd51d3fbe4e,2022-09-08_11h53.51.875,CGTgamblingSpanTasks,2022.2.1,MacIntel,58.82352941,,,,,,,,0,,,,,,,,,,,,,,1,,,,,1.5,1.5,,,,,,23.24777057,0,2.003482335,,,,,,,,,,,,,0,63,63,59,1,0.536135174,1,,,,,,,,,,,,,,,,,,,,,,,,,,,,,,,,,,,,,,,,,,,,,,,,,,,,,,,,,,,,,,,,,,,,,,,,,,,,,,,,
,,60fefe75aa12dfd51d3fbe4e,2022-09-08_11h53.51.875,CGTgamblingSpanTasks,2022.2.1,MacIntel,58.82352941,,,,,,,,3.337,,,,,,,,,,,,,,2,v,0.663,0.095763086,0,4.337,1,,,,,,29.76099779,0,0.095763086,,,,,,,,,,,,,0,64,64,35,1,0.904537896,0,,,,,,,,,,,,,,,,,,,,,,,,,,,,,,,,,,,,,,,,,,,,,,,,,,,,,,,,,,,,,,,,,,,,,,,,,,,,,,,,
,,60fefe75aa12dfd51d3fbe4e,2022-09-08_11h53.51.875,CGTgamblingSpanTasks,2022.2.1,MacIntel,58.82352941,,,,,,,,3.654,,,,,,,,,,,,,,2,n,0.346,0,1,5.154,1.5,,,,,,17.64114152,0,10.68505773,,,,,,,,,,,,,0,65,65,98,1,0.074299362,0,,,,,,,,,,,,,,,,,,,,,,,,,,,,,,,,,,,,,,,,,,,,,,,,,,,,,,,,,,,,,,,,,,,,,,,,,,,,,,,,
,,60fefe75aa12dfd51d3fbe4e,2022-09-08_11h53.51.875,CGTgamblingSpanTasks,2022.2.1,MacIntel,58.82352941,,,,,,,,3.437,,,,,,,,,,,,,,1,v,0.563,22.0050376,1,4.937,1.5,,,,,,22.0050376,0,2.257683666,,,,,,,,,,,,,0,66,66,4,1,0.491147312,1,,,,,,,,,,,,,,,,,,,,,,,,,,,,,,,,,,,,,,,,,,,,,,,,,,,,,,,,,,,,,,,,,,,,,,,,,,,,,,,,
,,60fefe75aa12dfd51d3fbe4e,2022-09-08_11h53.51.875,CGTgamblingSpanTasks,2022.2.1,MacIntel,58.82352941,,,,,,,,3.454,,,,,,,,,,,,,,1,v,0.546,0,1,4.954,1.5,,,,,,10.43004651,0,11.6744431,,,,,,,,,,,,,0,67,67,15,1,0.026176489,0,,,,,,,,,,,,,,,,,,,,,,,,,,,,,,,,,,,,,,,,,,,,,,,,,,,,,,,,,,,,,,,,,,,,,,,,,,,,,,,,
,,60fefe75aa12dfd51d3fbe4e,2022-09-08_11h53.51.875,CGTgamblingSpanTasks,2022.2.1,MacIntel,58.82352941,,,,,,,,3.058,,,,,,,,,,,,,,2,n,0.942,0,1,4.058,1,,,,,,15.13999312,0,8.653432553,,,,,,,,,,,,,0,68,68,54,1,0.081767484,0,,,,,,,,,,,,,,,,,,,,,,,,,,,,,,,,,,,,,,,,,,,,,,,,,,,,,,,,,,,,,,,,,,,,,,,,,,,,,,,,
,,60fefe75aa12dfd51d3fbe4e,2022-09-08_11h53.51.875,CGTgamblingSpanTasks,2022.2.1,MacIntel,58.82352941,,,,,,,,3.407,,,,,,,,,,,,,,1,v,0.593,0,1,4.407,1,,,,,,21.2188881,0,2.067660742,,,,,,,,,,,,,0,69,69,107,1,0.50470775,1,,,,,,,,,,,,,,,,,,,,,,,,,,,,,,,,,,,,,,,,,,,,,,,,,,,,,,,,,,,,,,,,,,,,,,,,,,,,,,,,
,,60fefe75aa12dfd51d3fbe4e,2022-09-08_11h53.51.875,CGTgamblingSpanTasks,2022.2.1,MacIntel,58.82352941,,,,,,,,1.191,,,,,,,,,,,,,,2,v,2.809,4.251676631,0,2.691,1.5,,,,,,3.395192929,0,4.251676631,,,,,,,,,,,,,0,70,70,7,1,0.023467153,0,,,,,,,,,,,,,,,,,,,,,,,,,,,,,,,,,,,,,,,,,,,,,,,,,,,,,,,,,,,,,,,,,,,,,,,,,,,,,,,,
,,60fefe75aa12dfd51d3fbe4e,2022-09-08_11h53.51.875,CGTgamblingSpanTasks,2022.2.1,MacIntel,58.82352941,,,,,,,,3.055,,,,,,,,,,,,,,2,n,0.945,10.05300841,1,4.555,1.5,,,,,,10.05300841,0,8.512335864,,,,,,,,,,,,,0,71,71,74,1,0.040729225,0,,,,,,,,,,,,,,,,,,,,,,,,,,,,,,,,,,,,,,,,,,,,,,,,,,,,,,,,,,,,,,,,,,,,,,,,,,,,,,,,
,,60fefe75aa12dfd51d3fbe4e,2022-09-08_11h53.51.875,CGTgamblingSpanTasks,2022.2.1,MacIntel,58.82352941,,,,,,,,3.569,,,,,,,,,,,,,,2,n,0.431,0,1,4.569,1,,,,,,27.38828234,0,0.0639233,,,,,,,,,,,,,0,72,72,43,1,0.914010176,0,,,,,,,,,,,,,,,,,,,,,,,,,,,,,,,,,,,,,,,,,,,,,,,,,,,,,,,,,,,,,,,,,,,,,,,,,,,,,,,,
,,60fefe75aa12dfd51d3fbe4e,2022-09-08_11h53.51.875,CGTgamblingSpanTasks,2022.2.1,MacIntel,58.82352941,,,,,,,,2.351,,,,,,,,,,,,,,1,v,1.649,0,1,3.851,1.5,,,,,,18.11029021,0,11.41737518,,,,,,,,,,,,,0,73,73,48,1,0.069445859,0,,,,,,,,,,,,,,,,,,,,,,,,,,,,,,,,,,,,,,,,,,,,,,,,,,,,,,,,,,,,,,,,,,,,,,,,,,,,,,,,
,,60fefe75aa12dfd51d3fbe4e,2022-09-08_11h53.51.875,CGTgamblingSpanTasks,2022.2.1,MacIntel,58.82352941,,,,,,,,3.323,,,,,,,,,,,,,,1,v,0.677,0,1,4.323,1,,,,,,26.16821818,0,0.093528069,,,,,,,,,,,,,0,74,74,42,1,0.901022427,0,,,,,,,,,,,,,,,,,,,,,,,,,,,,,,,,,,,,,,,,,,,,,,,,,,,,,,,,,,,,,,,,,,,,,,,,,,,,,,,,
,,60fefe75aa12dfd51d3fbe4e,2022-09-08_11h53.51.875,CGTgamblingSpanTasks,2022.2.1,MacIntel,58.82352941,,,,,,,,3.443,,,,,,,,,,,,,,2,n,0.557,0,1,4.443,1,,,,,,19.58698544,0,9.936178001,,,,,,,,,,,,,0,75,75,77,1,0.098812204,0,,,,,,,,,,,,,,,,,,,,,,,,,,,,,,,,,,,,,,,,,,,,,,,,,,,,,,,,,,,,,,,,,,,,,,,,,,,,,,,,
,,60fefe75aa12dfd51d3fbe4e,2022-09-08_11h53.51.875,CGTgamblingSpanTasks,2022.2.1,MacIntel,58.82352941,,,,,,,,2.773,,,,,,,,,,,,,,1,v,1.227,0,1,4.273,1.5,,,,,,24.57684014,0,0.061756244,,,,,,,,,,,,,0,76,76,68,1,0.911988903,0,,,,,,,,,,,,,,,,,,,,,,,,,,,,,,,,,,,,,,,,,,,,,,,,,,,,,,,,,,,,,,,,,,,,,,,,,,,,,,,,
,,60fefe75aa12dfd51d3fbe4e,2022-09-08_11h53.51.875,CGTgamblingSpanTasks,2022.2.1,MacIntel,58.82352941,,,,,,,,2.793,,,,,,,,,,,,,,2,n,1.207,0,1,4.293,1.5,,,,,,4.941039335,0,5.683635938,,,,,,,,,,,,,0,77,77,9,1,0.025481984,0,,,,,,,,,,,,,,,,,,,,,,,,,,,,,,,,,,,,,,,,,,,,,,,,,,,,,,,,,,,,,,,,,,,,,,,,,,,,,,,,
,,60fefe75aa12dfd51d3fbe4e,2022-09-08_11h53.51.875,CGTgamblingSpanTasks,2022.2.1,MacIntel,58.82352941,,,,,,,,2.491,,,,,,,,,,,,,,1,n,1.509,6.091504705,0,3.491,1,,,,,,6.662965216,0,6.091504705,,,,,,,,,,,,,0,78,78,102,1,0.035087099,0,,,,,,,,,,,,,,,,,,,,,,,,,,,,,,,,,,,,,,,,,,,,,,,,,,,,,,,,,,,,,,,,,,,,,,,,,,,,,,,,
,,60fefe75aa12dfd51d3fbe4e,2022-09-08_11h53.51.875,CGTgamblingSpanTasks,2022.2.1,MacIntel,58.82352941,,,,,,,,2.86,,,,,,,,,,,,,,1,v,1.14,9.012590634,1,4.36,1.5,,,,,,9.012590634,0,1.002188111,,,,,,,,,,,,,0,79,79,12,1,0.46958041,1,,,,,,,,,,,,,,,,,,,,,,,,,,,,,,,,,,,,,,,,,,,,,,,,,,,,,,,,,,,,,,,,,,,,,,,,,,,,,,,,
,,60fefe75aa12dfd51d3fbe4e,2022-09-08_11h53.51.875,CGTgamblingSpanTasks,2022.2.1,MacIntel,58.82352941,,,,,,,,2.874,,,,,,,,,,,,,,2,v,1.126,11.93550497,0,4.374,1.5,,,,,,14.20587264,0,11.93550497,,,,,,,,,,,,,0,80,80,21,1,0.041340301,0,,,,,,,,,,,,,,,,,,,,,,,,,,,,,,,,,,,,,,,,,,,,,,,,,,,,,,,,,,,,,,,,,,,,,,,,,,,,,,,,
,,60fefe75aa12dfd51d3fbe4e,2022-09-08_11h53.51.875,CGTgamblingSpanTasks,2022.2.1,MacIntel,58.82352941,,,,,,,,1.967,,,,,,,,,,,,,,1,n,2.033,3.877530383,0,3.467,1.5,,,,,,3.471484939,0,3.877530383,,,,,,,,,,,,,0,81,81,40,1,0.02623078,0,,,,,,,,,,,,,,,,,,,,,,,,,,,,,,,,,,,,,,,,,,,,,,,,,,,,,,,,,,,,,,,,,,,,,,,,,,,,,,,,
,,60fefe75aa12dfd51d3fbe4e,2022-09-08_11h53.51.875,CGTgamblingSpanTasks,2022.2.1,MacIntel,58.82352941,,,,,,,,2.551,,,,,,,,,,,,,,1,n,1.449,4.462262453,0,4.051,1.5,,,,,,0.192759042,0,4.462262453,,,,,,,,,,,,,0,82,82,52,1,0.003553223,0,,,,,,,,,,,,,,,,,,,,,,,,,,,,,,,,,,,,,,,,,,,,,,,,,,,,,,,,,,,,,,,,,,,,,,,,,,,,,,,,
,,60fefe75aa12dfd51d3fbe4e,2022-09-08_11h53.51.875,CGTgamblingSpanTasks,2022.2.1,MacIntel,58.82352941,,,,,,,,0,,,,,,,,,,,,,,2,,,,,1.5,1.5,,,,,,18.16238569,0,1.540604093,,,,,,,,,,,,,0,83,83,34,1,0.540092491,1,,,,,,,,,,,,,,,,,,,,,,,,,,,,,,,,,,,,,,,,,,,,,,,,,,,,,,,,,,,,,,,,,,,,,,,,,,,,,,,,
,,60fefe75aa12dfd51d3fbe4e,2022-09-08_11h53.51.875,CGTgamblingSpanTasks,2022.2.1,MacIntel,58.82352941,,,,,,,,0.753,,,,,,,,,,,,,,2,n,3.247,0,1,1.753,1,,,,,,6.325091157,0,6.833409611,,,,,,,,,,,,,0,84,84,58,1,0.027113638,0,,,,,,,,,,,,,,,,,,,,,,,,,,,,,,,,,,,,,,,,,,,,,,,,,,,,,,,,,,,,,,,,,,,,,,,,,,,,,,,,
,,60fefe75aa12dfd51d3fbe4e,2022-09-08_11h53.51.875,CGTgamblingSpanTasks,2022.2.1,MacIntel,58.82352941,,,,,,,,3.541,,,,,,,,,,,,,,1,n,0.459,2.543951743,0,5.041,1.5,,,,,,25.56803059,0,2.543951743,,,,,,,,,,,,,0,85,85,41,1,0.499247217,1,,,,,,,,,,,,,,,,,,,,,,,,,,,,,,,,,,,,,,,,,,,,,,,,,,,,,,,,,,,,,,,,,,,,,,,,,,,,,,,,
,,60fefe75aa12dfd51d3fbe4e,2022-09-08_11h53.51.875,CGTgamblingSpanTasks,2022.2.1,MacIntel,58.82352941,,,,,,,,3.425,,,,,,,,,,,,,,2,v,0.575,0.05384276,0,4.425,1,,,,,,28.18900855,0,0.05384276,,,,,,,,,,,,,0,86,86,55,1,0.919081308,0,,,,,,,,,,,,,,,,,,,,,,,,,,,,,,,,,,,,,,,,,,,,,,,,,,,,,,,,,,,,,,,,,,,,,,,,,,,,,,,,
,,60fefe75aa12dfd51d3fbe4e,2022-09-08_11h53.51.875,CGTgamblingSpanTasks,2022.2.1,MacIntel,58.82352941,,,,,,,,3.041,,,,,,,,,,,,,,1,n,0.959,11.61882862,0,4.041,1,,,,,,4.022743614,0,11.61882862,,,,,,,,,,,,,0,87,87,38,1,0.011499376,0,,,,,,,,,,,,,,,,,,,,,,,,,,,,,,,,,,,,,,,,,,,,,,,,,,,,,,,,,,,,,,,,,,,,,,,,,,,,,,,,
,,60fefe75aa12dfd51d3fbe4e,2022-09-08_11h53.51.875,CGTgamblingSpanTasks,2022.2.1,MacIntel,58.82352941,,,,,,,,2.291,,,,,,,,,,,,,,2,n,1.709,0,1,3.291,1,,,,,,19.5450126,0,2.123581464,,,,,,,,,,,,,0,88,88,65,1,0.475836144,1,,,,,,,,,,,,,,,,,,,,,,,,,,,,,,,,,,,,,,,,,,,,,,,,,,,,,,,,,,,,,,,,,,,,,,,,,,,,,,,,
,,60fefe75aa12dfd51d3fbe4e,2022-09-08_11h53.51.875,CGTgamblingSpanTasks,2022.2.1,MacIntel,58.82352941,,,,,,,,1.639,,,,,,,,,,,,,,2,v,2.361,2.030232342,0,2.639,1,,,,,,19.3050342,0,2.030232342,,,,,,,,,,,,,0,89,89,73,1,0.484573227,1,,,,,,,,,,,,,,,,,,,,,,,,,,,,,,,,,,,,,,,,,,,,,,,,,,,,,,,,,,,,,,,,,,,,,,,,,,,,,,,,
,,60fefe75aa12dfd51d3fbe4e,2022-09-08_11h53.51.875,CGTgamblingSpanTasks,2022.2.1,MacIntel,58.82352941,,,,,,,,2.122,,,,,,,,,,,,,,2,n,1.878,8.217594828,1,3.622,1.5,,,,,,8.217594828,0,0.951019374,,,,,,,,,,,,,0,90,90,87,1,0.458722936,1,,,,,,,,,,,,,,,,,,,,,,,,,,,,,,,,,,,,,,,,,,,,,,,,,,,,,,,,,,,,,,,,,,,,,,,,,,,,,,,,
,,60fefe75aa12dfd51d3fbe4e,2022-09-08_11h53.51.875,CGTgamblingSpanTasks,2022.2.1,MacIntel,58.82352941,,,,,,,,0,,,,,,,,,,,,,,2,,,,,1.5,1.5,,,,,,24.8002852,0,0.071848086,,,,,,,,,,,,,0,91,91,16,1,0.90783559,0,,,,,,,,,,,,,,,,,,,,,,,,,,,,,,,,,,,,,,,,,,,,,,,,,,,,,,,,,,,,,,,,,,,,,,,,,,,,,,,,
,,60fefe75aa12dfd51d3fbe4e,2022-09-08_11h53.51.875,CGTgamblingSpanTasks,2022.2.1,MacIntel,58.82352941,,,,,,,,3.607,,,,,,,,,,,,,,1,n,0.393,1.870404296,0,4.607,1,,,,,,20.31034258,0,1.870404296,,,,,,,,,,,,,0,92,92,85,1,0.519325853,1,,,,,,,,,,,,,,,,,,,,,,,,,,,,,,,,,,,,,,,,,,,,,,,,,,,,,,,,,,,,,,,,,,,,,,,,,,,,,,,,
,,60fefe75aa12dfd51d3fbe4e,2022-09-08_11h53.51.875,CGTgamblingSpanTasks,2022.2.1,MacIntel,58.82352941,,,,,,,,3.64,,,,,,,,,,,,,,2,v,0.36,2.469465385,0,5.14,1.5,,,,,,21.16780451,0,2.469465385,,,,,,,,,,,,,0,93,93,32,1,0.456531699,1,,,,,,,,,,,,,,,,,,,,,,,,,,,,,,,,,,,,,,,,,,,,,,,,,,,,,,,,,,,,,,,,,,,,,,,,,,,,,,,,
,,60fefe75aa12dfd51d3fbe4e,2022-09-08_11h53.51.875,CGTgamblingSpanTasks,2022.2.1,MacIntel,58.82352941,,,,,,,,2.973,,,,,,,,,,,,,,1,v,1.027,27.39221343,1,3.973,1,,,,,,27.39221343,0,2.743407746,,,,,,,,,,,,,0,94,94,47,1,0.49752044,1,,,,,,,,,,,,,,,,,,,,,,,,,,,,,,,,,,,,,,,,,,,,,,,,,,,,,,,,,,,,,,,,,,,,,,,,,,,,,,,,
,,60fefe75aa12dfd51d3fbe4e,2022-09-08_11h53.51.875,CGTgamblingSpanTasks,2022.2.1,MacIntel,58.82352941,,,,,,,,0,,,,,,,,,,,,,,1,,,,,1.5,1.5,,,,,,27.93093084,0,0.050207531,,,,,,,,,,,,,0,95,95,83,1,0.920505936,0,,,,,,,,,,,,,,,,,,,,,,,,,,,,,,,,,,,,,,,,,,,,,,,,,,,,,,,,,,,,,,,,,,,,,,,,,,,,,,,,
,,60fefe75aa12dfd51d3fbe4e,2022-09-08_11h53.51.875,CGTgamblingSpanTasks,2022.2.1,MacIntel,58.82352941,,,,,,,,3.558,,,,,,,,,,,,,,2,n,0.442,20.97851654,1,5.058,1.5,,,,,,20.97851654,0,11.39288827,,,,,,,,,,,,,0,96,96,2,1,0.088791079,0,,,,,,,,,,,,,,,,,,,,,,,,,,,,,,,,,,,,,,,,,,,,,,,,,,,,,,,,,,,,,,,,,,,,,,,,,,,,,,,,
,,60fefe75aa12dfd51d3fbe4e,2022-09-08_11h53.51.875,CGTgamblingSpanTasks,2022.2.1,MacIntel,58.82352941,,,,,,,,3.674,,,,,,,,,,,,,,1,v,0.326,0,1,4.674,1,,,,,,20.5726842,0,0.073558523,,,,,,,,,,,,,0,97,97,26,1,0.901008565,0,,,,,,,,,,,,,,,,,,,,,,,,,,,,,,,,,,,,,,,,,,,,,,,,,,,,,,,,,,,,,,,,,,,,,,,,,,,,,,,,
,,60fefe75aa12dfd51d3fbe4e,2022-09-08_11h53.51.875,CGTgamblingSpanTasks,2022.2.1,MacIntel,58.82352941,,,,,,,,3.337,,,,,,,,,,,,,,1,n,0.663,0.747140182,0,4.337,1,,,,,,7.534278541,0,0.747140182,,,,,,,,,,,,,0,98,98,37,1,0.50012466,1,,,,,,,,,,,,,,,,,,,,,,,,,,,,,,,,,,,,,,,,,,,,,,,,,,,,,,,,,,,,,,,,,,,,,,,,,,,,,,,,
,,60fefe75aa12dfd51d3fbe4e,2022-09-08_11h53.51.875,CGTgamblingSpanTasks,2022.2.1,MacIntel,58.82352941,,,,,,,,3.521,,,,,,,,,,,,,,2,n,0.479,0,1,5.021,1.5,,,,,,27.12325385,0,0.080932047,,,,,,,,,,,,,0,99,99,14,1,0.906929184,0,,,,,,,,,,,,,,,,,,,,,,,,,,,,,,,,,,,,,,,,,,,,,,,,,,,,,,,,,,,,,,,,,,,,,,,,,,,,,,,,
,,60fefe75aa12dfd51d3fbe4e,2022-09-08_11h53.51.875,CGTgamblingSpanTasks,2022.2.1,MacIntel,58.82352941,,,,,,,,2.69,,,,,,,,,,,,,,1,v,1.31,0,1,3.69,1,,,,,,27.53810185,0,0.097022401,,,,,,,,,,,,,0,100,100,50,1,0.901515865,0,,,,,,,,,,,,,,,,,,,,,,,,,,,,,,,,,,,,,,,,,,,,,,,,,,,,,,,,,,,,,,,,,,,,,,,,,,,,,,,,
,,60fefe75aa12dfd51d3fbe4e,2022-09-08_11h53.51.875,CGTgamblingSpanTasks,2022.2.1,MacIntel,58.82352941,,,,,,,,2.822,,,,,,,,,,,,,,2,n,1.178,0,1,3.822,1,,,,,,25.26994993,0,2.78925142,,,,,,,,,,,,,0,101,101,108,1,0.471582922,1,,,,,,,,,,,,,,,,,,,,,,,,,,,,,,,,,,,,,,,,,,,,,,,,,,,,,,,,,,,,,,,,,,,,,,,,,,,,,,,,
,,60fefe75aa12dfd51d3fbe4e,2022-09-08_11h53.51.875,CGTgamblingSpanTasks,2022.2.1,MacIntel,58.82352941,,,,,,,,3.023,,,,,,,,,,,,,,1,v,0.977,0,1,4.523,1.5,,,,,,8.363821911,0,6.781500919,,,,,,,,,,,,,0,102,102,61,1,0.044227959,0,,,,,,,,,,,,,,,,,,,,,,,,,,,,,,,,,,,,,,,,,,,,,,,,,,,,,,,,,,,,,,,,,,,,,,,,,,,,,,,,
,,60fefe75aa12dfd51d3fbe4e,2022-09-08_11h53.51.875,CGTgamblingSpanTasks,2022.2.1,MacIntel,58.82352941,,,,,,,,3.307,,,,,,,,,,,,,,2,n,0.693,15.73000491,1,4.307,1,,,,,,15.73000491,0,8.830252162,,,,,,,,,,,,,0,103,103,95,1,0.084193143,0,,,,,,,,,,,,,,,,,,,,,,,,,,,,,,,,,,,,,,,,,,,,,,,,,,,,,,,,,,,,,,,,,,,,,,,,,,,,,,,,
,,60fefe75aa12dfd51d3fbe4e,2022-09-08_11h53.51.875,CGTgamblingSpanTasks,2022.2.1,MacIntel,58.82352941,,,,,,,,3.572,,,,,,,,,,,,,,2,n,0.428,0,1,4.572,1,,,,,,11.16819157,0,0.941456753,,,,,,,,,,,,,0,104,104,45,1,0.54163803,1,,,,,,,,,,,,,,,,,,,,,,,,,,,,,,,,,,,,,,,,,,,,,,,,,,,,,,,,,,,,,,,,,,,,,,,,,,,,,,,,
,,60fefe75aa12dfd51d3fbe4e,2022-09-08_11h53.51.875,CGTgamblingSpanTasks,2022.2.1,MacIntel,58.82352941,,,,,,,,2.638,,,,,,,,,,,,,,1,n,1.362,2.229247341,0,4.138,1.5,,,,,,21.48443242,0,2.229247341,,,,,,,,,,,,,0,105,105,63,1,0.488155912,1,,,,,,,,,,,,,,,,,,,,,,,,,,,,,,,,,,,,,,,,,,,,,,,,,,,,,,,,,,,,,,,,,,,,,,,,,,,,,,,,
,,60fefe75aa12dfd51d3fbe4e,2022-09-08_11h53.51.875,CGTgamblingSpanTasks,2022.2.1,MacIntel,58.82352941,,,,,,,,3.407,,,,,,,,,,,,,,1,n,0.593,2.893007023,0,4.407,1,,,,,,28.9323758,0,2.893007023,,,,,,,,,,,,,0,106,106,11,1,0.497943321,1,,,,,,,,,,,,,,,,,,,,,,,,,,,,,,,,,,,,,,,,,,,,,,,,,,,,,,,,,,,,,,,,,,,,,,,,,,,,,,,,
,,60fefe75aa12dfd51d3fbe4e,2022-09-08_11h53.51.875,CGTgamblingSpanTasks,2022.2.1,MacIntel,58.82352941,,,,,,,,3.458,,,,,,,,,,,,,,1,v,0.542,0,1,4.958,1.5,,,,,,17.4320197,0,1.448620949,,,,,,,,,,,,,0,107,107,30,1,0.545178213,1,,,,,,,,,,,,,,,,,,,,,,,,,,,,,,,,,,,,,,,,,,,,,,,,,,,,,,,,,,,,,,,,,,,,,,,,,,,,,,,,
,,60fefe75aa12dfd51d3fbe4e,2022-09-08_11h53.51.875,CGTgamblingSpanTasks,2022.2.1,MacIntel,58.82352941,,,,,,,,3.592,,,,,,,,,,,,,,2,n,0.408,7.066129113,1,4.592,1,,,,,,7.066129113,0,0.585581699,,,,,,,,,,,,,0,108,108,19,1,0.545860632,1,,,,,,,,,,,,,,,,,,,,,,,,,,,,,,,,,,,,,,,,,,,,,,,,,,,,,,,,,,,,,,,,,,,,,,,,,,,,,,,,
,,60fefe75aa12dfd51d3fbe4e,2022-09-08_11h53.51.875,CGTgamblingSpanTasks,2022.2.1,MacIntel,58.82352941,,,,,,,,2.424,,,,,,,,,,,,,,2,n,1.576,2.231316635,1,3.924,1.5,,,,,,2.231316635,0,7.50753835,,,,,,,,,,,,,0,109,109,29,1,0.010273427,0,,,,,,,,,,,,,,,,,,,,,,,,,,,,,,,,,,,,,,,,,,,,,,,,,,,,,,,,,,,,,,,,,,,,,,,,,,,,,,,,
,,60fefe75aa12dfd51d3fbe4e,2022-09-08_11h53.51.875,CGTgamblingSpanTasks,2022.2.1,MacIntel,58.82352941,,,,,,,,3.409,,,,,,,,,,,,,,2,n,0.591,29.30724159,1,4.409,1,,,,,,29.30724159,0,3.247012935,,,,,,,,,,,,,0,110,110,71,1,0.470571125,1,,,,,,,,,,,,,,,,,,,,,,,,,,,,,,,,,,,,,,,,,,,,,,,,,,,,,,,,,,,,,,,,,,,,,,,,,,,,,,,,
,,60fefe75aa12dfd51d3fbe4e,2022-09-08_11h53.51.875,CGTgamblingSpanTasks,2022.2.1,MacIntel,58.82352941,,,,,,,,3.191,,,,,,,,,,,,,,2,v,0.809,2.810531415,0,4.191,1,,,,,,29.75778644,0,2.810531415,,,,,,,,,,,,,0,111,111,113,1,0.512824233,1,,,,,,,,,,,,,,,,,,,,,,,,,,,,,,,,,,,,,,,,,,,,,,,,,,,,,,,,,,,,,,,,,,,,,,,,,,,,,,,,
,,60fefe75aa12dfd51d3fbe4e,2022-09-08_11h53.51.875,CGTgamblingSpanTasks,2022.2.1,MacIntel,58.82352941,,,,,,,,0,,,,,,,,,,,,,,2,,,,,1,1,,,,,,28.94627214,0,2.701896413,,,,,,,,,,,,,0,112,112,111,1,0.515860759,1,,,,,,,,,,,,,,,,,,,,,,,,,,,,,,,,,,,,,,,,,,,,,,,,,,,,,,,,,,,,,,,,,,,,,,,,,,,,,,,,
,,60fefe75aa12dfd51d3fbe4e,2022-09-08_11h53.51.875,CGTgamblingSpanTasks,2022.2.1,MacIntel,58.82352941,,,,,,,,2.319,,,,,,,,,,,,,,1,n,1.681,2.860319095,0,3.319,1,,,,,,27.37527992,0,2.860319095,,,,,,,,,,,,,0,113,113,39,1,0.486304156,1,,,,,,,,,,,,,,,,,,,,,,,,,,,,,,,,,,,,,,,,,,,,,,,,,,,,,,,,,,,,,,,,,,,,,,,,,,,,,,,,
,,60fefe75aa12dfd51d3fbe4e,2022-09-08_11h53.51.875,CGTgamblingSpanTasks,2022.2.1,MacIntel,58.82352941,,,,,,,,3.638,,,,,,,,,,,,,,1,n,0.362,2.532806323,0,5.138,1.5,,,,,,28.13634754,0,2.532806323,,,,,,,,,,,,,0,114,114,28,1,0.525136524,1,,,,,,,,,,,,,,,,,,,,,,,,,,,,,,,,,,,,,,,,,,,,,,,,,,,,,,,,,,,,,,,,,,,,,,,,,,,,,,,,
,,60fefe75aa12dfd51d3fbe4e,2022-09-08_11h53.51.875,CGTgamblingSpanTasks,2022.2.1,MacIntel,58.82352941,,,,,,,,3.54,,,,,,,,,,,,,,2,n,0.46,19.36415485,1,5.04,1.5,,,,,,19.36415485,0,1.966229494,,,,,,,,,,,,,0,115,115,96,1,0.493893111,1,,,,,,,,,,,,,,,,,,,,,,,,,,,,,,,,,,,,,,,,,,,,,,,,,,,,,,,,,,,,,,,,,,,,,,,,,,,,,,,,
,,60fefe75aa12dfd51d3fbe4e,2022-09-08_11h53.51.875,CGTgamblingSpanTasks,2022.2.1,MacIntel,58.82352941,,,,,,,,0,,,,,,,,,,,,,,2,,,,,1.5,1.5,,,,,,22.87092517,0,0.059276504,,,,,,,,,,,,,0,116,116,27,1,0.911114935,0,,,,,,,,,,,,,,,,,,,,,,,,,,,,,,,,,,,,,,,,,,,,,,,,,,,,,,,,,,,,,,,,,,,,,,,,,,,,,,,,
,,60fefe75aa12dfd51d3fbe4e,2022-09-08_11h53.51.875,CGTgamblingSpanTasks,2022.2.1,MacIntel,58.82352941,,,,,,,,2.975,,,,,,,,,,,,,,1,n,1.025,1.317368801,0,3.975,1,,,,,,13.4287264,0,1.317368801,,,,,,,,,,,,,0,117,117,100,1,0.502953125,1,,,,,,,,,,,,,,,,,,,,,,,,,,,,,,,,,,,,,,,,,,,,,,,,,,,,,,,,,,,,,,,,,,,,,,,,,,,,,,,,
,,60fefe75aa12dfd51d3fbe4e,2022-09-08_11h53.51.875,CGTgamblingSpanTasks,2022.2.1,MacIntel,58.82352941,,,,,,,,0,,,,,,,,,,,,,,1,,,,,1,1,,,,,,15.43649625,0,1.65459324,,,,,,,,,,,,,0,118,118,33,1,0.479480163,1,,,,,,,,,,,,,,,,,,,,,,,,,,,,,,,,,,,,,,,,,,,,,,,,,,,,,,,,,,,,,,,,,,,,,,,,,,,,,,,,
,,60fefe75aa12dfd51d3fbe4e,2022-09-08_11h53.51.875,CGTgamblingSpanTasks,2022.2.1,MacIntel,58.82352941,,,,,,,,0,,,,,,,,,,,,,,2,,,,,1.5,1.5,,,,,,27.76752685,0,0.083968035,,,,,,,,,,,,,0,119,119,13,1,0.906513967,0,,,,,,,,,,,,,,,,,,,,,,,,,,,,,,,,,,,,,,,,,,,,,,,,,,,,,,,,,,,,,,,,,,,,,,,,,,,,,,,,
,,60fefe75aa12dfd51d3fbe4e,2022-09-08_11h53.51.875,CGTgamblingSpanTasks,2022.2.1,MacIntel,58.82352941,,,,,,,,,,,,,,,,,,,,,,,,,,,,,,,,,,,,,,,,,,,,,,,,,,,,,,,,return,561.728,,,,,,,,,,,,,,,,,,,,,,,,,,,,,,,,,,,,,,,,,,,,,,,,,,,,,,,,,,,,,,,,,,,,,,,,,,,,,,
,,60fefe75aa12dfd51d3fbe4e,2022-09-08_11h53.51.875,CGTgamblingSpanTasks,2022.2.1,MacIntel,58.82352941,,,,,,,,,,,,,,,,,,,,,,,,,,,,,,,,,,,,,,,,,,,,,,,,,,,,,,,,,,return,19.228,,,,,,,,,,,,,,,,,,,,,,,,,,,,,,,,,,,,,,,,,,,,,,,,,,,,,,,,,,,,,,,,,,,,,,,,,,,,
,,60fefe75aa12dfd51d3fbe4e,2022-09-08_11h53.51.875,CGTgamblingSpanTasks,2022.2.1,MacIntel,58.82352941,,,,,,,,,,,,,,,,,,,,,,,,,,,,,,,,,,,,,,,,,,,,,,,,,,,,,,,,,,,,return,37.364,,,,,,,,,,,,,,,,,,,,,,,,,,,,,,,,,,,,,,,,,,,,,,,,,,,,,,,,,,,,,,,,,,,,,,,,,,
,,60fefe75aa12dfd51d3fbe4e,2022-09-08_11h53.51.875,CGTgamblingSpanTasks,2022.2.1,MacIntel,58.82352941,,,,,,,,,,,,,,,,,,,,,,,,,,,,,,,,,,,,,,,,,,,,,,,,,,,,,,,,,,,,,,342,1,0.094444444,-0.4,1,0,0,cont_buttonPractice,0,0,0,0,1,3,342,24,2,42,,,,,,,,,,,,,,,,,,,,,,,,,,,,,,,,,,,,,,,,,,,,,,,,,,,,,,,,
,,60fefe75aa12dfd51d3fbe4e,2022-09-08_11h53.51.875,CGTgamblingSpanTasks,2022.2.1,MacIntel,58.82352941,,,,,,,,,,,,,,,,,,,,,,,,,,,,,,,,,,,,,,,,,,,,,,,,,,,,,,,,,,,,,,937,1,-0.003333333,-0.373333333,1,0,0,cont_buttonPractice,0,1,1,1,1,3,937,73,2,37,,,,,,,,,,,,,,,,,,,,,,,,,,,,,,,,,,,,,,,,,,,,,,,,,,,,,,,,
,,60fefe75aa12dfd51d3fbe4e,2022-09-08_11h53.51.875,CGTgamblingSpanTasks,2022.2.1,MacIntel,58.82352941,,,,,,,,,,,,,,,,,,,,,,,,,,,,,,,,,,,,,,,,,,,,,,,,,,,,,,,,,,,,,,,,,,,,,,,,,,,,,,,,return,8.465,,,,,,,,,,,,,,,,,,,,,,,,,,,,,,,,,,,,,,,,,,,,,,,,,,,,,,
,,60fefe75aa12dfd51d3fbe4e,2022-09-08_11h53.51.875,CGTgamblingSpanTasks,2022.2.1,MacIntel,58.82352941,,,,,,,,,,,,,,,,,,,,,,,,,,,,,,,,,,,,,,,,,,,,,,,,,,,,,,,,,,,,,,,,,,,,,,,,,,,,,,,,,,"[2,8,9]",0,0,0,0,1,,,,,,,,,,,,,,,,,,,,,,,,,,,,,,,,,,,,,,,,,,,,,,,,
,,60fefe75aa12dfd51d3fbe4e,2022-09-08_11h53.51.875,CGTgamblingSpanTasks,2022.2.1,MacIntel,58.82352941,,,,,,,,,,,,,,,,,,,,,,,,,,,,,,,,,,,,,,,,,,,,,,,,,,,,,,,,,,,,,,,,,,,,,,,,,,,,,,,,,,"[2,8,9]",1,0,1,0,1,,,,,,,,,,,,,,,,,,,,,,,,,,,,,,,,,,,,,,,,,,,,,,,,
,,60fefe75aa12dfd51d3fbe4e,2022-09-08_11h53.51.875,CGTgamblingSpanTasks,2022.2.1,MacIntel,58.82352941,,,,,,,,,,,,,,,,,,,,,,,,,,,,,,,,,,,,,,,,,,,,,,,,,,,,,,,,,,,,,,,,,,,,,,,,,,,,,,,,,,"[2,8,9]",2,0,2,0,1,,,,,,,,,,,,,,,,,,,,,,,,,,,,,,,,,,,,,,,,,,,,,,,,
,,60fefe75aa12dfd51d3fbe4e,2022-09-08_11h53.51.875,CGTgamblingSpanTasks,2022.2.1,MacIntel,58.82352941,,,,,,,,,,,,,,,,,,,,,,,,,,,,,,,,,,,,,,,,,,,,,,,,,,,,,,,,,,,,,,,1,,,,,,,,,,,,,,,,,,,,,,,,,289,-0.021111111,-0.394444444,1,0,0,cont_button,0,0,0,0,1,1,,,,,,,,,,,,,,,,,,,,,,,,,,,,,,,,,,,
,,60fefe75aa12dfd51d3fbe4e,2022-09-08_11h53.51.875,CGTgamblingSpanTasks,2022.2.1,MacIntel,58.82352941,,,,,,,,,,,,,,,,,,,,,,,,,,,,,,,,,,,,,,,,,,,,,,,,,,,,,,,,,,,,,,,,,,,,,,,,,,,,,,,,,,"[6,9,8,2]",0,0,0,0,1,,,,,,,,,,,,,,,,,,,,,,,,,,,,,,,,,,,,,,,,,,,,,,,,
,,60fefe75aa12dfd51d3fbe4e,2022-09-08_11h53.51.875,CGTgamblingSpanTasks,2022.2.1,MacIntel,58.82352941,,,,,,,,,,,,,,,,,,,,,,,,,,,,,,,,,,,,,,,,,,,,,,,,,,,,,,,,,,,,,,,,,,,,,,,,,,,,,,,,,,"[6,9,8,2]",1,0,1,0,1,,,,,,,,,,,,,,,,,,,,,,,,,,,,,,,,,,,,,,,,,,,,,,,,
,,60fefe75aa12dfd51d3fbe4e,2022-09-08_11h53.51.875,CGTgamblingSpanTasks,2022.2.1,MacIntel,58.82352941,,,,,,,,,,,,,,,,,,,,,,,,,,,,,,,,,,,,,,,,,,,,,,,,,,,,,,,,,,,,,,,,,,,,,,,,,,,,,,,,,,"[6,9,8,2]",2,0,2,0,1,,,,,,,,,,,,,,,,,,,,,,,,,,,,,,,,,,,,,,,,,,,,,,,,
,,60fefe75aa12dfd51d3fbe4e,2022-09-08_11h53.51.875,CGTgamblingSpanTasks,2022.2.1,MacIntel,58.82352941,,,,,,,,,,,,,,,,,,,,,,,,,,,,,,,,,,,,,,,,,,,,,,,,,,,,,,,,,,,,,,,,,,,,,,,,,,,,,,,,,,"[6,9,8,2]",3,0,3,0,1,,,,,,,,,,,,,,,,,,,,,,,,,,,,,,,,,,,,,,,,,,,,,,,,
,,60fefe75aa12dfd51d3fbe4e,2022-09-08_11h53.51.875,CGTgamblingSpanTasks,2022.2.1,MacIntel,58.82352941,,,,,,,,,,,,,,,,,,,,,,,,,,,,,,,,,,,,,,,,,,,,,,,,,,,,,,,,,,,,,,,1,,,,,,,,,,,,,,,,,,,,,,,,,6982,-0.051111111,-0.421111111,1,0,0,cont_button,0,1,1,1,1,2,,,,,,,,,,,,,,,,,,,,,,,,,,,,,,,,,,,
,,60fefe75aa12dfd51d3fbe4e,2022-09-08_11h53.51.875,CGTgamblingSpanTasks,2022.2.1,MacIntel,58.82352941,,,,,,,,,,,,,,,,,,,,,,,,,,,,,,,,,,,,,,,,,,,,,,,,,,,,,,,,,,,,,,,,,,,,,,,,,,,,,,,,,,"[3,9,1,6,7]",0,0,0,0,1,,,,,,,,,,,,,,,,,,,,,,,,,,,,,,,,,,,,,,,,,,,,,,,,
,,60fefe75aa12dfd51d3fbe4e,2022-09-08_11h53.51.875,CGTgamblingSpanTasks,2022.2.1,MacIntel,58.82352941,,,,,,,,,,,,,,,,,,,,,,,,,,,,,,,,,,,,,,,,,,,,,,,,,,,,,,,,,,,,,,,,,,,,,,,,,,,,,,,,,,"[3,9,1,6,7]",1,0,1,0,1,,,,,,,,,,,,,,,,,,,,,,,,,,,,,,,,,,,,,,,,,,,,,,,,
,,60fefe75aa12dfd51d3fbe4e,2022-09-08_11h53.51.875,CGTgamblingSpanTasks,2022.2.1,MacIntel,58.82352941,,,,,,,,,,,,,,,,,,,,,,,,,,,,,,,,,,,,,,,,,,,,,,,,,,,,,,,,,,,,,,,,,,,,,,,,,,,,,,,,,,"[3,9,1,6,7]",2,0,2,0,1,,,,,,,,,,,,,,,,,,,,,,,,,,,,,,,,,,,,,,,,,,,,,,,,
,,60fefe75aa12dfd51d3fbe4e,2022-09-08_11h53.51.875,CGTgamblingSpanTasks,2022.2.1,MacIntel,58.82352941,,,,,,,,,,,,,,,,,,,,,,,,,,,,,,,,,,,,,,,,,,,,,,,,,,,,,,,,,,,,,,,,,,,,,,,,,,,,,,,,,,"[3,9,1,6,7]",3,0,3,0,1,,,,,,,,,,,,,,,,,,,,,,,,,,,,,,,,,,,,,,,,,,,,,,,,
,,60fefe75aa12dfd51d3fbe4e,2022-09-08_11h53.51.875,CGTgamblingSpanTasks,2022.2.1,MacIntel,58.82352941,,,,,,,,,,,,,,,,,,,,,,,,,,,,,,,,,,,,,,,,,,,,,,,,,,,,,,,,,,,,,,,,,,,,,,,,,,,,,,,,,,"[3,9,1,6,7]",4,0,4,0,1,,,,,,,,,,,,,,,,,,,,,,,,,,,,,,,,,,,,,,,,,,,,,,,,
,,60fefe75aa12dfd51d3fbe4e,2022-09-08_11h53.51.875,CGTgamblingSpanTasks,2022.2.1,MacIntel,58.82352941,,,,,,,,,,,,,,,,,,,,,,,,,,,,,,,,,,,,,,,,,,,,,,,,,,,,,,,,,,,,,,,1,,,,,,,,,,,,,,,,,,,,,,,,,39167,-0.07,-0.387777778,1,0,0,cont_button,0,2,2,2,1,3,,,,,,,,,,,,,,,,,,,,,,,,,,,,,,,,,,,
,,60fefe75aa12dfd51d3fbe4e,2022-09-08_11h53.51.875,CGTgamblingSpanTasks,2022.2.1,MacIntel,58.82352941,,,,,,,,,,,,,,,,,,,,,,,,,,,,,,,,,,,,,,,,,,,,,,,,,,,,,,,,,,,,,,,,,,,,,,,,,,,,,,,,,,"[2,9,8,5,7,3]",0,0,0,0,1,,,,,,,,,,,,,,,,,,,,,,,,,,,,,,,,,,,,,,,,,,,,,,,,
,,60fefe75aa12dfd51d3fbe4e,2022-09-08_11h53.51.875,CGTgamblingSpanTasks,2022.2.1,MacIntel,58.82352941,,,,,,,,,,,,,,,,,,,,,,,,,,,,,,,,,,,,,,,,,,,,,,,,,,,,,,,,,,,,,,,,,,,,,,,,,,,,,,,,,,"[2,9,8,5,7,3]",1,0,1,0,1,,,,,,,,,,,,,,,,,,,,,,,,,,,,,,,,,,,,,,,,,,,,,,,,
,,60fefe75aa12dfd51d3fbe4e,2022-09-08_11h53.51.875,CGTgamblingSpanTasks,2022.2.1,MacIntel,58.82352941,,,,,,,,,,,,,,,,,,,,,,,,,,,,,,,,,,,,,,,,,,,,,,,,,,,,,,,,,,,,,,,,,,,,,,,,,,,,,,,,,,"[2,9,8,5,7,3]",2,0,2,0,1,,,,,,,,,,,,,,,,,,,,,,,,,,,,,,,,,,,,,,,,,,,,,,,,
,,60fefe75aa12dfd51d3fbe4e,2022-09-08_11h53.51.875,CGTgamblingSpanTasks,2022.2.1,MacIntel,58.82352941,,,,,,,,,,,,,,,,,,,,,,,,,,,,,,,,,,,,,,,,,,,,,,,,,,,,,,,,,,,,,,,,,,,,,,,,,,,,,,,,,,"[2,9,8,5,7,3]",3,0,3,0,1,,,,,,,,,,,,,,,,,,,,,,,,,,,,,,,,,,,,,,,,,,,,,,,,
,,60fefe75aa12dfd51d3fbe4e,2022-09-08_11h53.51.875,CGTgamblingSpanTasks,2022.2.1,MacIntel,58.82352941,,,,,,,,,,,,,,,,,,,,,,,,,,,,,,,,,,,,,,,,,,,,,,,,,,,,,,,,,,,,,,,,,,,,,,,,,,,,,,,,,,"[2,9,8,5,7,3]",4,0,4,0,1,,,,,,,,,,,,,,,,,,,,,,,,,,,,,,,,,,,,,,,,,,,,,,,,
,,60fefe75aa12dfd51d3fbe4e,2022-09-08_11h53.51.875,CGTgamblingSpanTasks,2022.2.1,MacIntel,58.82352941,,,,,,,,,,,,,,,,,,,,,,,,,,,,,,,,,,,,,,,,,,,,,,,,,,,,,,,,,,,,,,,,,,,,,,,,,,,,,,,,,,"[2,9,8,5,7,3]",5,0,5,0,1,,,,,,,,,,,,,,,,,,,,,,,,,,,,,,,,,,,,,,,,,,,,,,,,
,,60fefe75aa12dfd51d3fbe4e,2022-09-08_11h53.51.875,CGTgamblingSpanTasks,2022.2.1,MacIntel,58.82352941,,,,,,,,,,,,,,,,,,,,,,,,,,,,,,,,,,,,,,,,,,,,,,,,,,,,,,,,,,,,,,,1,,,,,,,,,,,,,,,,,,,,,,,,,298573,-0.071111111,-0.397777778,1,0,0,cont_button,0,3,3,3,1,4,,,,,,,,,,,,,,,,,,,,,,,,,,,,,,,,,,,
,,60fefe75aa12dfd51d3fbe4e,2022-09-08_11h53.51.875,CGTgamblingSpanTasks,2022.2.1,MacIntel,58.82352941,,,,,,,,,,,,,,,,,,,,,,,,,,,,,,,,,,,,,,,,,,,,,,,,,,,,,,,,,,,,,,,,,,,,,,,,,,,,,,,,,,"[8,1,6,7,2,9,3]",0,0,0,0,1,,,,,,,,,,,,,,,,,,,,,,,,,,,,,,,,,,,,,,,,,,,,,,,,
,,60fefe75aa12dfd51d3fbe4e,2022-09-08_11h53.51.875,CGTgamblingSpanTasks,2022.2.1,MacIntel,58.82352941,,,,,,,,,,,,,,,,,,,,,,,,,,,,,,,,,,,,,,,,,,,,,,,,,,,,,,,,,,,,,,,,,,,,,,,,,,,,,,,,,,"[8,1,6,7,2,9,3]",1,0,1,0,1,,,,,,,,,,,,,,,,,,,,,,,,,,,,,,,,,,,,,,,,,,,,,,,,
,,60fefe75aa12dfd51d3fbe4e,2022-09-08_11h53.51.875,CGTgamblingSpanTasks,2022.2.1,MacIntel,58.82352941,,,,,,,,,,,,,,,,,,,,,,,,,,,,,,,,,,,,,,,,,,,,,,,,,,,,,,,,,,,,,,,,,,,,,,,,,,,,,,,,,,"[8,1,6,7,2,9,3]",2,0,2,0,1,,,,,,,,,,,,,,,,,,,,,,,,,,,,,,,,,,,,,,,,,,,,,,,,
,,60fefe75aa12dfd51d3fbe4e,2022-09-08_11h53.51.875,CGTgamblingSpanTasks,2022.2.1,MacIntel,58.82352941,,,,,,,,,,,,,,,,,,,,,,,,,,,,,,,,,,,,,,,,,,,,,,,,,,,,,,,,,,,,,,,,,,,,,,,,,,,,,,,,,,"[8,1,6,7,2,9,3]",3,0,3,0,1,,,,,,,,,,,,,,,,,,,,,,,,,,,,,,,,,,,,,,,,,,,,,,,,
,,60fefe75aa12dfd51d3fbe4e,2022-09-08_11h53.51.875,CGTgamblingSpanTasks,2022.2.1,MacIntel,58.82352941,,,,,,,,,,,,,,,,,,,,,,,,,,,,,,,,,,,,,,,,,,,,,,,,,,,,,,,,,,,,,,,,,,,,,,,,,,,,,,,,,,"[8,1,6,7,2,9,3]",4,0,4,0,1,,,,,,,,,,,,,,,,,,,,,,,,,,,,,,,,,,,,,,,,,,,,,,,,
,,60fefe75aa12dfd51d3fbe4e,2022-09-08_11h53.51.875,CGTgamblingSpanTasks,2022.2.1,MacIntel,58.82352941,,,,,,,,,,,,,,,,,,,,,,,,,,,,,,,,,,,,,,,,,,,,,,,,,,,,,,,,,,,,,,,,,,,,,,,,,,,,,,,,,,"[8,1,6,7,2,9,3]",5,0,5,0,1,,,,,,,,,,,,,,,,,,,,,,,,,,,,,,,,,,,,,,,,,,,,,,,,
,,60fefe75aa12dfd51d3fbe4e,2022-09-08_11h53.51.875,CGTgamblingSpanTasks,2022.2.1,MacIntel,58.82352941,,,,,,,,,,,,,,,,,,,,,,,,,,,,,,,,,,,,,,,,,,,,,,,,,,,,,,,,,,,,,,,,,,,,,,,,,,,,,,,,,,"[8,1,6,7,2,9,3]",6,0,6,0,1,,,,,,,,,,,,,,,,,,,,,,,,,,,,,,,,,,,,,,,,,,,,,,,,
,,60fefe75aa12dfd51d3fbe4e,2022-09-08_11h53.51.875,CGTgamblingSpanTasks,2022.2.1,MacIntel,58.82352941,,,,,,,,,,,,,,,,,,,,,,,,,,,,,,,,,,,,,,,,,,,,,,,,,,,,,,,,,,,,,,,1,,,,,,,,,,,,,,,,,,,,,,,,,8167293,-0.074444444,-0.393333333,1,0,0,cont_button,0,4,4,4,1,5,,,,,,,,,,,,,,,,,,,,,,,,,,,,,,,,,,,
,,60fefe75aa12dfd51d3fbe4e,2022-09-08_11h53.51.875,CGTgamblingSpanTasks,2022.2.1,MacIntel,58.82352941,,,,,,,,,,,,,,,,,,,,,,,,,,,,,,,,,,,,,,,,,,,,,,,,,,,,,,,,,,,,,,,,,,,,,,,,,,,,,,,,,,"[6,1,7,2,8,4,3,9]",0,0,0,0,1,,,,,,,,,,,,,,,,,,,,,,,,,,,,,,,,,,,,,,,,,,,,,,,,
,,60fefe75aa12dfd51d3fbe4e,2022-09-08_11h53.51.875,CGTgamblingSpanTasks,2022.2.1,MacIntel,58.82352941,,,,,,,,,,,,,,,,,,,,,,,,,,,,,,,,,,,,,,,,,,,,,,,,,,,,,,,,,,,,,,,,,,,,,,,,,,,,,,,,,,"[6,1,7,2,8,4,3,9]",1,0,1,0,1,,,,,,,,,,,,,,,,,,,,,,,,,,,,,,,,,,,,,,,,,,,,,,,,
,,60fefe75aa12dfd51d3fbe4e,2022-09-08_11h53.51.875,CGTgamblingSpanTasks,2022.2.1,MacIntel,58.82352941,,,,,,,,,,,,,,,,,,,,,,,,,,,,,,,,,,,,,,,,,,,,,,,,,,,,,,,,,,,,,,,,,,,,,,,,,,,,,,,,,,"[6,1,7,2,8,4,3,9]",2,0,2,0,1,,,,,,,,,,,,,,,,,,,,,,,,,,,,,,,,,,,,,,,,,,,,,,,,
,,60fefe75aa12dfd51d3fbe4e,2022-09-08_11h53.51.875,CGTgamblingSpanTasks,2022.2.1,MacIntel,58.82352941,,,,,,,,,,,,,,,,,,,,,,,,,,,,,,,,,,,,,,,,,,,,,,,,,,,,,,,,,,,,,,,,,,,,,,,,,,,,,,,,,,"[6,1,7,2,8,4,3,9]",3,0,3,0,1,,,,,,,,,,,,,,,,,,,,,,,,,,,,,,,,,,,,,,,,,,,,,,,,
,,60fefe75aa12dfd51d3fbe4e,2022-09-08_11h53.51.875,CGTgamblingSpanTasks,2022.2.1,MacIntel,58.82352941,,,,,,,,,,,,,,,,,,,,,,,,,,,,,,,,,,,,,,,,,,,,,,,,,,,,,,,,,,,,,,,,,,,,,,,,,,,,,,,,,,"[6,1,7,2,8,4,3,9]",4,0,4,0,1,,,,,,,,,,,,,,,,,,,,,,,,,,,,,,,,,,,,,,,,,,,,,,,,
,,60fefe75aa12dfd51d3fbe4e,2022-09-08_11h53.51.875,CGTgamblingSpanTasks,2022.2.1,MacIntel,58.82352941,,,,,,,,,,,,,,,,,,,,,,,,,,,,,,,,,,,,,,,,,,,,,,,,,,,,,,,,,,,,,,,,,,,,,,,,,,,,,,,,,,"[6,1,7,2,8,4,3,9]",5,0,5,0,1,,,,,,,,,,,,,,,,,,,,,,,,,,,,,,,,,,,,,,,,,,,,,,,,
,,60fefe75aa12dfd51d3fbe4e,2022-09-08_11h53.51.875,CGTgamblingSpanTasks,2022.2.1,MacIntel,58.82352941,,,,,,,,,,,,,,,,,,,,,,,,,,,,,,,,,,,,,,,,,,,,,,,,,,,,,,,,,,,,,,,,,,,,,,,,,,,,,,,,,,"[6,1,7,2,8,4,3,9]",6,0,6,0,1,,,,,,,,,,,,,,,,,,,,,,,,,,,,,,,,,,,,,,,,,,,,,,,,
,,60fefe75aa12dfd51d3fbe4e,2022-09-08_11h53.51.875,CGTgamblingSpanTasks,2022.2.1,MacIntel,58.82352941,,,,,,,,,,,,,,,,,,,,,,,,,,,,,,,,,,,,,,,,,,,,,,,,,,,,,,,,,,,,,,,,,,,,,,,,,,,,,,,,,,"[6,1,7,2,8,4,3,9]",7,0,7,0,1,,,,,,,,,,,,,,,,,,,,,,,,,,,,,,,,,,,,,,,,,,,,,,,,
,,60fefe75aa12dfd51d3fbe4e,2022-09-08_11h53.51.875,CGTgamblingSpanTasks,2022.2.1,MacIntel,58.82352941,,,,,,,,,,,,,,,,,,,,,,,,,,,,,,,,,,,,,,,,,,,,,,,,,,,,,,,,,,,,,,,1,,,,,,,,,,,,,,,,,,,,,,,,,61728439,-0.016666667,-0.412222222,1,0,0,cont_button,0,5,5,5,1,6,,,,,,,,,,,,,,,,,,,,,,,,,,,,,,,,,,,
,,60fefe75aa12dfd51d3fbe4e,2022-09-08_11h53.51.875,CGTgamblingSpanTasks,2022.2.1,MacIntel,58.82352941,,,,,,,,,,,,,,,,,,,,,,,,,,,,,,,,,,,,,,,,,,,,,,,,,,,,,,,,,,,,,,,,,,,,,,,,,,,,,,,,,,"[9,3,6,7,1,5,8,4,2]",0,0,0,0,1,,,,,,,,,,,,,,,,,,,,,,,,,,,,,,,,,,,,,,,,,,,,,,,,
,,60fefe75aa12dfd51d3fbe4e,2022-09-08_11h53.51.875,CGTgamblingSpanTasks,2022.2.1,MacIntel,58.82352941,,,,,,,,,,,,,,,,,,,,,,,,,,,,,,,,,,,,,,,,,,,,,,,,,,,,,,,,,,,,,,,,,,,,,,,,,,,,,,,,,,"[9,3,6,7,1,5,8,4,2]",1,0,1,0,1,,,,,,,,,,,,,,,,,,,,,,,,,,,,,,,,,,,,,,,,,,,,,,,,
,,60fefe75aa12dfd51d3fbe4e,2022-09-08_11h53.51.875,CGTgamblingSpanTasks,2022.2.1,MacIntel,58.82352941,,,,,,,,,,,,,,,,,,,,,,,,,,,,,,,,,,,,,,,,,,,,,,,,,,,,,,,,,,,,,,,,,,,,,,,,,,,,,,,,,,"[9,3,6,7,1,5,8,4,2]",2,0,2,0,1,,,,,,,,,,,,,,,,,,,,,,,,,,,,,,,,,,,,,,,,,,,,,,,,
,,60fefe75aa12dfd51d3fbe4e,2022-09-08_11h53.51.875,CGTgamblingSpanTasks,2022.2.1,MacIntel,58.82352941,,,,,,,,,,,,,,,,,,,,,,,,,,,,,,,,,,,,,,,,,,,,,,,,,,,,,,,,,,,,,,,,,,,,,,,,,,,,,,,,,,"[9,3,6,7,1,5,8,4,2]",3,0,3,0,1,,,,,,,,,,,,,,,,,,,,,,,,,,,,,,,,,,,,,,,,,,,,,,,,
,,60fefe75aa12dfd51d3fbe4e,2022-09-08_11h53.51.875,CGTgamblingSpanTasks,2022.2.1,MacIntel,58.82352941,,,,,,,,,,,,,,,,,,,,,,,,,,,,,,,,,,,,,,,,,,,,,,,,,,,,,,,,,,,,,,,,,,,,,,,,,,,,,,,,,,"[9,3,6,7,1,5,8,4,2]",4,0,4,0,1,,,,,,,,,,,,,,,,,,,,,,,,,,,,,,,,,,,,,,,,,,,,,,,,
,,60fefe75aa12dfd51d3fbe4e,2022-09-08_11h53.51.875,CGTgamblingSpanTasks,2022.2.1,MacIntel,58.82352941,,,,,,,,,,,,,,,,,,,,,,,,,,,,,,,,,,,,,,,,,,,,,,,,,,,,,,,,,,,,,,,,,,,,,,,,,,,,,,,,,,"[9,3,6,7,1,5,8,4,2]",5,0,5,0,1,,,,,,,,,,,,,,,,,,,,,,,,,,,,,,,,,,,,,,,,,,,,,,,,
,,60fefe75aa12dfd51d3fbe4e,2022-09-08_11h53.51.875,CGTgamblingSpanTasks,2022.2.1,MacIntel,58.82352941,,,,,,,,,,,,,,,,,,,,,,,,,,,,,,,,,,,,,,,,,,,,,,,,,,,,,,,,,,,,,,,,,,,,,,,,,,,,,,,,,,"[9,3,6,7,1,5,8,4,2]",6,0,6,0,1,,,,,,,,,,,,,,,,,,,,,,,,,,,,,,,,,,,,,,,,,,,,,,,,
,,60fefe75aa12dfd51d3fbe4e,2022-09-08_11h53.51.875,CGTgamblingSpanTasks,2022.2.1,MacIntel,58.82352941,,,,,,,,,,,,,,,,,,,,,,,,,,,,,,,,,,,,,,,,,,,,,,,,,,,,,,,,,,,,,,,,,,,,,,,,,,,,,,,,,,"[9,3,6,7,1,5,8,4,2]",7,0,7,0,1,,,,,,,,,,,,,,,,,,,,,,,,,,,,,,,,,,,,,,,,,,,,,,,,
,,60fefe75aa12dfd51d3fbe4e,2022-09-08_11h53.51.875,CGTgamblingSpanTasks,2022.2.1,MacIntel,58.82352941,,,,,,,,,,,,,,,,,,,,,,,,,,,,,,,,,,,,,,,,,,,,,,,,,,,,,,,,,,,,,,,,,,,,,,,,,,,,,,,,,,"[9,3,6,7,1,5,8,4,2]",8,0,8,0,1,,,,,,,,,,,,,,,,,,,,,,,,,,,,,,,,,,,,,,,,,,,,,,,,
,,60fefe75aa12dfd51d3fbe4e,2022-09-08_11h53.51.875,CGTgamblingSpanTasks,2022.2.1,MacIntel,58.82352941,,,,,,,,,,,,,,,,,,,,,,,,,,,,,,,,,,,,,,,,,,,,,,,,,,,,,,,,,,,,,,,1,,,,,,,,,,,,,,,,,,,,,,,,,936715842,-0.035555556,-0.403333333,1,0,0,cont_button,0,6,6,6,1,7,,,,,,,,,,,,,,,,,,,,,,,,,,,,,,,,,,,
,,60fefe75aa12dfd51d3fbe4e,2022-09-08_11h53.51.875,CGTgamblingSpanTasks,2022.2.1,MacIntel,58.82352941,,,,,,,,,,,,,,,,,,,,,,,,,,,,,,,,,,,,,,,,,,,,,,,,,,,,,,,,,,,,,,,,,,,,,,,,,,,,,,,,,,"[3,9,7,5,4,2,6,8,1,1]",0,0,0,0,1,,,,,,,,,,,,,,,,,,,,,,,,,,,,,,,,,,,,,,,,,,,,,,,,
,,60fefe75aa12dfd51d3fbe4e,2022-09-08_11h53.51.875,CGTgamblingSpanTasks,2022.2.1,MacIntel,58.82352941,,,,,,,,,,,,,,,,,,,,,,,,,,,,,,,,,,,,,,,,,,,,,,,,,,,,,,,,,,,,,,,,,,,,,,,,,,,,,,,,,,"[3,9,7,5,4,2,6,8,1,1]",1,0,1,0,1,,,,,,,,,,,,,,,,,,,,,,,,,,,,,,,,,,,,,,,,,,,,,,,,
,,60fefe75aa12dfd51d3fbe4e,2022-09-08_11h53.51.875,CGTgamblingSpanTasks,2022.2.1,MacIntel,58.82352941,,,,,,,,,,,,,,,,,,,,,,,,,,,,,,,,,,,,,,,,,,,,,,,,,,,,,,,,,,,,,,,,,,,,,,,,,,,,,,,,,,"[3,9,7,5,4,2,6,8,1,1]",2,0,2,0,1,,,,,,,,,,,,,,,,,,,,,,,,,,,,,,,,,,,,,,,,,,,,,,,,
,,60fefe75aa12dfd51d3fbe4e,2022-09-08_11h53.51.875,CGTgamblingSpanTasks,2022.2.1,MacIntel,58.82352941,,,,,,,,,,,,,,,,,,,,,,,,,,,,,,,,,,,,,,,,,,,,,,,,,,,,,,,,,,,,,,,,,,,,,,,,,,,,,,,,,,"[3,9,7,5,4,2,6,8,1,1]",3,0,3,0,1,,,,,,,,,,,,,,,,,,,,,,,,,,,,,,,,,,,,,,,,,,,,,,,,
,,60fefe75aa12dfd51d3fbe4e,2022-09-08_11h53.51.875,CGTgamblingSpanTasks,2022.2.1,MacIntel,58.82352941,,,,,,,,,,,,,,,,,,,,,,,,,,,,,,,,,,,,,,,,,,,,,,,,,,,,,,,,,,,,,,,,,,,,,,,,,,,,,,,,,,"[3,9,7,5,4,2,6,8,1,1]",4,0,4,0,1,,,,,,,,,,,,,,,,,,,,,,,,,,,,,,,,,,,,,,,,,,,,,,,,
,,60fefe75aa12dfd51d3fbe4e,2022-09-08_11h53.51.875,CGTgamblingSpanTasks,2022.2.1,MacIntel,58.82352941,,,,,,,,,,,,,,,,,,,,,,,,,,,,,,,,,,,,,,,,,,,,,,,,,,,,,,,,,,,,,,,,,,,,,,,,,,,,,,,,,,"[3,9,7,5,4,2,6,8,1,1]",5,0,5,0,1,,,,,,,,,,,,,,,,,,,,,,,,,,,,,,,,,,,,,,,,,,,,,,,,
,,60fefe75aa12dfd51d3fbe4e,2022-09-08_11h53.51.875,CGTgamblingSpanTasks,2022.2.1,MacIntel,58.82352941,,,,,,,,,,,,,,,,,,,,,,,,,,,,,,,,,,,,,,,,,,,,,,,,,,,,,,,,,,,,,,,,,,,,,,,,,,,,,,,,,,"[3,9,7,5,4,2,6,8,1,1]",6,0,6,0,1,,,,,,,,,,,,,,,,,,,,,,,,,,,,,,,,,,,,,,,,,,,,,,,,
,,60fefe75aa12dfd51d3fbe4e,2022-09-08_11h53.51.875,CGTgamblingSpanTasks,2022.2.1,MacIntel,58.82352941,,,,,,,,,,,,,,,,,,,,,,,,,,,,,,,,,,,,,,,,,,,,,,,,,,,,,,,,,,,,,,,,,,,,,,,,,,,,,,,,,,"[3,9,7,5,4,2,6,8,1,1]",7,0,7,0,1,,,,,,,,,,,,,,,,,,,,,,,,,,,,,,,,,,,,,,,,,,,,,,,,
,,60fefe75aa12dfd51d3fbe4e,2022-09-08_11h53.51.875,CGTgamblingSpanTasks,2022.2.1,MacIntel,58.82352941,,,,,,,,,,,,,,,,,,,,,,,,,,,,,,,,,,,,,,,,,,,,,,,,,,,,,,,,,,,,,,,,,,,,,,,,,,,,,,,,,,"[3,9,7,5,4,2,6,8,1,1]",8,0,8,0,1,,,,,,,,,,,,,,,,,,,,,,,,,,,,,,,,,,,,,,,,,,,,,,,,
,,60fefe75aa12dfd51d3fbe4e,2022-09-08_11h53.51.875,CGTgamblingSpanTasks,2022.2.1,MacIntel,58.82352941,,,,,,,,,,,,,,,,,,,,,,,,,,,,,,,,,,,,,,,,,,,,,,,,,,,,,,,,,,,,,,,,,,,,,,,,,,,,,,,,,,"[3,9,7,5,4,2,6,8,1,1]",9,0,9,0,1,,,,,,,,,,,,,,,,,,,,,,,,,,,,,,,,,,,,,,,,,,,,,,,,
,,60fefe75aa12dfd51d3fbe4e,2022-09-08_11h53.51.875,CGTgamblingSpanTasks,2022.2.1,MacIntel,58.82352941,,,,,,,,,,,,,,,,,,,,,,,,,,,,,,,,,,,,,,,,,,,,,,,,,,,,,,,,,,,,,,,0,,,,,,,,,,,,,,,,,,,,,,,,,3974562118,-0.07,-0.413333333,1,0,0,cont_button,0,7,7,7,1,8,,,,,,,,,,,,,,,,,,,,,,,,,,,,,,,,,,,
,,60fefe75aa12dfd51d3fbe4e,2022-09-08_11h53.51.875,CGTgamblingSpanTasks,2022.2.1,MacIntel,58.82352941,,,,,,,,,,,,,,,,,,,,,,,,,,,,,,,,,,,,,,,,,,,,,,,,,,,,,,,,,,,,,,,,,,,,,,,,,,,,,,,,,,"[7,4,8,9,2,5,3,6,1,1]",0,0,0,0,1,,,,,,,,,,,,,,,,,,,,,,,,,,,,,,,,,,,,,,,,,,,,,,,,
,,60fefe75aa12dfd51d3fbe4e,2022-09-08_11h53.51.875,CGTgamblingSpanTasks,2022.2.1,MacIntel,58.82352941,,,,,,,,,,,,,,,,,,,,,,,,,,,,,,,,,,,,,,,,,,,,,,,,,,,,,,,,,,,,,,,,,,,,,,,,,,,,,,,,,,"[7,4,8,9,2,5,3,6,1,1]",1,0,1,0,1,,,,,,,,,,,,,,,,,,,,,,,,,,,,,,,,,,,,,,,,,,,,,,,,
,,60fefe75aa12dfd51d3fbe4e,2022-09-08_11h53.51.875,CGTgamblingSpanTasks,2022.2.1,MacIntel,58.82352941,,,,,,,,,,,,,,,,,,,,,,,,,,,,,,,,,,,,,,,,,,,,,,,,,,,,,,,,,,,,,,,,,,,,,,,,,,,,,,,,,,"[7,4,8,9,2,5,3,6,1,1]",2,0,2,0,1,,,,,,,,,,,,,,,,,,,,,,,,,,,,,,,,,,,,,,,,,,,,,,,,
,,60fefe75aa12dfd51d3fbe4e,2022-09-08_11h53.51.875,CGTgamblingSpanTasks,2022.2.1,MacIntel,58.82352941,,,,,,,,,,,,,,,,,,,,,,,,,,,,,,,,,,,,,,,,,,,,,,,,,,,,,,,,,,,,,,,,,,,,,,,,,,,,,,,,,,"[7,4,8,9,2,5,3,6,1,1]",3,0,3,0,1,,,,,,,,,,,,,,,,,,,,,,,,,,,,,,,,,,,,,,,,,,,,,,,,
,,60fefe75aa12dfd51d3fbe4e,2022-09-08_11h53.51.875,CGTgamblingSpanTasks,2022.2.1,MacIntel,58.82352941,,,,,,,,,,,,,,,,,,,,,,,,,,,,,,,,,,,,,,,,,,,,,,,,,,,,,,,,,,,,,,,,,,,,,,,,,,,,,,,,,,"[7,4,8,9,2,5,3,6,1,1]",4,0,4,0,1,,,,,,,,,,,,,,,,,,,,,,,,,,,,,,,,,,,,,,,,,,,,,,,,
,,60fefe75aa12dfd51d3fbe4e,2022-09-08_11h53.51.875,CGTgamblingSpanTasks,2022.2.1,MacIntel,58.82352941,,,,,,,,,,,,,,,,,,,,,,,,,,,,,,,,,,,,,,,,,,,,,,,,,,,,,,,,,,,,,,,,,,,,,,,,,,,,,,,,,,"[7,4,8,9,2,5,3,6,1,1]",5,0,5,0,1,,,,,,,,,,,,,,,,,,,,,,,,,,,,,,,,,,,,,,,,,,,,,,,,
,,60fefe75aa12dfd51d3fbe4e,2022-09-08_11h53.51.875,CGTgamblingSpanTasks,2022.2.1,MacIntel,58.82352941,,,,,,,,,,,,,,,,,,,,,,,,,,,,,,,,,,,,,,,,,,,,,,,,,,,,,,,,,,,,,,,,,,,,,,,,,,,,,,,,,,"[7,4,8,9,2,5,3,6,1,1]",6,0,6,0,1,,,,,,,,,,,,,,,,,,,,,,,,,,,,,,,,,,,,,,,,,,,,,,,,
,,60fefe75aa12dfd51d3fbe4e,2022-09-08_11h53.51.875,CGTgamblingSpanTasks,2022.2.1,MacIntel,58.82352941,,,,,,,,,,,,,,,,,,,,,,,,,,,,,,,,,,,,,,,,,,,,,,,,,,,,,,,,,,,,,,,,,,,,,,,,,,,,,,,,,,"[7,4,8,9,2,5,3,6,1,1]",7,0,7,0,1,,,,,,,,,,,,,,,,,,,,,,,,,,,,,,,,,,,,,,,,,,,,,,,,
,,60fefe75aa12dfd51d3fbe4e,2022-09-08_11h53.51.875,CGTgamblingSpanTasks,2022.2.1,MacIntel,58.82352941,,,,,,,,,,,,,,,,,,,,,,,,,,,,,,,,,,,,,,,,,,,,,,,,,,,,,,,,,,,,,,,,,,,,,,,,,,,,,,,,,,"[7,4,8,9,2,5,3,6,1,1]",8,0,8,0,1,,,,,,,,,,,,,,,,,,,,,,,,,,,,,,,,,,,,,,,,,,,,,,,,
,,60fefe75aa12dfd51d3fbe4e,2022-09-08_11h53.51.875,CGTgamblingSpanTasks,2022.2.1,MacIntel,58.82352941,,,,,,,,,,,,,,,,,,,,,,,,,,,,,,,,,,,,,,,,,,,,,,,,,,,,,,,,,,,,,,,,,,,,,,,,,,,,,,,,,,"[7,4,8,9,2,5,3,6,1,1]",9,0,9,0,1,,,,,,,,,,,,,,,,,,,,,,,,,,,,,,,,,,,,,,,,,,,,,,,,
,,60fefe75aa12dfd51d3fbe4e,2022-09-08_11h53.51.875,CGTgamblingSpanTasks,2022.2.1,MacIntel,58.82352941,,,,,,,,,,,,,,,,,,,,,,,,,,,,,,,,,,,,,,,,,,,,,,,,,,,,,,,,,,,,,,,0,,,,,,,,,,,,,,,,,,,,,,,,,7489523161,-0.075555556,-0.422222222,1,0,0,cont_button,0,8,8,8,1,9,,,,,,,,,,,,,,,,,,,,,,,,,,,,,,,,,,,
,,60fefe75aa12dfd51d3fbe4e,2022-09-08_11h53.51.875,CGTgamblingSpanTasks,2022.2.1,MacIntel,58.82352941,,,,,,,,,,,,,,,,,,,,,,,,,,,,,,,,,,,,,,,,,,,,,,,,,,,,,,,,,,,,,,,,,,,,,,,,,,,,,,,,,,"[5,6,4,3,8,2,1,7,9]",0,0,0,0,1,,,,,,,,,,,,,,,,,,,,,,,,,,,,,,,,,,,,,,,,,,,,,,,,
,,60fefe75aa12dfd51d3fbe4e,2022-09-08_11h53.51.875,CGTgamblingSpanTasks,2022.2.1,MacIntel,58.82352941,,,,,,,,,,,,,,,,,,,,,,,,,,,,,,,,,,,,,,,,,,,,,,,,,,,,,,,,,,,,,,,,,,,,,,,,,,,,,,,,,,"[5,6,4,3,8,2,1,7,9]",1,0,1,0,1,,,,,,,,,,,,,,,,,,,,,,,,,,,,,,,,,,,,,,,,,,,,,,,,
,,60fefe75aa12dfd51d3fbe4e,2022-09-08_11h53.51.875,CGTgamblingSpanTasks,2022.2.1,MacIntel,58.82352941,,,,,,,,,,,,,,,,,,,,,,,,,,,,,,,,,,,,,,,,,,,,,,,,,,,,,,,,,,,,,,,,,,,,,,,,,,,,,,,,,,"[5,6,4,3,8,2,1,7,9]",2,0,2,0,1,,,,,,,,,,,,,,,,,,,,,,,,,,,,,,,,,,,,,,,,,,,,,,,,
,,60fefe75aa12dfd51d3fbe4e,2022-09-08_11h53.51.875,CGTgamblingSpanTasks,2022.2.1,MacIntel,58.82352941,,,,,,,,,,,,,,,,,,,,,,,,,,,,,,,,,,,,,,,,,,,,,,,,,,,,,,,,,,,,,,,,,,,,,,,,,,,,,,,,,,"[5,6,4,3,8,2,1,7,9]",3,0,3,0,1,,,,,,,,,,,,,,,,,,,,,,,,,,,,,,,,,,,,,,,,,,,,,,,,
,,60fefe75aa12dfd51d3fbe4e,2022-09-08_11h53.51.875,CGTgamblingSpanTasks,2022.2.1,MacIntel,58.82352941,,,,,,,,,,,,,,,,,,,,,,,,,,,,,,,,,,,,,,,,,,,,,,,,,,,,,,,,,,,,,,,,,,,,,,,,,,,,,,,,,,"[5,6,4,3,8,2,1,7,9]",4,0,4,0,1,,,,,,,,,,,,,,,,,,,,,,,,,,,,,,,,,,,,,,,,,,,,,,,,
,,60fefe75aa12dfd51d3fbe4e,2022-09-08_11h53.51.875,CGTgamblingSpanTasks,2022.2.1,MacIntel,58.82352941,,,,,,,,,,,,,,,,,,,,,,,,,,,,,,,,,,,,,,,,,,,,,,,,,,,,,,,,,,,,,,,,,,,,,,,,,,,,,,,,,,"[5,6,4,3,8,2,1,7,9]",5,0,5,0,1,,,,,,,,,,,,,,,,,,,,,,,,,,,,,,,,,,,,,,,,,,,,,,,,
,,60fefe75aa12dfd51d3fbe4e,2022-09-08_11h53.51.875,CGTgamblingSpanTasks,2022.2.1,MacIntel,58.82352941,,,,,,,,,,,,,,,,,,,,,,,,,,,,,,,,,,,,,,,,,,,,,,,,,,,,,,,,,,,,,,,,,,,,,,,,,,,,,,,,,,"[5,6,4,3,8,2,1,7,9]",6,0,6,0,1,,,,,,,,,,,,,,,,,,,,,,,,,,,,,,,,,,,,,,,,,,,,,,,,
,,60fefe75aa12dfd51d3fbe4e,2022-09-08_11h53.51.875,CGTgamblingSpanTasks,2022.2.1,MacIntel,58.82352941,,,,,,,,,,,,,,,,,,,,,,,,,,,,,,,,,,,,,,,,,,,,,,,,,,,,,,,,,,,,,,,,,,,,,,,,,,,,,,,,,,"[5,6,4,3,8,2,1,7,9]",7,0,7,0,1,,,,,,,,,,,,,,,,,,,,,,,,,,,,,,,,,,,,,,,,,,,,,,,,
,,60fefe75aa12dfd51d3fbe4e,2022-09-08_11h53.51.875,CGTgamblingSpanTasks,2022.2.1,MacIntel,58.82352941,,,,,,,,,,,,,,,,,,,,,,,,,,,,,,,,,,,,,,,,,,,,,,,,,,,,,,,,,,,,,,,,,,,,,,,,,,,,,,,,,,"[5,6,4,3,8,2,1,7,9]",8,0,8,0,1,,,,,,,,,,,,,,,,,,,,,,,,,,,,,,,,,,,,,,,,,,,,,,,,
,,60fefe75aa12dfd51d3fbe4e,2022-09-08_11h53.51.875,CGTgamblingSpanTasks,2022.2.1,MacIntel,58.82352941,,,,,,,,,,,,,,,,,,,,,,,,,,,,,,,,,,,,,,,,,,,,,,,,,,,,,,,,,,,,,,,1,,,,,,,,,,,,,,,,,,,,,,,,,564382179,-0.08,-0.392222222,1,0,0,cont_button,0,9,9,9,1,10,,,,,,,,,,,,,,,,,,,,,,,,,,,,,,,,,,,
,,60fefe75aa12dfd51d3fbe4e,2022-09-08_11h53.51.875,CGTgamblingSpanTasks,2022.2.1,MacIntel,58.82352941,,,,,,,,,,,,,,,,,,,,,,,,,,,,,,,,,,,,,,,,,,,,,,,,,,,,,,,,,,,,,,,,,,,,,,,,,,,,,,,,,,"[9,6,3,4,2,7,5,1,8,8]",0,0,0,0,1,,,,,,,,,,,,,,,,,,,,,,,,,,,,,,,,,,,,,,,,,,,,,,,,
,,60fefe75aa12dfd51d3fbe4e,2022-09-08_11h53.51.875,CGTgamblingSpanTasks,2022.2.1,MacIntel,58.82352941,,,,,,,,,,,,,,,,,,,,,,,,,,,,,,,,,,,,,,,,,,,,,,,,,,,,,,,,,,,,,,,,,,,,,,,,,,,,,,,,,,"[9,6,3,4,2,7,5,1,8,8]",1,0,1,0,1,,,,,,,,,,,,,,,,,,,,,,,,,,,,,,,,,,,,,,,,,,,,,,,,
,,60fefe75aa12dfd51d3fbe4e,2022-09-08_11h53.51.875,CGTgamblingSpanTasks,2022.2.1,MacIntel,58.82352941,,,,,,,,,,,,,,,,,,,,,,,,,,,,,,,,,,,,,,,,,,,,,,,,,,,,,,,,,,,,,,,,,,,,,,,,,,,,,,,,,,"[9,6,3,4,2,7,5,1,8,8]",2,0,2,0,1,,,,,,,,,,,,,,,,,,,,,,,,,,,,,,,,,,,,,,,,,,,,,,,,
,,60fefe75aa12dfd51d3fbe4e,2022-09-08_11h53.51.875,CGTgamblingSpanTasks,2022.2.1,MacIntel,58.82352941,,,,,,,,,,,,,,,,,,,,,,,,,,,,,,,,,,,,,,,,,,,,,,,,,,,,,,,,,,,,,,,,,,,,,,,,,,,,,,,,,,"[9,6,3,4,2,7,5,1,8,8]",3,0,3,0,1,,,,,,,,,,,,,,,,,,,,,,,,,,,,,,,,,,,,,,,,,,,,,,,,
,,60fefe75aa12dfd51d3fbe4e,2022-09-08_11h53.51.875,CGTgamblingSpanTasks,2022.2.1,MacIntel,58.82352941,,,,,,,,,,,,,,,,,,,,,,,,,,,,,,,,,,,,,,,,,,,,,,,,,,,,,,,,,,,,,,,,,,,,,,,,,,,,,,,,,,"[9,6,3,4,2,7,5,1,8,8]",4,0,4,0,1,,,,,,,,,,,,,,,,,,,,,,,,,,,,,,,,,,,,,,,,,,,,,,,,
,,60fefe75aa12dfd51d3fbe4e,2022-09-08_11h53.51.875,CGTgamblingSpanTasks,2022.2.1,MacIntel,58.82352941,,,,,,,,,,,,,,,,,,,,,,,,,,,,,,,,,,,,,,,,,,,,,,,,,,,,,,,,,,,,,,,,,,,,,,,,,,,,,,,,,,"[9,6,3,4,2,7,5,1,8,8]",5,0,5,0,1,,,,,,,,,,,,,,,,,,,,,,,,,,,,,,,,,,,,,,,,,,,,,,,,
,,60fefe75aa12dfd51d3fbe4e,2022-09-08_11h53.51.875,CGTgamblingSpanTasks,2022.2.1,MacIntel,58.82352941,,,,,,,,,,,,,,,,,,,,,,,,,,,,,,,,,,,,,,,,,,,,,,,,,,,,,,,,,,,,,,,,,,,,,,,,,,,,,,,,,,"[9,6,3,4,2,7,5,1,8,8]",6,0,6,0,1,,,,,,,,,,,,,,,,,,,,,,,,,,,,,,,,,,,,,,,,,,,,,,,,
,,60fefe75aa12dfd51d3fbe4e,2022-09-08_11h53.51.875,CGTgamblingSpanTasks,2022.2.1,MacIntel,58.82352941,,,,,,,,,,,,,,,,,,,,,,,,,,,,,,,,,,,,,,,,,,,,,,,,,,,,,,,,,,,,,,,,,,,,,,,,,,,,,,,,,,"[9,6,3,4,2,7,5,1,8,8]",7,0,7,0,1,,,,,,,,,,,,,,,,,,,,,,,,,,,,,,,,,,,,,,,,,,,,,,,,
,,60fefe75aa12dfd51d3fbe4e,2022-09-08_11h53.51.875,CGTgamblingSpanTasks,2022.2.1,MacIntel,58.82352941,,,,,,,,,,,,,,,,,,,,,,,,,,,,,,,,,,,,,,,,,,,,,,,,,,,,,,,,,,,,,,,,,,,,,,,,,,,,,,,,,,"[9,6,3,4,2,7,5,1,8,8]",8,0,8,0,1,,,,,,,,,,,,,,,,,,,,,,,,,,,,,,,,,,,,,,,,,,,,,,,,
,,60fefe75aa12dfd51d3fbe4e,2022-09-08_11h53.51.875,CGTgamblingSpanTasks,2022.2.1,MacIntel,58.82352941,,,,,,,,,,,,,,,,,,,,,,,,,,,,,,,,,,,,,,,,,,,,,,,,,,,,,,,,,,,,,,,,,,,,,,,,,,,,,,,,,,"[9,6,3,4,2,7,5,1,8,8]",9,0,9,0,1,,,,,,,,,,,,,,,,,,,,,,,,,,,,,,,,,,,,,,,,,,,,,,,,
,,60fefe75aa12dfd51d3fbe4e,2022-09-08_11h53.51.875,CGTgamblingSpanTasks,2022.2.1,MacIntel,58.82352941,,,,,,,,,,,,,,,,,,,,,,,,,,,,,,,,,,,,,,,,,,,,,,,,,,,,,,,,,,,,,,,1,,,,,,,,,,,,,,,,,,,,,,,,,9634275188,-0.126666667,-0.367777778,1,0,0,cont_button,0,10,10,10,1,11,,,,,,,,,,,,,,,,,,,,,,,,,,,,,,,,,,,
,,60fefe75aa12dfd51d3fbe4e,2022-09-08_11h53.51.875,CGTgamblingSpanTasks,2022.2.1,MacIntel,58.82352941,,,,,,,,,,,,,,,,,,,,,,,,,,,,,,,,,,,,,,,,,,,,,,,,,,,,,,,,,,,,,,,,,,,,,,,,,,,,,,,,,,"[5,8,2,3,7,4,9,6,1,1,4]",0,0,0,0,1,,,,,,,,,,,,,,,,,,,,,,,,,,,,,,,,,,,,,,,,,,,,,,,,
,,60fefe75aa12dfd51d3fbe4e,2022-09-08_11h53.51.875,CGTgamblingSpanTasks,2022.2.1,MacIntel,58.82352941,,,,,,,,,,,,,,,,,,,,,,,,,,,,,,,,,,,,,,,,,,,,,,,,,,,,,,,,,,,,,,,,,,,,,,,,,,,,,,,,,,"[5,8,2,3,7,4,9,6,1,1,4]",1,0,1,0,1,,,,,,,,,,,,,,,,,,,,,,,,,,,,,,,,,,,,,,,,,,,,,,,,
,,60fefe75aa12dfd51d3fbe4e,2022-09-08_11h53.51.875,CGTgamblingSpanTasks,2022.2.1,MacIntel,58.82352941,,,,,,,,,,,,,,,,,,,,,,,,,,,,,,,,,,,,,,,,,,,,,,,,,,,,,,,,,,,,,,,,,,,,,,,,,,,,,,,,,,"[5,8,2,3,7,4,9,6,1,1,4]",2,0,2,0,1,,,,,,,,,,,,,,,,,,,,,,,,,,,,,,,,,,,,,,,,,,,,,,,,
,,60fefe75aa12dfd51d3fbe4e,2022-09-08_11h53.51.875,CGTgamblingSpanTasks,2022.2.1,MacIntel,58.82352941,,,,,,,,,,,,,,,,,,,,,,,,,,,,,,,,,,,,,,,,,,,,,,,,,,,,,,,,,,,,,,,,,,,,,,,,,,,,,,,,,,"[5,8,2,3,7,4,9,6,1,1,4]",3,0,3,0,1,,,,,,,,,,,,,,,,,,,,,,,,,,,,,,,,,,,,,,,,,,,,,,,,
,,60fefe75aa12dfd51d3fbe4e,2022-09-08_11h53.51.875,CGTgamblingSpanTasks,2022.2.1,MacIntel,58.82352941,,,,,,,,,,,,,,,,,,,,,,,,,,,,,,,,,,,,,,,,,,,,,,,,,,,,,,,,,,,,,,,,,,,,,,,,,,,,,,,,,,"[5,8,2,3,7,4,9,6,1,1,4]",4,0,4,0,1,,,,,,,,,,,,,,,,,,,,,,,,,,,,,,,,,,,,,,,,,,,,,,,,
,,60fefe75aa12dfd51d3fbe4e,2022-09-08_11h53.51.875,CGTgamblingSpanTasks,2022.2.1,MacIntel,58.82352941,,,,,,,,,,,,,,,,,,,,,,,,,,,,,,,,,,,,,,,,,,,,,,,,,,,,,,,,,,,,,,,,,,,,,,,,,,,,,,,,,,"[5,8,2,3,7,4,9,6,1,1,4]",5,0,5,0,1,,,,,,,,,,,,,,,,,,,,,,,,,,,,,,,,,,,,,,,,,,,,,,,,
,,60fefe75aa12dfd51d3fbe4e,2022-09-08_11h53.51.875,CGTgamblingSpanTasks,2022.2.1,MacIntel,58.82352941,,,,,,,,,,,,,,,,,,,,,,,,,,,,,,,,,,,,,,,,,,,,,,,,,,,,,,,,,,,,,,,,,,,,,,,,,,,,,,,,,,"[5,8,2,3,7,4,9,6,1,1,4]",6,0,6,0,1,,,,,,,,,,,,,,,,,,,,,,,,,,,,,,,,,,,,,,,,,,,,,,,,
,,60fefe75aa12dfd51d3fbe4e,2022-09-08_11h53.51.875,CGTgamblingSpanTasks,2022.2.1,MacIntel,58.82352941,,,,,,,,,,,,,,,,,,,,,,,,,,,,,,,,,,,,,,,,,,,,,,,,,,,,,,,,,,,,,,,,,,,,,,,,,,,,,,,,,,"[5,8,2,3,7,4,9,6,1,1,4]",7,0,7,0,1,,,,,,,,,,,,,,,,,,,,,,,,,,,,,,,,,,,,,,,,,,,,,,,,
,,60fefe75aa12dfd51d3fbe4e,2022-09-08_11h53.51.875,CGTgamblingSpanTasks,2022.2.1,MacIntel,58.82352941,,,,,,,,,,,,,,,,,,,,,,,,,,,,,,,,,,,,,,,,,,,,,,,,,,,,,,,,,,,,,,,,,,,,,,,,,,,,,,,,,,"[5,8,2,3,7,4,9,6,1,1,4]",8,0,8,0,1,,,,,,,,,,,,,,,,,,,,,,,,,,,,,,,,,,,,,,,,,,,,,,,,
,,60fefe75aa12dfd51d3fbe4e,2022-09-08_11h53.51.875,CGTgamblingSpanTasks,2022.2.1,MacIntel,58.82352941,,,,,,,,,,,,,,,,,,,,,,,,,,,,,,,,,,,,,,,,,,,,,,,,,,,,,,,,,,,,,,,,,,,,,,,,,,,,,,,,,,"[5,8,2,3,7,4,9,6,1,1,4]",9,0,9,0,1,,,,,,,,,,,,,,,,,,,,,,,,,,,,,,,,,,,,,,,,,,,,,,,,
,,60fefe75aa12dfd51d3fbe4e,2022-09-08_11h53.51.875,CGTgamblingSpanTasks,2022.2.1,MacIntel,58.82352941,,,,,,,,,,,,,,,,,,,,,,,,,,,,,,,,,,,,,,,,,,,,,,,,,,,,,,,,,,,,,,,,,,,,,,,,,,,,,,,,,,"[5,8,2,3,7,4,9,6,1,1,4]",10,0,10,0,1,,,,,,,,,,,,,,,,,,,,,,,,,,,,,,,,,,,,,,,,,,,,,,,,
,,60fefe75aa12dfd51d3fbe4e,2022-09-08_11h53.51.875,CGTgamblingSpanTasks,2022.2.1,MacIntel,58.82352941,,,,,,,,,,,,,,,,,,,,,,,,,,,,,,,,,,,,,,,,,,,,,,,,,,,,,,,,,,,,,,,0,,,,,,,,,,,,,,,,,,,,,,,,,58237914451,-0.124444444,-0.404444444,1,0,0,cont_button,0,11,11,11,1,12,,,,,,,,,,,,,,,,,,,,,,,,,,,,,,,,,,,
,,60fefe75aa12dfd51d3fbe4e,2022-09-08_11h53.51.875,CGTgamblingSpanTasks,2022.2.1,MacIntel,58.82352941,,,,,,,,,,,,,,,,,,,,,,,,,,,,,,,,,,,,,,,,,,,,,,,,,,,,,,,,,,,,,,,,,,,,,,,,,,,,,,,,,,"[9,4,2,1,3,6,5,7,8,8,3]",0,0,0,0,1,,,,,,,,,,,,,,,,,,,,,,,,,,,,,,,,,,,,,,,,,,,,,,,,
,,60fefe75aa12dfd51d3fbe4e,2022-09-08_11h53.51.875,CGTgamblingSpanTasks,2022.2.1,MacIntel,58.82352941,,,,,,,,,,,,,,,,,,,,,,,,,,,,,,,,,,,,,,,,,,,,,,,,,,,,,,,,,,,,,,,,,,,,,,,,,,,,,,,,,,"[9,4,2,1,3,6,5,7,8,8,3]",1,0,1,0,1,,,,,,,,,,,,,,,,,,,,,,,,,,,,,,,,,,,,,,,,,,,,,,,,
,,60fefe75aa12dfd51d3fbe4e,2022-09-08_11h53.51.875,CGTgamblingSpanTasks,2022.2.1,MacIntel,58.82352941,,,,,,,,,,,,,,,,,,,,,,,,,,,,,,,,,,,,,,,,,,,,,,,,,,,,,,,,,,,,,,,,,,,,,,,,,,,,,,,,,,"[9,4,2,1,3,6,5,7,8,8,3]",2,0,2,0,1,,,,,,,,,,,,,,,,,,,,,,,,,,,,,,,,,,,,,,,,,,,,,,,,
,,60fefe75aa12dfd51d3fbe4e,2022-09-08_11h53.51.875,CGTgamblingSpanTasks,2022.2.1,MacIntel,58.82352941,,,,,,,,,,,,,,,,,,,,,,,,,,,,,,,,,,,,,,,,,,,,,,,,,,,,,,,,,,,,,,,,,,,,,,,,,,,,,,,,,,"[9,4,2,1,3,6,5,7,8,8,3]",3,0,3,0,1,,,,,,,,,,,,,,,,,,,,,,,,,,,,,,,,,,,,,,,,,,,,,,,,
,,60fefe75aa12dfd51d3fbe4e,2022-09-08_11h53.51.875,CGTgamblingSpanTasks,2022.2.1,MacIntel,58.82352941,,,,,,,,,,,,,,,,,,,,,,,,,,,,,,,,,,,,,,,,,,,,,,,,,,,,,,,,,,,,,,,,,,,,,,,,,,,,,,,,,,"[9,4,2,1,3,6,5,7,8,8,3]",4,0,4,0,1,,,,,,,,,,,,,,,,,,,,,,,,,,,,,,,,,,,,,,,,,,,,,,,,
,,60fefe75aa12dfd51d3fbe4e,2022-09-08_11h53.51.875,CGTgamblingSpanTasks,2022.2.1,MacIntel,58.82352941,,,,,,,,,,,,,,,,,,,,,,,,,,,,,,,,,,,,,,,,,,,,,,,,,,,,,,,,,,,,,,,,,,,,,,,,,,,,,,,,,,"[9,4,2,1,3,6,5,7,8,8,3]",5,0,5,0,1,,,,,,,,,,,,,,,,,,,,,,,,,,,,,,,,,,,,,,,,,,,,,,,,
,,60fefe75aa12dfd51d3fbe4e,2022-09-08_11h53.51.875,CGTgamblingSpanTasks,2022.2.1,MacIntel,58.82352941,,,,,,,,,,,,,,,,,,,,,,,,,,,,,,,,,,,,,,,,,,,,,,,,,,,,,,,,,,,,,,,,,,,,,,,,,,,,,,,,,,"[9,4,2,1,3,6,5,7,8,8,3]",6,0,6,0,1,,,,,,,,,,,,,,,,,,,,,,,,,,,,,,,,,,,,,,,,,,,,,,,,
,,60fefe75aa12dfd51d3fbe4e,2022-09-08_11h53.51.875,CGTgamblingSpanTasks,2022.2.1,MacIntel,58.82352941,,,,,,,,,,,,,,,,,,,,,,,,,,,,,,,,,,,,,,,,,,,,,,,,,,,,,,,,,,,,,,,,,,,,,,,,,,,,,,,,,,"[9,4,2,1,3,6,5,7,8,8,3]",7,0,7,0,1,,,,,,,,,,,,,,,,,,,,,,,,,,,,,,,,,,,,,,,,,,,,,,,,
,,60fefe75aa12dfd51d3fbe4e,2022-09-08_11h53.51.875,CGTgamblingSpanTasks,2022.2.1,MacIntel,58.82352941,,,,,,,,,,,,,,,,,,,,,,,,,,,,,,,,,,,,,,,,,,,,,,,,,,,,,,,,,,,,,,,,,,,,,,,,,,,,,,,,,,"[9,4,2,1,3,6,5,7,8,8,3]",8,0,8,0,1,,,,,,,,,,,,,,,,,,,,,,,,,,,,,,,,,,,,,,,,,,,,,,,,
,,60fefe75aa12dfd51d3fbe4e,2022-09-08_11h53.51.875,CGTgamblingSpanTasks,2022.2.1,MacIntel,58.82352941,,,,,,,,,,,,,,,,,,,,,,,,,,,,,,,,,,,,,,,,,,,,,,,,,,,,,,,,,,,,,,,,,,,,,,,,,,,,,,,,,,"[9,4,2,1,3,6,5,7,8,8,3]",9,0,9,0,1,,,,,,,,,,,,,,,,,,,,,,,,,,,,,,,,,,,,,,,,,,,,,,,,
,,60fefe75aa12dfd51d3fbe4e,2022-09-08_11h53.51.875,CGTgamblingSpanTasks,2022.2.1,MacIntel,58.82352941,,,,,,,,,,,,,,,,,,,,,,,,,,,,,,,,,,,,,,,,,,,,,,,,,,,,,,,,,,,,,,,,,,,,,,,,,,,,,,,,,,"[9,4,2,1,3,6,5,7,8,8,3]",10,0,10,0,1,,,,,,,,,,,,,,,,,,,,,,,,,,,,,,,,,,,,,,,,,,,,,,,,
,,60fefe75aa12dfd51d3fbe4e,2022-09-08_11h53.51.875,CGTgamblingSpanTasks,2022.2.1,MacIntel,58.82352941,,,,,,,,,,,,,,,,,,,,,,,,,,,,,,,,,,,,,,,,,,,,,,,,,,,,,,,,,,,,,,,0,,,,,,,,,,,,,,,,,,,,,,,,,94213658873,-0.07,-0.415555556,1,0,0,cont_button,0,12,12,12,1,13,,,,,,,,,,,,,,,,,,,,,,,,,,,,,,,,,,,
,,60fefe75aa12dfd51d3fbe4e,2022-09-08_11h53.51.875,CGTgamblingSpanTasks,2022.2.1,MacIntel,58.82352941,,,,,,,,,,,,,,,,,,,,,,,,,,,,,,,,,,,,,,,,,,,,,,,,,,,,,,,,,,,,,,,,,,,,,,,,,,,,,,,,,,"[1,9,7,6,2,4,3,8,5,5]",0,0,0,0,1,,,,,,,,,,,,,,,,,,,,,,,,,,,,,,,,,,,,,,,,,,,,,,,,
,,60fefe75aa12dfd51d3fbe4e,2022-09-08_11h53.51.875,CGTgamblingSpanTasks,2022.2.1,MacIntel,58.82352941,,,,,,,,,,,,,,,,,,,,,,,,,,,,,,,,,,,,,,,,,,,,,,,,,,,,,,,,,,,,,,,,,,,,,,,,,,,,,,,,,,"[1,9,7,6,2,4,3,8,5,5]",1,0,1,0,1,,,,,,,,,,,,,,,,,,,,,,,,,,,,,,,,,,,,,,,,,,,,,,,,
,,60fefe75aa12dfd51d3fbe4e,2022-09-08_11h53.51.875,CGTgamblingSpanTasks,2022.2.1,MacIntel,58.82352941,,,,,,,,,,,,,,,,,,,,,,,,,,,,,,,,,,,,,,,,,,,,,,,,,,,,,,,,,,,,,,,,,,,,,,,,,,,,,,,,,,"[1,9,7,6,2,4,3,8,5,5]",2,0,2,0,1,,,,,,,,,,,,,,,,,,,,,,,,,,,,,,,,,,,,,,,,,,,,,,,,
,,60fefe75aa12dfd51d3fbe4e,2022-09-08_11h53.51.875,CGTgamblingSpanTasks,2022.2.1,MacIntel,58.82352941,,,,,,,,,,,,,,,,,,,,,,,,,,,,,,,,,,,,,,,,,,,,,,,,,,,,,,,,,,,,,,,,,,,,,,,,,,,,,,,,,,"[1,9,7,6,2,4,3,8,5,5]",3,0,3,0,1,,,,,,,,,,,,,,,,,,,,,,,,,,,,,,,,,,,,,,,,,,,,,,,,
,,60fefe75aa12dfd51d3fbe4e,2022-09-08_11h53.51.875,CGTgamblingSpanTasks,2022.2.1,MacIntel,58.82352941,,,,,,,,,,,,,,,,,,,,,,,,,,,,,,,,,,,,,,,,,,,,,,,,,,,,,,,,,,,,,,,,,,,,,,,,,,,,,,,,,,"[1,9,7,6,2,4,3,8,5,5]",4,0,4,0,1,,,,,,,,,,,,,,,,,,,,,,,,,,,,,,,,,,,,,,,,,,,,,,,,
,,60fefe75aa12dfd51d3fbe4e,2022-09-08_11h53.51.875,CGTgamblingSpanTasks,2022.2.1,MacIntel,58.82352941,,,,,,,,,,,,,,,,,,,,,,,,,,,,,,,,,,,,,,,,,,,,,,,,,,,,,,,,,,,,,,,,,,,,,,,,,,,,,,,,,,"[1,9,7,6,2,4,3,8,5,5]",5,0,5,0,1,,,,,,,,,,,,,,,,,,,,,,,,,,,,,,,,,,,,,,,,,,,,,,,,
,,60fefe75aa12dfd51d3fbe4e,2022-09-08_11h53.51.875,CGTgamblingSpanTasks,2022.2.1,MacIntel,58.82352941,,,,,,,,,,,,,,,,,,,,,,,,,,,,,,,,,,,,,,,,,,,,,,,,,,,,,,,,,,,,,,,,,,,,,,,,,,,,,,,,,,"[1,9,7,6,2,4,3,8,5,5]",6,0,6,0,1,,,,,,,,,,,,,,,,,,,,,,,,,,,,,,,,,,,,,,,,,,,,,,,,
,,60fefe75aa12dfd51d3fbe4e,2022-09-08_11h53.51.875,CGTgamblingSpanTasks,2022.2.1,MacIntel,58.82352941,,,,,,,,,,,,,,,,,,,,,,,,,,,,,,,,,,,,,,,,,,,,,,,,,,,,,,,,,,,,,,,,,,,,,,,,,,,,,,,,,,"[1,9,7,6,2,4,3,8,5,5]",7,0,7,0,1,,,,,,,,,,,,,,,,,,,,,,,,,,,,,,,,,,,,,,,,,,,,,,,,
,,60fefe75aa12dfd51d3fbe4e,2022-09-08_11h53.51.875,CGTgamblingSpanTasks,2022.2.1,MacIntel,58.82352941,,,,,,,,,,,,,,,,,,,,,,,,,,,,,,,,,,,,,,,,,,,,,,,,,,,,,,,,,,,,,,,,,,,,,,,,,,,,,,,,,,"[1,9,7,6,2,4,3,8,5,5]",8,0,8,0,1,,,,,,,,,,,,,,,,,,,,,,,,,,,,,,,,,,,,,,,,,,,,,,,,
,,60fefe75aa12dfd51d3fbe4e,2022-09-08_11h53.51.875,CGTgamblingSpanTasks,2022.2.1,MacIntel,58.82352941,,,,,,,,,,,,,,,,,,,,,,,,,,,,,,,,,,,,,,,,,,,,,,,,,,,,,,,,,,,,,,,,,,,,,,,,,,,,,,,,,,"[1,9,7,6,2,4,3,8,5,5]",9,0,9,0,1,,,,,,,,,,,,,,,,,,,,,,,,,,,,,,,,,,,,,,,,,,,,,,,,
,,60fefe75aa12dfd51d3fbe4e,2022-09-08_11h53.51.875,CGTgamblingSpanTasks,2022.2.1,MacIntel,58.82352941,,,,,,,,,,,,,,,,,,,,,,,,,,,,,,,,,,,,,,,,,,,,,,,,,,,,,,,,,,,,,,,0,,,,,,,,,,,,,,,,,,,,,,,,,1976243358,-0.041111111,-0.403333333,1,0,0,cont_button,0,13,13,13,1,14,,,,,,,,,,,,,,,,,,,,,,,,,,,,,,,,,,,
,,60fefe75aa12dfd51d3fbe4e,2022-09-08_11h53.51.875,CGTgamblingSpanTasks,2022.2.1,MacIntel,58.82352941,,,,,,,,,,,,,,,,,,,,,,,,,,,,,,,,,,,,,,,,,,,,,,,,,,,,,,,,,,,,,,,,,,,,,,,,,,,,,,,,,,,,,,,,,,,,,,,,,,,,,return,4.225,,,,,,,,,,,,,,,,,,,,,,,,,,,,,,,,,
,,60fefe75aa12dfd51d3fbe4e,2022-09-08_11h53.51.875,CGTgamblingSpanTasks,2022.2.1,MacIntel,58.82352941,,,,,,,,,,,,,,,,,,,,,,,,,,,,,,,,,,,,,,,,,,,,,,,,,,,,,,,,,,,,,,,,,,,,,,,,,,,,,,,,,,,,,,,,,,,,,,,,,,,,,,,return,37.1,,,,,,,,,,,,,,,,,,,,,,,,,,,,,,,
,,60fefe75aa12dfd51d3fbe4e,2022-09-08_11h53.51.875,CGTgamblingSpanTasks,2022.2.1,MacIntel,58.82352941,,,,,,,,,,,,,,,,,,,,,,,,,,,,,,,,,,,,,,,,,,,,,,,,,,,,,,,,,,,,,,,1,,,,,,,,,,,,3,342,24,2,42,,,,,,,,,,,,,,,,,,,,,,,,,,42,0.052222222,-0.408888889,1,0,0,cont_buttonPractice_2,0,0,0,0,1,,,,,,,,,,,,,,,,,,,
,,60fefe75aa12dfd51d3fbe4e,2022-09-08_11h53.51.875,CGTgamblingSpanTasks,2022.2.1,MacIntel,58.82352941,,,,,,,,,,,,,,,,,,,,,,,,,,,,,,,,,,,,,,,,,,,,,,,,,,,,,,,,,,,,,,,1,,,,,,,,,,,,3,937,73,2,37,,,,,,,,,,,,,,,,,,,,,,,,,,37,-0.058888889,-0.384444444,1,0,0,cont_buttonPractice_2,0,1,1,1,1,,,,,,,,,,,,,,,,,,,
,,60fefe75aa12dfd51d3fbe4e,2022-09-08_11h53.51.875,CGTgamblingSpanTasks,2022.2.1,MacIntel,58.82352941,,,,,,,,,,,,,,,,,,,,,,,,,,,,,,,,,,,,,,,,,,,,,,,,,,,,,,,,,,,,,,,,,,,,,,,,,,,,,,,,,,,,,,,,,,,,,,,,,,,,,,,,,,,,,,,,,,,,,return,8.772,,,,,,,,,,,,,,,,,
,,60fefe75aa12dfd51d3fbe4e,2022-09-08_11h53.51.875,CGTgamblingSpanTasks,2022.2.1,MacIntel,58.82352941,,,,,,,,,,,,,,,,,,,,,,,,,,,,,,,,,,,,,,,,,,,,,,,,,,,,,,,,,,,,,,,,,,,,,,,,,,,,,,,,,,"[9,1]",,,,,,,,,,,,,,,,,,,,,,,,,,,,,,,,,,,,,0,0,0,0,1,,,,,,,,,,,,
,,60fefe75aa12dfd51d3fbe4e,2022-09-08_11h53.51.875,CGTgamblingSpanTasks,2022.2.1,MacIntel,58.82352941,,,,,,,,,,,,,,,,,,,,,,,,,,,,,,,,,,,,,,,,,,,,,,,,,,,,,,,,,,,,,,,,,,,,,,,,,,,,,,,,,,"[9,1]",,,,,,,,,,,,,,,,,,,,,,,,,,,,,,,,,,,,,1,0,1,0,1,,,,,,,,,,,,
,,60fefe75aa12dfd51d3fbe4e,2022-09-08_11h53.51.875,CGTgamblingSpanTasks,2022.2.1,MacIntel,58.82352941,,,,,,,,,,,,,,,,,,,,,,,,,,,,,,,,,,,,,,,,,,,,,,,,,,,,,,,,,,,,,,,1,,,,,,,,,,,,,,,,,,,,,,,,,,,,,,,,,,,,,1,,,,,,,,,,,,,,,,,,,,,,,,19,-0.058888889,-0.384444444,1,0,0,cont_buttonBS,0,0,0,0,1
,,60fefe75aa12dfd51d3fbe4e,2022-09-08_11h53.51.875,CGTgamblingSpanTasks,2022.2.1,MacIntel,58.82352941,,,,,,,,,,,,,,,,,,,,,,,,,,,,,,,,,,,,,,,,,,,,,,,,,,,,,,,,,,,,,,,,,,,,,,,,,,,,,,,,,,"[3,2,4]",,,,,,,,,,,,,,,,,,,,,,,,,,,,,,,,,,,,,0,0,0,0,1,,,,,,,,,,,,
,,60fefe75aa12dfd51d3fbe4e,2022-09-08_11h53.51.875,CGTgamblingSpanTasks,2022.2.1,MacIntel,58.82352941,,,,,,,,,,,,,,,,,,,,,,,,,,,,,,,,,,,,,,,,,,,,,,,,,,,,,,,,,,,,,,,,,,,,,,,,,,,,,,,,,,"[3,2,4]",,,,,,,,,,,,,,,,,,,,,,,,,,,,,,,,,,,,,1,0,1,0,1,,,,,,,,,,,,
,,60fefe75aa12dfd51d3fbe4e,2022-09-08_11h53.51.875,CGTgamblingSpanTasks,2022.2.1,MacIntel,58.82352941,,,,,,,,,,,,,,,,,,,,,,,,,,,,,,,,,,,,,,,,,,,,,,,,,,,,,,,,,,,,,,,,,,,,,,,,,,,,,,,,,,"[3,2,4]",,,,,,,,,,,,,,,,,,,,,,,,,,,,,,,,,,,,,2,0,2,0,1,,,,,,,,,,,,
,,60fefe75aa12dfd51d3fbe4e,2022-09-08_11h53.51.875,CGTgamblingSpanTasks,2022.2.1,MacIntel,58.82352941,,,,,,,,,,,,,,,,,,,,,,,,,,,,,,,,,,,,,,,,,,,,,,,,,,,,,,,,,,,,,,,1,,,,,,,,,,,,,,,,,,,,,,,,,,,,,,,,,,,,,2,,,,,,,,,,,,,,,,,,,,,,,,423,-0.052222222,-0.412222222,1,0,0,cont_buttonBS,0,1,1,1,1
,,60fefe75aa12dfd51d3fbe4e,2022-09-08_11h53.51.875,CGTgamblingSpanTasks,2022.2.1,MacIntel,58.82352941,,,,,,,,,,,,,,,,,,,,,,,,,,,,,,,,,,,,,,,,,,,,,,,,,,,,,,,,,,,,,,,,,,,,,,,,,,,,,,,,,,"[2,1,7,3]",,,,,,,,,,,,,,,,,,,,,,,,,,,,,,,,,,,,,0,0,0,0,1,,,,,,,,,,,,
,,60fefe75aa12dfd51d3fbe4e,2022-09-08_11h53.51.875,CGTgamblingSpanTasks,2022.2.1,MacIntel,58.82352941,,,,,,,,,,,,,,,,,,,,,,,,,,,,,,,,,,,,,,,,,,,,,,,,,,,,,,,,,,,,,,,,,,,,,,,,,,,,,,,,,,"[2,1,7,3]",,,,,,,,,,,,,,,,,,,,,,,,,,,,,,,,,,,,,1,0,1,0,1,,,,,,,,,,,,
,,60fefe75aa12dfd51d3fbe4e,2022-09-08_11h53.51.875,CGTgamblingSpanTasks,2022.2.1,MacIntel,58.82352941,,,,,,,,,,,,,,,,,,,,,,,,,,,,,,,,,,,,,,,,,,,,,,,,,,,,,,,,,,,,,,,,,,,,,,,,,,,,,,,,,,"[2,1,7,3]",,,,,,,,,,,,,,,,,,,,,,,,,,,,,,,,,,,,,2,0,2,0,1,,,,,,,,,,,,
,,60fefe75aa12dfd51d3fbe4e,2022-09-08_11h53.51.875,CGTgamblingSpanTasks,2022.2.1,MacIntel,58.82352941,,,,,,,,,,,,,,,,,,,,,,,,,,,,,,,,,,,,,,,,,,,,,,,,,,,,,,,,,,,,,,,,,,,,,,,,,,,,,,,,,,"[2,1,7,3]",,,,,,,,,,,,,,,,,,,,,,,,,,,,,,,,,,,,,3,0,3,0,1,,,,,,,,,,,,
,,60fefe75aa12dfd51d3fbe4e,2022-09-08_11h53.51.875,CGTgamblingSpanTasks,2022.2.1,MacIntel,58.82352941,,,,,,,,,,,,,,,,,,,,,,,,,,,,,,,,,,,,,,,,,,,,,,,,,,,,,,,,,,,,,,,1,,,,,,,,,,,,,,,,,,,,,,,,,,,,,,,,,,,,,3,,,,,,,,,,,,,,,,,,,,,,,,3712,-0.077777778,-0.412222222,1,0,0,cont_buttonBS,0,2,2,2,1
,,60fefe75aa12dfd51d3fbe4e,2022-09-08_11h53.51.875,CGTgamblingSpanTasks,2022.2.1,MacIntel,58.82352941,,,,,,,,,,,,,,,,,,,,,,,,,,,,,,,,,,,,,,,,,,,,,,,,,,,,,,,,,,,,,,,,,,,,,,,,,,,,,,,,,,"[5,9,4,7,6]",,,,,,,,,,,,,,,,,,,,,,,,,,,,,,,,,,,,,0,0,0,0,1,,,,,,,,,,,,
,,60fefe75aa12dfd51d3fbe4e,2022-09-08_11h53.51.875,CGTgamblingSpanTasks,2022.2.1,MacIntel,58.82352941,,,,,,,,,,,,,,,,,,,,,,,,,,,,,,,,,,,,,,,,,,,,,,,,,,,,,,,,,,,,,,,,,,,,,,,,,,,,,,,,,,"[5,9,4,7,6]",,,,,,,,,,,,,,,,,,,,,,,,,,,,,,,,,,,,,1,0,1,0,1,,,,,,,,,,,,
,,60fefe75aa12dfd51d3fbe4e,2022-09-08_11h53.51.875,CGTgamblingSpanTasks,2022.2.1,MacIntel,58.82352941,,,,,,,,,,,,,,,,,,,,,,,,,,,,,,,,,,,,,,,,,,,,,,,,,,,,,,,,,,,,,,,,,,,,,,,,,,,,,,,,,,"[5,9,4,7,6]",,,,,,,,,,,,,,,,,,,,,,,,,,,,,,,,,,,,,2,0,2,0,1,,,,,,,,,,,,
,,60fefe75aa12dfd51d3fbe4e,2022-09-08_11h53.51.875,CGTgamblingSpanTasks,2022.2.1,MacIntel,58.82352941,,,,,,,,,,,,,,,,,,,,,,,,,,,,,,,,,,,,,,,,,,,,,,,,,,,,,,,,,,,,,,,,,,,,,,,,,,,,,,,,,,"[5,9,4,7,6]",,,,,,,,,,,,,,,,,,,,,,,,,,,,,,,,,,,,,3,0,3,0,1,,,,,,,,,,,,
,,60fefe75aa12dfd51d3fbe4e,2022-09-08_11h53.51.875,CGTgamblingSpanTasks,2022.2.1,MacIntel,58.82352941,,,,,,,,,,,,,,,,,,,,,,,,,,,,,,,,,,,,,,,,,,,,,,,,,,,,,,,,,,,,,,,,,,,,,,,,,,,,,,,,,,"[5,9,4,7,6]",,,,,,,,,,,,,,,,,,,,,,,,,,,,,,,,,,,,,4,0,4,0,1,,,,,,,,,,,,
,,60fefe75aa12dfd51d3fbe4e,2022-09-08_11h53.51.875,CGTgamblingSpanTasks,2022.2.1,MacIntel,58.82352941,,,,,,,,,,,,,,,,,,,,,,,,,,,,,,,,,,,,,,,,,,,,,,,,,,,,,,,,,,,,,,,1,,,,,,,,,,,,,,,,,,,,,,,,,,,,,,,,,,,,,4,,,,,,,,,,,,,,,,,,,,,,,,67495,-0.076666667,-0.404444444,1,0,0,cont_buttonBS,0,3,3,3,1
,,60fefe75aa12dfd51d3fbe4e,2022-09-08_11h53.51.875,CGTgamblingSpanTasks,2022.2.1,MacIntel,58.82352941,,,,,,,,,,,,,,,,,,,,,,,,,,,,,,,,,,,,,,,,,,,,,,,,,,,,,,,,,,,,,,,,,,,,,,,,,,,,,,,,,,"[8,3,9,6,2,4]",,,,,,,,,,,,,,,,,,,,,,,,,,,,,,,,,,,,,0,0,0,0,1,,,,,,,,,,,,
,,60fefe75aa12dfd51d3fbe4e,2022-09-08_11h53.51.875,CGTgamblingSpanTasks,2022.2.1,MacIntel,58.82352941,,,,,,,,,,,,,,,,,,,,,,,,,,,,,,,,,,,,,,,,,,,,,,,,,,,,,,,,,,,,,,,,,,,,,,,,,,,,,,,,,,"[8,3,9,6,2,4]",,,,,,,,,,,,,,,,,,,,,,,,,,,,,,,,,,,,,1,0,1,0,1,,,,,,,,,,,,
,,60fefe75aa12dfd51d3fbe4e,2022-09-08_11h53.51.875,CGTgamblingSpanTasks,2022.2.1,MacIntel,58.82352941,,,,,,,,,,,,,,,,,,,,,,,,,,,,,,,,,,,,,,,,,,,,,,,,,,,,,,,,,,,,,,,,,,,,,,,,,,,,,,,,,,"[8,3,9,6,2,4]",,,,,,,,,,,,,,,,,,,,,,,,,,,,,,,,,,,,,2,0,2,0,1,,,,,,,,,,,,
,,60fefe75aa12dfd51d3fbe4e,2022-09-08_11h53.51.875,CGTgamblingSpanTasks,2022.2.1,MacIntel,58.82352941,,,,,,,,,,,,,,,,,,,,,,,,,,,,,,,,,,,,,,,,,,,,,,,,,,,,,,,,,,,,,,,,,,,,,,,,,,,,,,,,,,"[8,3,9,6,2,4]",,,,,,,,,,,,,,,,,,,,,,,,,,,,,,,,,,,,,3,0,3,0,1,,,,,,,,,,,,
,,60fefe75aa12dfd51d3fbe4e,2022-09-08_11h53.51.875,CGTgamblingSpanTasks,2022.2.1,MacIntel,58.82352941,,,,,,,,,,,,,,,,,,,,,,,,,,,,,,,,,,,,,,,,,,,,,,,,,,,,,,,,,,,,,,,,,,,,,,,,,,,,,,,,,,"[8,3,9,6,2,4]",,,,,,,,,,,,,,,,,,,,,,,,,,,,,,,,,,,,,4,0,4,0,1,,,,,,,,,,,,
,,60fefe75aa12dfd51d3fbe4e,2022-09-08_11h53.51.875,CGTgamblingSpanTasks,2022.2.1,MacIntel,58.82352941,,,,,,,,,,,,,,,,,,,,,,,,,,,,,,,,,,,,,,,,,,,,,,,,,,,,,,,,,,,,,,,,,,,,,,,,,,,,,,,,,,"[8,3,9,6,2,4]",,,,,,,,,,,,,,,,,,,,,,,,,,,,,,,,,,,,,5,0,5,0,1,,,,,,,,,,,,
,,60fefe75aa12dfd51d3fbe4e,2022-09-08_11h53.51.875,CGTgamblingSpanTasks,2022.2.1,MacIntel,58.82352941,,,,,,,,,,,,,,,,,,,,,,,,,,,,,,,,,,,,,,,,,,,,,,,,,,,,,,,,,,,,,,,1,,,,,,,,,,,,,,,,,,,,,,,,,,,,,,,,,,,,,5,,,,,,,,,,,,,,,,,,,,,,,,426938,-0.09,-0.417777778,1,0,0,cont_buttonBS,0,4,4,4,1
