initITIstatic,initITIdynamic,participant,date,expName,psychopyVersion,OS,frameRate,inst1.keys,inst1.rt,startPracResp.keys,startPracResp.rt,choice1.keys,choice1.rt,outcome,extraITI,trials.thisRepN,trials.thisTrialN,trials.thisN,trials.thisIndex,trials.ran,riskyGain,riskyLoss,alternative,isi,iti,loc,postPractResp.keys,postPractResp.rt,realloc,realChoice.keys,realChoice.rt,outcomes,choices,actualITI,init ITI,staticRDM.thisRepN,staticRDM.thisTrialN,staticRDM.thisN,staticRDM.thisIndex,staticRDM.ran,riskyoption1,riskyoption2,safeoption,ischecktrial,dynamicChoiceSetName,dynamicChoiceSetPath,bestRho,bestMu,trials_2.thisRepN,trials_2.thisTrialN,trials_2.thisN,trials_2.thisIndex,trials_2.ran,key_resp.keys,key_resp.rt,dynamicRDM.thisRepN,dynamicRDM.thisTrialN,dynamicRDM.thisN,dynamicRDM.thisIndex,dynamicRDM.ran,choiceP,easy0difficult1,stopBreak.keys,stopBreak.rt,movealong.keys,movealong.rt,startPractice.keys,startPractice.rt,textboxPractice.text,correct,mousePractice.x,mousePractice.y,mousePractice.leftButton,mousePractice.midButton,mousePractice.rightButton,mousePractice.clicked_name,trialFSPractice.thisRepN,trialFSPractice.thisTrialN,trialFSPractice.thisN,trialFSPractice.thisIndex,trialFSPractice.ran,digitSpanForward,digits,digitsReverse,digitSpanReverse,digitsReverseCorrAnswer,startFSreal.keys,startFSreal.rt,digitsForTrial,digitLoop.thisRepN,digitLoop.thisTrialN,digitLoop.thisN,digitLoop.thisIndex,digitLoop.ran,textbox.text,mouse_3.x,mouse_3.y,mouse_3.leftButton,mouse_3.midButton,mouse_3.rightButton,mouse_3.clicked_name,trialsFS.thisRepN,trialsFS.thisTrialN,trialsFS.thisN,trialsFS.thisIndex,trialsFS.ran,trialNumber,moveToBS.keys,moveToBS.rt,startBSprac.keys,startBSprac.rt,textboxPractice_2.text,mousePractice_2.x,mousePractice_2.y,mousePractice_2.leftButton,mousePractice_2.midButton,mousePractice_2.rightButton,mousePractice_2.clicked_name,trialsPracticeBS.thisRepN,trialsPracticeBS.thisTrialN,trialsPracticeBS.thisN,trialsPracticeBS.thisIndex,trialsPracticeBS.ran,startBSreal.keys,startBSreal.rt,digitLoopBS.thisRepN,digitLoopBS.thisTrialN,digitLoopBS.thisN,digitLoopBS.thisIndex,digitLoopBS.ran,textboxBS.text,mouseBS.x,mouseBS.y,mouseBS.leftButton,mouseBS.midButton,mouseBS.rightButton,mouseBS.clicked_name,trialsBS.thisRepN,trialsBS.thisTrialN,trialsBS.thisN,trialsBS.thisIndex,trialsBS.ran
"[1.5,1.5,1,1,1,1.5,1,1.5,1.5,1.5,1.5,1,1,1.5,1,1,1.5,1,1,1,1,1,1.5,1.5,1,1.5,1.5,1.5,1,1.5,1.5,1,1.5,1,1.5,1,1,1.5,1,1,1,1.5,1.5,1,1.5,1,1.5,1.5,1,1.5]","[1.5,1,1.5,1.5,1,1.5,1.5,1,1,1,1.5,1.5,1,1,1,1.5,1.5,1.5,1.5,1,1.5,1.5,1.5,1,1,1.5,1.5,1,1.5,1,1,1,1,1.5,1.5,1,1,1,1,1.5,1.5,1.5,1,1,1.5,1,1.5,1,1,1.5,1,1,1.5,1,1.5,1.5,1.5,1,1.5,1.5,1,1,1.5,1.5,1.5,1.5,1.5,1.5,1,1,1,1,1.5,1.5,1,1.5,1.5,1.5,1,1,1,1.5,1,1,1,1,1,1,1.5,1,1.5,1.5,1.5,1,1,1.5,1.5,1,1,1.5,1.5,1.5,1.5,1,1.5,1.5,1.5,1,1,1,1.5,1,1.5,1,1,1.5,1,1.5,1,1]",5f88877885e51d02acd71b12,2022-09-09_02h25.01.117,CGTgamblingSpanTasks,2022.2.1,Win32,59.54153022,,,,,,,,,,,,,,,,,,,,,,,,,,,,,,,,,,,,,,,,,,,,,,,,,,,,,,,,,,,,,,,,,,,,,,,,,,,,,,,,,,,,,,,,,,,,,,,,,,,,,,,,,,,,,,,,,,,,,,,,,,,,,,,,,,,,,,,
,,5f88877885e51d02acd71b12,2022-09-09_02h25.01.117,CGTgamblingSpanTasks,2022.2.1,Win32,59.54153022,return,1.5504,,,,,,,,,,,,,,,,,,,,,,,,,,,,,,,,,,,,,,,,,,,,,,,,,,,,,,,,,,,,,,,,,,,,,,,,,,,,,,,,,,,,,,,,,,,,,,,,,,,,,,,,,,,,,,,,,,,,,,,,,,,,,,,,,,,,,
,,5f88877885e51d02acd71b12,2022-09-09_02h25.01.117,CGTgamblingSpanTasks,2022.2.1,Win32,59.54153022,,,v,2.2822,,,,,,,,,,,,,,,,,,,,,,,,,,,,,,,,,,,,,,,,,,,,,,,,,,,,,,,,,,,,,,,,,,,,,,,,,,,,,,,,,,,,,,,,,,,,,,,,,,,,,,,,,,,,,,,,,,,,,,,,,,,,,,,,,,,
,,5f88877885e51d02acd71b12,2022-09-09_02h25.01.117,CGTgamblingSpanTasks,2022.2.1,Win32,59.54153022,,,,,n,3.1147,9.45,0.8853,0,0,0,0,1,18.23,0,9.45,2,1,1,,,,,,,,,,,,,,,,,,,,,,,,,,,,,,,,,,,,,,,,,,,,,,,,,,,,,,,,,,,,,,,,,,,,,,,,,,,,,,,,,,,,,,,,,,,,,,,,,,,,,,,,,,,,,,,,,,,,
,,5f88877885e51d02acd71b12,2022-09-09_02h25.01.117,CGTgamblingSpanTasks,2022.2.1,Win32,59.54153022,,,,,n,1.699,35.16,2.301,0,1,1,1,1,53.27,0,35.16,1,1.5,1,,,,,,,,,,,,,,,,,,,,,,,,,,,,,,,,,,,,,,,,,,,,,,,,,,,,,,,,,,,,,,,,,,,,,,,,,,,,,,,,,,,,,,,,,,,,,,,,,,,,,,,,,,,,,,,,,,,,
,,5f88877885e51d02acd71b12,2022-09-09_02h25.01.117,CGTgamblingSpanTasks,2022.2.1,Win32,59.54153022,,,,,n,2.6436,0,1.3564,0,2,2,2,1,8.27,0,1.15,1,1.5,2,,,,,,,,,,,,,,,,,,,,,,,,,,,,,,,,,,,,,,,,,,,,,,,,,,,,,,,,,,,,,,,,,,,,,,,,,,,,,,,,,,,,,,,,,,,,,,,,,,,,,,,,,,,,,,,,,,,,
,,5f88877885e51d02acd71b12,2022-09-09_02h25.01.117,CGTgamblingSpanTasks,2022.2.1,Win32,59.54153022,,,,,n,2.6217,40.41,1.3783,0,3,3,3,1,45.88,0,40.41,3,1,1,,,,,,,,,,,,,,,,,,,,,,,,,,,,,,,,,,,,,,,,,,,,,,,,,,,,,,,,,,,,,,,,,,,,,,,,,,,,,,,,,,,,,,,,,,,,,,,,,,,,,,,,,,,,,,,,,,,,
,,5f88877885e51d02acd71b12,2022-09-09_02h25.01.117,CGTgamblingSpanTasks,2022.2.1,Win32,59.54153022,,,,,v,2.2847,11.96,1.7153,0,4,4,4,1,21.56,0,11.96,1,1.5,2,,,,,,,,,,,,,,,,,,,,,,,,,,,,,,,,,,,,,,,,,,,,,,,,,,,,,,,,,,,,,,,,,,,,,,,,,,,,,,,,,,,,,,,,,,,,,,,,,,,,,,,,,,,,,,,,,,,,
,,5f88877885e51d02acd71b12,2022-09-09_02h25.01.117,CGTgamblingSpanTasks,2022.2.1,Win32,59.54153022,,,,,,,,,,,,,,,,,,,,n,2.0963,,,,,,,,,,,,,,,,,,,,,,,,,,,,,,,,,,,,,,,,,,,,,,,,,,,,,,,,,,,,,,,,,,,,,,,,,,,,,,,,,,,,,,,,,,,,,,,,,,,,,,,,,,,,,,,,,,
,,5f88877885e51d02acd71b12,2022-09-09_02h25.01.117,CGTgamblingSpanTasks,2022.2.1,Win32,59.54153022,,,,,,,,1.2219,,,,,,,,,,,,,,1,v,2.7781,0,1,2.7219,1.5,0,0,0,1,1,28.21,0,3.89,0,,,,,,,,,,,,,,,,,,,,,,,,,,,,,,,,,,,,,,,,,,,,,,,,,,,,,,,,,,,,,,,,,,,,,,,,,,,,,,,,,,,,,,,,,,,,,,,,,,
,,5f88877885e51d02acd71b12,2022-09-09_02h25.01.117,CGTgamblingSpanTasks,2022.2.1,Win32,59.54153022,,,,,,,,2.6784,,,,,,,,,,,,,,1,n,1.3216,6.08,0,4.1784,1.5,0,1,1,20,1,11.84,0,6.08,0,,,,,,,,,,,,,,,,,,,,,,,,,,,,,,,,,,,,,,,,,,,,,,,,,,,,,,,,,,,,,,,,,,,,,,,,,,,,,,,,,,,,,,,,,,,,,,,,,,
,,5f88877885e51d02acd71b12,2022-09-09_02h25.01.117,CGTgamblingSpanTasks,2022.2.1,Win32,59.54153022,,,,,,,,2.2791,,,,,,,,,,,,,,1,n,1.7209,3.13,0,3.2791,1,0,2,2,47,1,0,0,3.13,1,,,,,,,,,,,,,,,,,,,,,,,,,,,,,,,,,,,,,,,,,,,,,,,,,,,,,,,,,,,,,,,,,,,,,,,,,,,,,,,,,,,,,,,,,,,,,,,,,,
,,5f88877885e51d02acd71b12,2022-09-09_02h25.01.117,CGTgamblingSpanTasks,2022.2.1,Win32,59.54153022,,,,,,,,1.9045,,,,,,,,,,,,,,2,v,2.0955,6.53,0,2.9045,1,0,3,3,28,1,10.95,0,6.53,0,,,,,,,,,,,,,,,,,,,,,,,,,,,,,,,,,,,,,,,,,,,,,,,,,,,,,,,,,,,,,,,,,,,,,,,,,,,,,,,,,,,,,,,,,,,,,,,,,,
,,5f88877885e51d02acd71b12,2022-09-09_02h25.01.117,CGTgamblingSpanTasks,2022.2.1,Win32,59.54153022,,,,,,,,2.6379,,,,,,,,,,,,,,2,n,1.3621,0,1,3.6379,1,0,4,4,40,1,10.35,0,0,1,,,,,,,,,,,,,,,,,,,,,,,,,,,,,,,,,,,,,,,,,,,,,,,,,,,,,,,,,,,,,,,,,,,,,,,,,,,,,,,,,,,,,,,,,,,,,,,,,,
,,5f88877885e51d02acd71b12,2022-09-09_02h25.01.117,CGTgamblingSpanTasks,2022.2.1,Win32,59.54153022,,,,,,,,2.2007,,,,,,,,,,,,,,1,v,1.7993,19.28,1,3.7007,1.5,0,5,5,13,1,19.28,0,8.36,0,,,,,,,,,,,,,,,,,,,,,,,,,,,,,,,,,,,,,,,,,,,,,,,,,,,,,,,,,,,,,,,,,,,,,,,,,,,,,,,,,,,,,,,,,,,,,,,,,,
,,5f88877885e51d02acd71b12,2022-09-09_02h25.01.117,CGTgamblingSpanTasks,2022.2.1,Win32,59.54153022,,,,,,,,2.4495,,,,,,,,,,,,,,2,v,1.5505,10.25,0,3.4495,1,0,6,6,46,1,0,0,10.25,1,,,,,,,,,,,,,,,,,,,,,,,,,,,,,,,,,,,,,,,,,,,,,,,,,,,,,,,,,,,,,,,,,,,,,,,,,,,,,,,,,,,,,,,,,,,,,,,,,,
,,5f88877885e51d02acd71b12,2022-09-09_02h25.01.117,CGTgamblingSpanTasks,2022.2.1,Win32,59.54153022,,,,,,,,2.2442,,,,,,,,,,,,,,1,v,1.7558,18.77,1,3.7442,1.5,0,7,7,15,1,18.77,0,8.61,0,,,,,,,,,,,,,,,,,,,,,,,,,,,,,,,,,,,,,,,,,,,,,,,,,,,,,,,,,,,,,,,,,,,,,,,,,,,,,,,,,,,,,,,,,,,,,,,,,,
,,5f88877885e51d02acd71b12,2022-09-09_02h25.01.117,CGTgamblingSpanTasks,2022.2.1,Win32,59.54153022,,,,,,,,2.5948,,,,,,,,,,,,,,2,n,1.4052,0,1,4.0948,1.5,0,8,8,2,1,17.73,0,3.13,0,,,,,,,,,,,,,,,,,,,,,,,,,,,,,,,,,,,,,,,,,,,,,,,,,,,,,,,,,,,,,,,,,,,,,,,,,,,,,,,,,,,,,,,,,,,,,,,,,,
,,5f88877885e51d02acd71b12,2022-09-09_02h25.01.117,CGTgamblingSpanTasks,2022.2.1,Win32,59.54153022,,,,,,,,1.8426,,,,,,,,,,,,,,1,v,2.1574,19.86,1,3.3426,1.5,0,9,9,11,1,19.86,0,8.07,0,,,,,,,,,,,,,,,,,,,,,,,,,,,,,,,,,,,,,,,,,,,,,,,,,,,,,,,,,,,,,,,,,,,,,,,,,,,,,,,,,,,,,,,,,,,,,,,,,,
,,5f88877885e51d02acd71b12,2022-09-09_02h25.01.117,CGTgamblingSpanTasks,2022.2.1,Win32,59.54153022,,,,,,,,2.2277,,,,,,,,,,,,,,1,v,1.7723,17.28,1,3.7277,1.5,0,10,10,23,1,17.28,0,9.36,0,,,,,,,,,,,,,,,,,,,,,,,,,,,,,,,,,,,,,,,,,,,,,,,,,,,,,,,,,,,,,,,,,,,,,,,,,,,,,,,,,,,,,,,,,,,,,,,,,,
,,5f88877885e51d02acd71b12,2022-09-09_02h25.01.117,CGTgamblingSpanTasks,2022.2.1,Win32,59.54153022,,,,,,,,1.7074,,,,,,,,,,,,,,2,n,2.2926,0,1,2.7074,1,0,11,11,6,1,14.72,0,4.64,0,,,,,,,,,,,,,,,,,,,,,,,,,,,,,,,,,,,,,,,,,,,,,,,,,,,,,,,,,,,,,,,,,,,,,,,,,,,,,,,,,,,,,,,,,,,,,,,,,,
,,5f88877885e51d02acd71b12,2022-09-09_02h25.01.117,CGTgamblingSpanTasks,2022.2.1,Win32,59.54153022,,,,,,,,2.0723,,,,,,,,,,,,,,2,v,1.9277,10.02,0,3.0723,1,0,12,12,31,1,15.96,0,10.02,0,,,,,,,,,,,,,,,,,,,,,,,,,,,,,,,,,,,,,,,,,,,,,,,,,,,,,,,,,,,,,,,,,,,,,,,,,,,,,,,,,,,,,,,,,,,,,,,,,,
,,5f88877885e51d02acd71b12,2022-09-09_02h25.01.117,CGTgamblingSpanTasks,2022.2.1,Win32,59.54153022,,,,,,,,1.605,,,,,,,,,,,,,,1,n,2.395,6.63,0,3.105,1.5,0,13,13,30,1,10.73,0,6.63,0,,,,,,,,,,,,,,,,,,,,,,,,,,,,,,,,,,,,,,,,,,,,,,,,,,,,,,,,,,,,,,,,,,,,,,,,,,,,,,,,,,,,,,,,,,,,,,,,,,
,,5f88877885e51d02acd71b12,2022-09-09_02h25.01.117,CGTgamblingSpanTasks,2022.2.1,Win32,59.54153022,,,,,,,,2.5224,,,,,,,,,,,,,,1,v,1.4776,19.86,1,3.5224,1,0,14,14,42,1,19.86,0,0,1,,,,,,,,,,,,,,,,,,,,,,,,,,,,,,,,,,,,,,,,,,,,,,,,,,,,,,,,,,,,,,,,,,,,,,,,,,,,,,,,,,,,,,,,,,,,,,,,,,
,,5f88877885e51d02acd71b12,2022-09-09_02h25.01.117,CGTgamblingSpanTasks,2022.2.1,Win32,59.54153022,,,,,,,,2.3069,,,,,,,,,,,,,,1,n,1.6931,9.5,0,3.3069,1,0,15,15,25,1,17,0,9.5,0,,,,,,,,,,,,,,,,,,,,,,,,,,,,,,,,,,,,,,,,,,,,,,,,,,,,,,,,,,,,,,,,,,,,,,,,,,,,,,,,,,,,,,,,,,,,,,,,,,
,,5f88877885e51d02acd71b12,2022-09-09_02h25.01.117,CGTgamblingSpanTasks,2022.2.1,Win32,59.54153022,,,,,,,,2.641,,,,,,,,,,,,,,1,v,1.359,0,1,4.141,1.5,0,16,16,12,1,13.04,0,5.48,0,,,,,,,,,,,,,,,,,,,,,,,,,,,,,,,,,,,,,,,,,,,,,,,,,,,,,,,,,,,,,,,,,,,,,,,,,,,,,,,,,,,,,,,,,,,,,,,,,,
,,5f88877885e51d02acd71b12,2022-09-09_02h25.01.117,CGTgamblingSpanTasks,2022.2.1,Win32,59.54153022,,,,,,,,2.5904,,,,,,,,,,,,,,2,v,1.4096,9.03,0,3.5904,1,0,17,17,19,1,17.94,0,9.03,0,,,,,,,,,,,,,,,,,,,,,,,,,,,,,,,,,,,,,,,,,,,,,,,,,,,,,,,,,,,,,,,,,,,,,,,,,,,,,,,,,,,,,,,,,,,,,,,,,,
,,5f88877885e51d02acd71b12,2022-09-09_02h25.01.117,CGTgamblingSpanTasks,2022.2.1,Win32,59.54153022,,,,,,,,2.4244,,,,,,,,,,,,,,2,v,1.5756,10.15,0,3.4244,1,0,18,18,33,1,15.7,0,10.15,0,,,,,,,,,,,,,,,,,,,,,,,,,,,,,,,,,,,,,,,,,,,,,,,,,,,,,,,,,,,,,,,,,,,,,,,,,,,,,,,,,,,,,,,,,,,,,,,,,,
,,5f88877885e51d02acd71b12,2022-09-09_02h25.01.117,CGTgamblingSpanTasks,2022.2.1,Win32,59.54153022,,,,,,,,2.2597,,,,,,,,,,,,,,1,v,1.7403,14.26,1,3.2597,1,0,19,19,41,1,14.26,0,0,1,,,,,,,,,,,,,,,,,,,,,,,,,,,,,,,,,,,,,,,,,,,,,,,,,,,,,,,,,,,,,,,,,,,,,,,,,,,,,,,,,,,,,,,,,,,,,,,,,,
,,5f88877885e51d02acd71b12,2022-09-09_02h25.01.117,CGTgamblingSpanTasks,2022.2.1,Win32,59.54153022,,,,,,,,2.8123,,,,,,,,,,,,,,1,n,1.1877,7.55,0,3.8123,1,0,20,20,45,1,0,0,7.55,1,,,,,,,,,,,,,,,,,,,,,,,,,,,,,,,,,,,,,,,,,,,,,,,,,,,,,,,,,,,,,,,,,,,,,,,,,,,,,,,,,,,,,,,,,,,,,,,,,,
,,5f88877885e51d02acd71b12,2022-09-09_02h25.01.117,CGTgamblingSpanTasks,2022.2.1,Win32,59.54153022,,,,,,,,2.292,,,,,,,,,,,,,,1,v,1.708,10.12,1,3.292,1,0,21,21,38,1,10.12,0,6.94,0,,,,,,,,,,,,,,,,,,,,,,,,,,,,,,,,,,,,,,,,,,,,,,,,,,,,,,,,,,,,,,,,,,,,,,,,,,,,,,,,,,,,,,,,,,,,,,,,,,
,,5f88877885e51d02acd71b12,2022-09-09_02h25.01.117,CGTgamblingSpanTasks,2022.2.1,Win32,59.54153022,,,,,,,,2.7553,,,,,,,,,,,,,,2,n,1.2447,0,1,4.2553,1.5,0,22,22,7,1,21.32,0,7.34,0,,,,,,,,,,,,,,,,,,,,,,,,,,,,,,,,,,,,,,,,,,,,,,,,,,,,,,,,,,,,,,,,,,,,,,,,,,,,,,,,,,,,,,,,,,,,,,,,,,
,,5f88877885e51d02acd71b12,2022-09-09_02h25.01.117,CGTgamblingSpanTasks,2022.2.1,Win32,59.54153022,,,,,,,,2.4872,,,,,,,,,,,,,,1,n,1.5128,10.46,0,3.9872,1.5,0,23,23,39,1,15.09,0,10.46,0,,,,,,,,,,,,,,,,,,,,,,,,,,,,,,,,,,,,,,,,,,,,,,,,,,,,,,,,,,,,,,,,,,,,,,,,,,,,,,,,,,,,,,,,,,,,,,,,,,
,,5f88877885e51d02acd71b12,2022-09-09_02h25.01.117,CGTgamblingSpanTasks,2022.2.1,Win32,59.54153022,,,,,,,,2.0913,,,,,,,,,,,,,,1,v,1.9087,11.62,1,3.0913,1,0,24,24,22,1,11.62,0,6.19,0,,,,,,,,,,,,,,,,,,,,,,,,,,,,,,,,,,,,,,,,,,,,,,,,,,,,,,,,,,,,,,,,,,,,,,,,,,,,,,,,,,,,,,,,,,,,,,,,,,
,,5f88877885e51d02acd71b12,2022-09-09_02h25.01.117,CGTgamblingSpanTasks,2022.2.1,Win32,59.54153022,,,,,,,,2.2421,,,,,,,,,,,,,,1,v,1.7579,16.11,1,3.7421,1.5,0,25,25,43,1,16.11,6.99,6.99,1,,,,,,,,,,,,,,,,,,,,,,,,,,,,,,,,,,,,,,,,,,,,,,,,,,,,,,,,,,,,,,,,,,,,,,,,,,,,,,,,,,,,,,,,,,,,,,,,,,
,,5f88877885e51d02acd71b12,2022-09-09_02h25.01.117,CGTgamblingSpanTasks,2022.2.1,Win32,59.54153022,,,,,,,,2.0696,,,,,,,,,,,,,,2,n,1.9304,12.68,1,3.5696,1.5,0,26,26,14,1,12.68,0,5.66,0,,,,,,,,,,,,,,,,,,,,,,,,,,,,,,,,,,,,,,,,,,,,,,,,,,,,,,,,,,,,,,,,,,,,,,,,,,,,,,,,,,,,,,,,,,,,,,,,,,
,,5f88877885e51d02acd71b12,2022-09-09_02h25.01.117,CGTgamblingSpanTasks,2022.2.1,Win32,59.54153022,,,,,,,,2.0202,,,,,,,,,,,,,,1,n,1.9798,6.88,0,3.5202,1.5,0,27,27,36,1,10.24,0,6.88,0,,,,,,,,,,,,,,,,,,,,,,,,,,,,,,,,,,,,,,,,,,,,,,,,,,,,,,,,,,,,,,,,,,,,,,,,,,,,,,,,,,,,,,,,,,,,,,,,,,
,,5f88877885e51d02acd71b12,2022-09-09_02h25.01.117,CGTgamblingSpanTasks,2022.2.1,Win32,59.54153022,,,,,,,,2.7857,,,,,,,,,,,,,,2,v,1.2143,9.2,0,3.7857,1,0,28,28,21,1,17.59,0,9.2,0,,,,,,,,,,,,,,,,,,,,,,,,,,,,,,,,,,,,,,,,,,,,,,,,,,,,,,,,,,,,,,,,,,,,,,,,,,,,,,,,,,,,,,,,,,,,,,,,,,
,,5f88877885e51d02acd71b12,2022-09-09_02h25.01.117,CGTgamblingSpanTasks,2022.2.1,Win32,59.54153022,,,,,,,,2.3897,,,,,,,,,,,,,,2,v,1.6103,10.27,0,3.8897,1.5,0,29,29,35,1,15.47,0,10.27,0,,,,,,,,,,,,,,,,,,,,,,,,,,,,,,,,,,,,,,,,,,,,,,,,,,,,,,,,,,,,,,,,,,,,,,,,,,,,,,,,,,,,,,,,,,,,,,,,,,
,,5f88877885e51d02acd71b12,2022-09-09_02h25.01.117,CGTgamblingSpanTasks,2022.2.1,Win32,59.54153022,,,,,,,,2.4526,,,,,,,,,,,,,,2,n,1.5474,0,1,3.9526,1.5,0,30,30,29,1,16.26,0,9.87,0,,,,,,,,,,,,,,,,,,,,,,,,,,,,,,,,,,,,,,,,,,,,,,,,,,,,,,,,,,,,,,,,,,,,,,,,,,,,,,,,,,,,,,,,,,,,,,,,,,
,,5f88877885e51d02acd71b12,2022-09-09_02h25.01.117,CGTgamblingSpanTasks,2022.2.1,Win32,59.54153022,,,,,,,,2.6924,,,,,,,,,,,,,,1,v,1.3076,7.73,1,3.6924,1,0,31,31,44,1,13.1,7.73,4.68,1,,,,,,,,,,,,,,,,,,,,,,,,,,,,,,,,,,,,,,,,,,,,,,,,,,,,,,,,,,,,,,,,,,,,,,,,,,,,,,,,,,,,,,,,,,,,,,,,,,
,,5f88877885e51d02acd71b12,2022-09-09_02h25.01.117,CGTgamblingSpanTasks,2022.2.1,Win32,59.54153022,,,,,,,,2.6281,,,,,,,,,,,,,,1,v,1.3719,22.97,1,4.1281,1.5,0,32,32,5,1,22.97,0,6.51,0,,,,,,,,,,,,,,,,,,,,,,,,,,,,,,,,,,,,,,,,,,,,,,,,,,,,,,,,,,,,,,,,,,,,,,,,,,,,,,,,,,,,,,,,,,,,,,,,,,
,,5f88877885e51d02acd71b12,2022-09-09_02h25.01.117,CGTgamblingSpanTasks,2022.2.1,Win32,59.54153022,,,,,,,,2.4904,,,,,,,,,,,,,,1,v,1.5096,0,1,3.4904,1,0,33,33,0,1,20.03,0,1.99,0,,,,,,,,,,,,,,,,,,,,,,,,,,,,,,,,,,,,,,,,,,,,,,,,,,,,,,,,,,,,,,,,,,,,,,,,,,,,,,,,,,,,,,,,,,,,,,,,,,
,,5f88877885e51d02acd71b12,2022-09-09_02h25.01.117,CGTgamblingSpanTasks,2022.2.1,Win32,59.54153022,,,,,,,,2.5894,,,,,,,,,,,,,,2,n,1.4106,16.6,1,4.0894,1.5,0,34,34,27,1,16.6,0,9.7,0,,,,,,,,,,,,,,,,,,,,,,,,,,,,,,,,,,,,,,,,,,,,,,,,,,,,,,,,,,,,,,,,,,,,,,,,,,,,,,,,,,,,,,,,,,,,,,,,,,
,,5f88877885e51d02acd71b12,2022-09-09_02h25.01.117,CGTgamblingSpanTasks,2022.2.1,Win32,59.54153022,,,,,,,,2.5065,,,,,,,,,,,,,,1,v,1.4935,0,1,3.5065,1,0,35,35,34,1,10.39,0,6.81,0,,,,,,,,,,,,,,,,,,,,,,,,,,,,,,,,,,,,,,,,,,,,,,,,,,,,,,,,,,,,,,,,,,,,,,,,,,,,,,,,,,,,,,,,,,,,,,,,,,
,,5f88877885e51d02acd71b12,2022-09-09_02h25.01.117,CGTgamblingSpanTasks,2022.2.1,Win32,59.54153022,,,,,,,,2.8038,,,,,,,,,,,,,,2,n,1.1962,0,1,3.8038,1,0,36,36,3,1,25.2,0,5.4,0,,,,,,,,,,,,,,,,,,,,,,,,,,,,,,,,,,,,,,,,,,,,,,,,,,,,,,,,,,,,,,,,,,,,,,,,,,,,,,,,,,,,,,,,,,,,,,,,,,
,,5f88877885e51d02acd71b12,2022-09-09_02h25.01.117,CGTgamblingSpanTasks,2022.2.1,Win32,59.54153022,,,,,,,,2.9078,,,,,,,,,,,,,,2,n,1.0922,0,1,4.4078,1.5,0,37,37,9,1,20.53,0,7.73,0,,,,,,,,,,,,,,,,,,,,,,,,,,,,,,,,,,,,,,,,,,,,,,,,,,,,,,,,,,,,,,,,,,,,,,,,,,,,,,,,,,,,,,,,,,,,,,,,,,
,,5f88877885e51d02acd71b12,2022-09-09_02h25.01.117,CGTgamblingSpanTasks,2022.2.1,Win32,59.54153022,,,,,,,,2.675,,,,,,,,,,,,,,2,n,1.325,0,1,3.675,1,0,38,38,8,1,13.94,0,5.03,0,,,,,,,,,,,,,,,,,,,,,,,,,,,,,,,,,,,,,,,,,,,,,,,,,,,,,,,,,,,,,,,,,,,,,,,,,,,,,,,,,,,,,,,,,,,,,,,,,,
,,5f88877885e51d02acd71b12,2022-09-09_02h25.01.117,CGTgamblingSpanTasks,2022.2.1,Win32,59.54153022,,,,,,,,2.9846,,,,,,,,,,,,,,1,v,1.0154,0,1,3.9846,1,0,39,39,16,1,12.36,0,5.82,0,,,,,,,,,,,,,,,,,,,,,,,,,,,,,,,,,,,,,,,,,,,,,,,,,,,,,,,,,,,,,,,,,,,,,,,,,,,,,,,,,,,,,,,,,,,,,,,,,,
,,5f88877885e51d02acd71b12,2022-09-09_02h25.01.117,CGTgamblingSpanTasks,2022.2.1,Win32,59.54153022,,,,,,,,2.6343,,,,,,,,,,,,,,1,v,1.3657,13.45,1,3.6343,1,0,40,40,10,1,13.45,0,5.27,0,,,,,,,,,,,,,,,,,,,,,,,,,,,,,,,,,,,,,,,,,,,,,,,,,,,,,,,,,,,,,,,,,,,,,,,,,,,,,,,,,,,,,,,,,,,,,,,,,,
,,5f88877885e51d02acd71b12,2022-09-09_02h25.01.117,CGTgamblingSpanTasks,2022.2.1,Win32,59.54153022,,,,,,,,2.6685,,,,,,,,,,,,,,2,v,1.3315,10.68,0,4.1685,1.5,0,41,41,48,1,10.68,0,10.68,1,,,,,,,,,,,,,,,,,,,,,,,,,,,,,,,,,,,,,,,,,,,,,,,,,,,,,,,,,,,,,,,,,,,,,,,,,,,,,,,,,,,,,,,,,,,,,,,,,,
,,5f88877885e51d02acd71b12,2022-09-09_02h25.01.117,CGTgamblingSpanTasks,2022.2.1,Win32,59.54153022,,,,,,,,2.4635,,,,,,,,,,,,,,2,n,1.5365,11.2,1,3.9635,1.5,0,42,42,26,1,11.2,0,6.4,0,,,,,,,,,,,,,,,,,,,,,,,,,,,,,,,,,,,,,,,,,,,,,,,,,,,,,,,,,,,,,,,,,,,,,,,,,,,,,,,,,,,,,,,,,,,,,,,,,,
,,5f88877885e51d02acd71b12,2022-09-09_02h25.01.117,CGTgamblingSpanTasks,2022.2.1,Win32,59.54153022,,,,,,,,2.4256,,,,,,,,,,,,,,1,v,1.5744,0,1,3.4256,1,0,43,43,18,1,12.08,0,5.96,0,,,,,,,,,,,,,,,,,,,,,,,,,,,,,,,,,,,,,,,,,,,,,,,,,,,,,,,,,,,,,,,,,,,,,,,,,,,,,,,,,,,,,,,,,,,,,,,,,,
,,5f88877885e51d02acd71b12,2022-09-09_02h25.01.117,CGTgamblingSpanTasks,2022.2.1,Win32,59.54153022,,,,,,,,2.6273,,,,,,,,,,,,,,2,v,1.3727,9.92,0,4.1273,1.5,0,44,44,49,1,6.79,0,9.92,1,,,,,,,,,,,,,,,,,,,,,,,,,,,,,,,,,,,,,,,,,,,,,,,,,,,,,,,,,,,,,,,,,,,,,,,,,,,,,,,,,,,,,,,,,,,,,,,,,,
,,5f88877885e51d02acd71b12,2022-09-09_02h25.01.117,CGTgamblingSpanTasks,2022.2.1,Win32,59.54153022,,,,,,,,2.5678,,,,,,,,,,,,,,1,v,1.4322,0,1,3.5678,1,0,45,45,17,1,18.33,0,8.84,0,,,,,,,,,,,,,,,,,,,,,,,,,,,,,,,,,,,,,,,,,,,,,,,,,,,,,,,,,,,,,,,,,,,,,,,,,,,,,,,,,,,,,,,,,,,,,,,,,,
,,5f88877885e51d02acd71b12,2022-09-09_02h25.01.117,CGTgamblingSpanTasks,2022.2.1,Win32,59.54153022,,,,,,,,2.7354,,,,,,,,,,,,,,2,n,1.2646,11.43,1,4.2354,1.5,0,46,46,24,1,11.43,0,6.29,0,,,,,,,,,,,,,,,,,,,,,,,,,,,,,,,,,,,,,,,,,,,,,,,,,,,,,,,,,,,,,,,,,,,,,,,,,,,,,,,,,,,,,,,,,,,,,,,,,,
,,5f88877885e51d02acd71b12,2022-09-09_02h25.01.117,CGTgamblingSpanTasks,2022.2.1,Win32,59.54153022,,,,,,,,2.2362,,,,,,,,,,,,,,1,v,1.7638,0,1,3.7362,1.5,0,47,47,37,1,15.27,0,10.37,0,,,,,,,,,,,,,,,,,,,,,,,,,,,,,,,,,,,,,,,,,,,,,,,,,,,,,,,,,,,,,,,,,,,,,,,,,,,,,,,,,,,,,,,,,,,,,,,,,,
,,5f88877885e51d02acd71b12,2022-09-09_02h25.01.117,CGTgamblingSpanTasks,2022.2.1,Win32,59.54153022,,,,,,,,2.6157,,,,,,,,,,,,,,2,n,1.3843,10.55,1,3.6157,1,0,48,48,32,1,10.55,0,6.73,0,,,,,,,,,,,,,,,,,,,,,,,,,,,,,,,,,,,,,,,,,,,,,,,,,,,,,,,,,,,,,,,,,,,,,,,,,,,,,,,,,,,,,,,,,,,,,,,,,,
,,5f88877885e51d02acd71b12,2022-09-09_02h25.01.117,CGTgamblingSpanTasks,2022.2.1,Win32,59.54153022,,,,,,,,2.4168,,,,,,,,,,,,,,1,v,1.5832,16,1,3.9168,1.5,0,49,49,4,1,16,0,4,0,,,,,,,,,,,,,,,,,,,,,,,,,,,,,,,,,,,,,,,,,,,,,,,,,,,,,,,,,,,,,,,,,,,,,,,,,,,,,,,,,,,,,,,,,,,,,,,,,,
,,5f88877885e51d02acd71b12,2022-09-09_02h25.01.117,CGTgamblingSpanTasks,2022.2.1,Win32,59.54153022,,,,,,,,,,,,,,,,,,,,,,,,,,,,,,,,,,,,,,bespoke_choiceset_rhoInd109_muInd059.csv,bespoke_choicesets/bespoke_choiceset_rhoInd109_muInd059.csv,109,59,0,0,0,0,1,,,,,,,,,,,,,,,,,,,,,,,,,,,,,,,,,,,,,,,,,,,,,,,,,,,,,,,,,,,,,,,,,,,,,,,,,,,,,,,,,,,,,,,,,
,,5f88877885e51d02acd71b12,2022-09-09_02h25.01.117,CGTgamblingSpanTasks,2022.2.1,Win32,59.54153022,,,,,,,,,,,,,,,,,,,,,,,,,,,,,,,,,,,,,,,,,,,,,,,,,,,,,,,,,,,,,,,,,,,,,,,,,,,,,,,,,,,,,,,,,,,,,,,,,,,,,,,,,,,,,,,,,,,,,,,,,,,,,,,,,,,,,,,
,,5f88877885e51d02acd71b12,2022-09-09_02h25.01.117,CGTgamblingSpanTasks,2022.2.1,Win32,59.54153022,,,,,,,,,,,,,,,,,,,,,,,,,,,,,,,,,,,,,,,,,,,,,,,n,2.7132,,,,,,,,,,,,,,,,,,,,,,,,,,,,,,,,,,,,,,,,,,,,,,,,,,,,,,,,,,,,,,,,,,,,,,,,,,,,,,,,,,,,,,,
,,5f88877885e51d02acd71b12,2022-09-09_02h25.01.117,CGTgamblingSpanTasks,2022.2.1,Win32,59.54153022,,,,,,,,2.5099,,,,,,,,,,,,,,2,n,1.4901,0,1,4.0099,1.5,,,,,,29.75778644,0,2.810531415,,,,,,,,,,,,,0,0,0,113,1,0.512824233,1,,,,,,,,,,,,,,,,,,,,,,,,,,,,,,,,,,,,,,,,,,,,,,,,,,,,,,,,,,,,,,,,,,,,,,,,,,,,,,,,
,,5f88877885e51d02acd71b12,2022-09-09_02h25.01.117,CGTgamblingSpanTasks,2022.2.1,Win32,59.54153022,,,,,,,,2.1947,,,,,,,,,,,,,,1,v,1.8053,26.36733703,1,3.1947,1,,,,,,26.36733703,0,2.201057101,,,,,,,,,,,,,0,1,1,90,1,0.544064207,1,,,,,,,,,,,,,,,,,,,,,,,,,,,,,,,,,,,,,,,,,,,,,,,,,,,,,,,,,,,,,,,,,,,,,,,,,,,,,,,,
,,5f88877885e51d02acd71b12,2022-09-09_02h25.01.117,CGTgamblingSpanTasks,2022.2.1,Win32,59.54153022,,,,,,,,2.8065,,,,,,,,,,,,,,2,n,1.1935,0,1,4.3065,1.5,,,,,,18.51345298,0,1.932334278,,,,,,,,,,,,,0,2,2,31,1,0.48658696,1,,,,,,,,,,,,,,,,,,,,,,,,,,,,,,,,,,,,,,,,,,,,,,,,,,,,,,,,,,,,,,,,,,,,,,,,,,,,,,,,
,,5f88877885e51d02acd71b12,2022-09-09_02h25.01.117,CGTgamblingSpanTasks,2022.2.1,Win32,59.54153022,,,,,,,,2.5334,,,,,,,,,,,,,,2,n,1.4666,27.60724521,1,4.0334,1.5,,,,,,27.60724521,0,0.088432325,,,,,,,,,,,,,0,3,3,17,1,0.904684186,0,,,,,,,,,,,,,,,,,,,,,,,,,,,,,,,,,,,,,,,,,,,,,,,,,,,,,,,,,,,,,,,,,,,,,,,,,,,,,,,,
,,5f88877885e51d02acd71b12,2022-09-09_02h25.01.117,CGTgamblingSpanTasks,2022.2.1,Win32,59.54153022,,,,,,,,2.9562,,,,,,,,,,,,,,2,n,1.0438,21.17800335,1,3.9562,1,,,,,,21.17800335,0,0.059830985,,,,,,,,,,,,,0,4,4,67,1,0.908594974,0,,,,,,,,,,,,,,,,,,,,,,,,,,,,,,,,,,,,,,,,,,,,,,,,,,,,,,,,,,,,,,,,,,,,,,,,,,,,,,,,
,,5f88877885e51d02acd71b12,2022-09-09_02h25.01.117,CGTgamblingSpanTasks,2022.2.1,Win32,59.54153022,,,,,,,,2.4526,,,,,,,,,,,,,,2,v,1.5474,4.904872644,0,3.9526,1.5,,,,,,4.698775357,0,4.904872644,,,,,,,,,,,,,0,5,5,75,1,0.028064484,0,,,,,,,,,,,,,,,,,,,,,,,,,,,,,,,,,,,,,,,,,,,,,,,,,,,,,,,,,,,,,,,,,,,,,,,,,,,,,,,,
,,5f88877885e51d02acd71b12,2022-09-09_02h25.01.117,CGTgamblingSpanTasks,2022.2.1,Win32,59.54153022,,,,,,,,2.687,,,,,,,,,,,,,,2,n,1.313,0,1,4.187,1.5,,,,,,17.85020524,0,2.058701084,,,,,,,,,,,,,0,6,6,25,1,0.459662216,1,,,,,,,,,,,,,,,,,,,,,,,,,,,,,,,,,,,,,,,,,,,,,,,,,,,,,,,,,,,,,,,,,,,,,,,,,,,,,,,,
,,5f88877885e51d02acd71b12,2022-09-09_02h25.01.117,CGTgamblingSpanTasks,2022.2.1,Win32,59.54153022,,,,,,,,3.0371,,,,,,,,,,,,,,2,n,0.9629,23.0613391,1,4.0371,1,,,,,,23.0613391,0,2.387726776,,,,,,,,,,,,,0,7,7,69,1,0.488727763,1,,,,,,,,,,,,,,,,,,,,,,,,,,,,,,,,,,,,,,,,,,,,,,,,,,,,,,,,,,,,,,,,,,,,,,,,,,,,,,,,
,,5f88877885e51d02acd71b12,2022-09-09_02h25.01.117,CGTgamblingSpanTasks,2022.2.1,Win32,59.54153022,,,,,,,,2.2257,,,,,,,,,,,,,,1,v,1.7743,0,1,3.2257,1,,,,,,25.26994993,0,2.78925142,,,,,,,,,,,,,0,8,8,108,1,0.471582922,1,,,,,,,,,,,,,,,,,,,,,,,,,,,,,,,,,,,,,,,,,,,,,,,,,,,,,,,,,,,,,,,,,,,,,,,,,,,,,,,,
,,5f88877885e51d02acd71b12,2022-09-09_02h25.01.117,CGTgamblingSpanTasks,2022.2.1,Win32,59.54153022,,,,,,,,2.2209,,,,,,,,,,,,,,2,n,1.7791,27.37527992,1,3.2209,1,,,,,,27.37527992,0,2.860319095,,,,,,,,,,,,,0,9,9,39,1,0.486304156,1,,,,,,,,,,,,,,,,,,,,,,,,,,,,,,,,,,,,,,,,,,,,,,,,,,,,,,,,,,,,,,,,,,,,,,,,,,,,,,,,
,,5f88877885e51d02acd71b12,2022-09-09_02h25.01.117,CGTgamblingSpanTasks,2022.2.1,Win32,59.54153022,,,,,,,,2.4135,,,,,,,,,,,,,,1,v,1.5865,0,1,3.9135,1.5,,,,,,29.77342428,0,2.838865588,,,,,,,,,,,,,0,10,10,57,1,0.510363415,1,,,,,,,,,,,,,,,,,,,,,,,,,,,,,,,,,,,,,,,,,,,,,,,,,,,,,,,,,,,,,,,,,,,,,,,,,,,,,,,,
,,5f88877885e51d02acd71b12,2022-09-09_02h25.01.117,CGTgamblingSpanTasks,2022.2.1,Win32,59.54153022,,,,,,,,2.0574,,,,,,,,,,,,,,1,v,1.9426,17.67865084,1,3.5574,1.5,,,,,,17.67865084,0,11.35147481,,,,,,,,,,,,,0,11,11,91,1,0.067304606,0,,,,,,,,,,,,,,,,,,,,,,,,,,,,,,,,,,,,,,,,,,,,,,,,,,,,,,,,,,,,,,,,,,,,,,,,,,,,,,,,
,,5f88877885e51d02acd71b12,2022-09-09_02h25.01.117,CGTgamblingSpanTasks,2022.2.1,Win32,59.54153022,,,,,,,,2.3734,,,,,,,,,,,,,,1,v,1.6266,28.13634754,1,3.3734,1,,,,,,28.13634754,0,2.532806323,,,,,,,,,,,,,0,12,12,28,1,0.525136524,1,,,,,,,,,,,,,,,,,,,,,,,,,,,,,,,,,,,,,,,,,,,,,,,,,,,,,,,,,,,,,,,,,,,,,,,,,,,,,,,,
,,5f88877885e51d02acd71b12,2022-09-09_02h25.01.117,CGTgamblingSpanTasks,2022.2.1,Win32,59.54153022,,,,,,,,2.2925,,,,,,,,,,,,,,1,v,1.7075,7.534278541,1,3.2925,1,,,,,,7.534278541,0,0.747140182,,,,,,,,,,,,,0,13,13,37,1,0.50012466,1,,,,,,,,,,,,,,,,,,,,,,,,,,,,,,,,,,,,,,,,,,,,,,,,,,,,,,,,,,,,,,,,,,,,,,,,,,,,,,,,
,,5f88877885e51d02acd71b12,2022-09-09_02h25.01.117,CGTgamblingSpanTasks,2022.2.1,Win32,59.54153022,,,,,,,,2.4372,,,,,,,,,,,,,,1,n,1.5628,6.833409611,0,3.4372,1,,,,,,6.325091157,0,6.833409611,,,,,,,,,,,,,0,14,14,58,1,0.027113638,0,,,,,,,,,,,,,,,,,,,,,,,,,,,,,,,,,,,,,,,,,,,,,,,,,,,,,,,,,,,,,,,,,,,,,,,,,,,,,,,,
,,5f88877885e51d02acd71b12,2022-09-09_02h25.01.117,CGTgamblingSpanTasks,2022.2.1,Win32,59.54153022,,,,,,,,2.9427,,,,,,,,,,,,,,2,n,1.0573,0,1,4.4427,1.5,,,,,,21.03408097,0,2.208275162,,,,,,,,,,,,,0,15,15,0,1,0.485031246,1,,,,,,,,,,,,,,,,,,,,,,,,,,,,,,,,,,,,,,,,,,,,,,,,,,,,,,,,,,,,,,,,,,,,,,,,,,,,,,,,
,,5f88877885e51d02acd71b12,2022-09-09_02h25.01.117,CGTgamblingSpanTasks,2022.2.1,Win32,59.54153022,,,,,,,,3.1201,,,,,,,,,,,,,,2,n,0.8799,27.2532142,1,4.6201,1.5,,,,,,27.2532142,0,0.08089327,,,,,,,,,,,,,0,16,16,119,1,0.907091845,0,,,,,,,,,,,,,,,,,,,,,,,,,,,,,,,,,,,,,,,,,,,,,,,,,,,,,,,,,,,,,,,,,,,,,,,,,,,,,,,,
,,5f88877885e51d02acd71b12,2022-09-09_02h25.01.117,CGTgamblingSpanTasks,2022.2.1,Win32,59.54153022,,,,,,,,2.594,,,,,,,,,,,,,,1,v,1.406,20.97851654,1,4.094,1.5,,,,,,20.97851654,0,11.39288827,,,,,,,,,,,,,0,17,17,2,1,0.088791079,0,,,,,,,,,,,,,,,,,,,,,,,,,,,,,,,,,,,,,,,,,,,,,,,,,,,,,,,,,,,,,,,,,,,,,,,,,,,,,,,,
,,5f88877885e51d02acd71b12,2022-09-09_02h25.01.117,CGTgamblingSpanTasks,2022.2.1,Win32,59.54153022,,,,,,,,3.0431,,,,,,,,,,,,,,2,n,0.9569,13.96521039,1,4.5431,1.5,,,,,,13.96521039,0,1.591282699,,,,,,,,,,,,,0,18,18,49,1,0.462956344,1,,,,,,,,,,,,,,,,,,,,,,,,,,,,,,,,,,,,,,,,,,,,,,,,,,,,,,,,,,,,,,,,,,,,,,,,,,,,,,,,
,,5f88877885e51d02acd71b12,2022-09-09_02h25.01.117,CGTgamblingSpanTasks,2022.2.1,Win32,59.54153022,,,,,,,,3.0949,,,,,,,,,,,,,,2,n,0.9051,0,1,4.0949,1,,,,,,17.30137174,0,1.716380842,,,,,,,,,,,,,0,19,19,20,1,0.500020285,1,,,,,,,,,,,,,,,,,,,,,,,,,,,,,,,,,,,,,,,,,,,,,,,,,,,,,,,,,,,,,,,,,,,,,,,,,,,,,,,,
,,5f88877885e51d02acd71b12,2022-09-09_02h25.01.117,CGTgamblingSpanTasks,2022.2.1,Win32,59.54153022,,,,,,,,2.6744,,,,,,,,,,,,,,1,n,1.3256,4.462262453,0,4.1744,1.5,,,,,,0.192759042,0,4.462262453,,,,,,,,,,,,,0,20,20,52,1,0.003553223,0,,,,,,,,,,,,,,,,,,,,,,,,,,,,,,,,,,,,,,,,,,,,,,,,,,,,,,,,,,,,,,,,,,,,,,,,,,,,,,,,
,,5f88877885e51d02acd71b12,2022-09-09_02h25.01.117,CGTgamblingSpanTasks,2022.2.1,Win32,59.54153022,,,,,,,,2.8201,,,,,,,,,,,,,,1,v,1.1799,19.58698544,1,4.3201,1.5,,,,,,19.58698544,0,9.936178001,,,,,,,,,,,,,0,21,21,77,1,0.098812204,0,,,,,,,,,,,,,,,,,,,,,,,,,,,,,,,,,,,,,,,,,,,,,,,,,,,,,,,,,,,,,,,,,,,,,,,,,,,,,,,,
,,5f88877885e51d02acd71b12,2022-09-09_02h25.01.117,CGTgamblingSpanTasks,2022.2.1,Win32,59.54153022,,,,,,,,2.9546,,,,,,,,,,,,,,1,v,1.0454,22.0050376,1,4.4546,1.5,,,,,,22.0050376,0,2.257683666,,,,,,,,,,,,,0,22,22,4,1,0.491147312,1,,,,,,,,,,,,,,,,,,,,,,,,,,,,,,,,,,,,,,,,,,,,,,,,,,,,,,,,,,,,,,,,,,,,,,,,,,,,,,,,
,,5f88877885e51d02acd71b12,2022-09-09_02h25.01.117,CGTgamblingSpanTasks,2022.2.1,Win32,59.54153022,,,,,,,,2.9809,,,,,,,,,,,,,,1,v,1.0191,25.76582409,1,3.9809,1,,,,,,25.76582409,0,2.393193076,,,,,,,,,,,,,0,23,23,46,1,0.517129855,1,,,,,,,,,,,,,,,,,,,,,,,,,,,,,,,,,,,,,,,,,,,,,,,,,,,,,,,,,,,,,,,,,,,,,,,,,,,,,,,,
,,5f88877885e51d02acd71b12,2022-09-09_02h25.01.117,CGTgamblingSpanTasks,2022.2.1,Win32,59.54153022,,,,,,,,2.9641,,,,,,,,,,,,,,1,v,1.0359,23.59556381,1,3.9641,1,,,,,,23.59556381,0,2.464662219,,,,,,,,,,,,,0,24,24,22,1,0.486383205,1,,,,,,,,,,,,,,,,,,,,,,,,,,,,,,,,,,,,,,,,,,,,,,,,,,,,,,,,,,,,,,,,,,,,,,,,,,,,,,,,
,,5f88877885e51d02acd71b12,2022-09-09_02h25.01.117,CGTgamblingSpanTasks,2022.2.1,Win32,59.54153022,,,,,,,,2.8621,,,,,,,,,,,,,,1,v,1.1379,11.08143071,1,4.3621,1.5,,,,,,11.08143071,0,1.207538756,,,,,,,,,,,,,0,25,25,84,1,0.475047453,1,,,,,,,,,,,,,,,,,,,,,,,,,,,,,,,,,,,,,,,,,,,,,,,,,,,,,,,,,,,,,,,,,,,,,,,,,,,,,,,,
,,5f88877885e51d02acd71b12,2022-09-09_02h25.01.117,CGTgamblingSpanTasks,2022.2.1,Win32,59.54153022,,,,,,,,3.074,,,,,,,,,,,,,,1,v,0.926,0,1,4.574,1.5,,,,,,29.76099779,0,0.095763086,,,,,,,,,,,,,0,26,26,35,1,0.904537896,0,,,,,,,,,,,,,,,,,,,,,,,,,,,,,,,,,,,,,,,,,,,,,,,,,,,,,,,,,,,,,,,,,,,,,,,,,,,,,,,,
,,5f88877885e51d02acd71b12,2022-09-09_02h25.01.117,CGTgamblingSpanTasks,2022.2.1,Win32,59.54153022,,,,,,,,2.6651,,,,,,,,,,,,,,2,n,1.3349,20.5726842,1,3.6651,1,,,,,,20.5726842,0,0.073558523,,,,,,,,,,,,,0,27,27,26,1,0.901008565,0,,,,,,,,,,,,,,,,,,,,,,,,,,,,,,,,,,,,,,,,,,,,,,,,,,,,,,,,,,,,,,,,,,,,,,,,,,,,,,,,
,,5f88877885e51d02acd71b12,2022-09-09_02h25.01.117,CGTgamblingSpanTasks,2022.2.1,Win32,59.54153022,,,,,,,,2.1698,,,,,,,,,,,,,,2,n,1.8302,0,1,3.6698,1.5,,,,,,24.35708027,0,2.738695417,,,,,,,,,,,,,0,28,28,114,1,0.466573634,1,,,,,,,,,,,,,,,,,,,,,,,,,,,,,,,,,,,,,,,,,,,,,,,,,,,,,,,,,,,,,,,,,,,,,,,,,,,,,,,,
,,5f88877885e51d02acd71b12,2022-09-09_02h25.01.117,CGTgamblingSpanTasks,2022.2.1,Win32,59.54153022,,,,,,,,2.1877,,,,,,,,,,,,,,2,n,1.8123,0,1,3.1877,1,,,,,,10.05300841,0,8.512335864,,,,,,,,,,,,,0,29,29,74,1,0.040729225,0,,,,,,,,,,,,,,,,,,,,,,,,,,,,,,,,,,,,,,,,,,,,,,,,,,,,,,,,,,,,,,,,,,,,,,,,,,,,,,,,
,,5f88877885e51d02acd71b12,2022-09-09_02h25.01.117,CGTgamblingSpanTasks,2022.2.1,Win32,59.54153022,,,,,,,,2.3347,,,,,,,,,,,,,,2,n,1.6653,27.53810185,1,3.3347,1,,,,,,27.53810185,0,0.097022401,,,,,,,,,,,,,0,30,30,50,1,0.901515865,0,,,,,,,,,,,,,,,,,,,,,,,,,,,,,,,,,,,,,,,,,,,,,,,,,,,,,,,,,,,,,,,,,,,,,,,,,,,,,,,,
,,5f88877885e51d02acd71b12,2022-09-09_02h25.01.117,CGTgamblingSpanTasks,2022.2.1,Win32,59.54153022,,,,,,,,2.7036,,,,,,,,,,,,,,2,n,1.2964,8.670591867,1,3.7036,1,,,,,,8.670591867,0,1.025847652,,,,,,,,,,,,,0,31,31,18,1,0.452680459,1,,,,,,,,,,,,,,,,,,,,,,,,,,,,,,,,,,,,,,,,,,,,,,,,,,,,,,,,,,,,,,,,,,,,,,,,,,,,,,,,
,,5f88877885e51d02acd71b12,2022-09-09_02h25.01.117,CGTgamblingSpanTasks,2022.2.1,Win32,59.54153022,,,,,,,,2.8166,,,,,,,,,,,,,,1,v,1.1834,27.4965044,1,3.8166,1,,,,,,27.4965044,0,2.461467004,,,,,,,,,,,,,0,32,32,36,1,0.526550878,1,,,,,,,,,,,,,,,,,,,,,,,,,,,,,,,,,,,,,,,,,,,,,,,,,,,,,,,,,,,,,,,,,,,,,,,,,,,,,,,,
,,5f88877885e51d02acd71b12,2022-09-09_02h25.01.117,CGTgamblingSpanTasks,2022.2.1,Win32,59.54153022,,,,,,,,1.2776,,,,,,,,,,,,,,1,v,2.7224,21.39646914,1,2.7776,1.5,,,,,,21.39646914,0,0.072474078,,,,,,,,,,,,,0,33,33,3,1,0.902848133,0,,,,,,,,,,,,,,,,,,,,,,,,,,,,,,,,,,,,,,,,,,,,,,,,,,,,,,,,,,,,,,,,,,,,,,,,,,,,,,,,
,,5f88877885e51d02acd71b12,2022-09-09_02h25.01.117,CGTgamblingSpanTasks,2022.2.1,Win32,59.54153022,,,,,,,,2.0891,,,,,,,,,,,,,,2,n,1.9109,27.93093084,1,3.5891,1.5,,,,,,27.93093084,0,0.050207531,,,,,,,,,,,,,0,34,34,83,1,0.920505936,0,,,,,,,,,,,,,,,,,,,,,,,,,,,,,,,,,,,,,,,,,,,,,,,,,,,,,,,,,,,,,,,,,,,,,,,,,,,,,,,,
,,5f88877885e51d02acd71b12,2022-09-09_02h25.01.117,CGTgamblingSpanTasks,2022.2.1,Win32,59.54153022,,,,,,,,2.6316,,,,,,,,,,,,,,2,n,1.3684,24.57684014,1,3.6316,1,,,,,,24.57684014,0,0.061756244,,,,,,,,,,,,,0,35,35,68,1,0.911988903,0,,,,,,,,,,,,,,,,,,,,,,,,,,,,,,,,,,,,,,,,,,,,,,,,,,,,,,,,,,,,,,,,,,,,,,,,,,,,,,,,
,,5f88877885e51d02acd71b12,2022-09-09_02h25.01.117,CGTgamblingSpanTasks,2022.2.1,Win32,59.54153022,,,,,,,,2.236,,,,,,,,,,,,,,1,v,1.764,13.84410806,1,3.236,1,,,,,,13.84410806,0,1.535873964,,,,,,,,,,,,,0,36,36,88,1,0.470209002,1,,,,,,,,,,,,,,,,,,,,,,,,,,,,,,,,,,,,,,,,,,,,,,,,,,,,,,,,,,,,,,,,,,,,,,,,,,,,,,,,
,,5f88877885e51d02acd71b12,2022-09-09_02h25.01.117,CGTgamblingSpanTasks,2022.2.1,Win32,59.54153022,,,,,,,,1.7712,,,,,,,,,,,,,,1,n,2.2288,6.091504705,0,2.7712,1,,,,,,6.662965216,0,6.091504705,,,,,,,,,,,,,0,37,37,102,1,0.035087099,0,,,,,,,,,,,,,,,,,,,,,,,,,,,,,,,,,,,,,,,,,,,,,,,,,,,,,,,,,,,,,,,,,,,,,,,,,,,,,,,,
,,5f88877885e51d02acd71b12,2022-09-09_02h25.01.117,CGTgamblingSpanTasks,2022.2.1,Win32,59.54153022,,,,,,,,2.3886,,,,,,,,,,,,,,1,n,1.6114,7.850775577,0,3.3886,1,,,,,,4.622707531,0,7.850775577,,,,,,,,,,,,,0,38,38,6,1,0.017737407,0,,,,,,,,,,,,,,,,,,,,,,,,,,,,,,,,,,,,,,,,,,,,,,,,,,,,,,,,,,,,,,,,,,,,,,,,,,,,,,,,
,,5f88877885e51d02acd71b12,2022-09-09_02h25.01.117,CGTgamblingSpanTasks,2022.2.1,Win32,59.54153022,,,,,,,,2.474,,,,,,,,,,,,,,1,v,1.526,18.16238569,1,3.974,1.5,,,,,,18.16238569,0,1.540604093,,,,,,,,,,,,,0,39,39,34,1,0.540092491,1,,,,,,,,,,,,,,,,,,,,,,,,,,,,,,,,,,,,,,,,,,,,,,,,,,,,,,,,,,,,,,,,,,,,,,,,,,,,,,,,
,,5f88877885e51d02acd71b12,2022-09-09_02h25.01.117,CGTgamblingSpanTasks,2022.2.1,Win32,59.54153022,,,,,,,,2.2358,,,,,,,,,,,,,,1,v,1.7642,0,1,3.7358,1.5,,,,,,17.64114152,0,10.68505773,,,,,,,,,,,,,0,40,40,98,1,0.074299362,0,,,,,,,,,,,,,,,,,,,,,,,,,,,,,,,,,,,,,,,,,,,,,,,,,,,,,,,,,,,,,,,,,,,,,,,,,,,,,,,,
,,5f88877885e51d02acd71b12,2022-09-09_02h25.01.117,CGTgamblingSpanTasks,2022.2.1,Win32,59.54153022,,,,,,,,2.506,,,,,,,,,,,,,,1,n,1.494,11.61882862,0,4.006,1.5,,,,,,4.022743614,0,11.61882862,,,,,,,,,,,,,0,41,41,38,1,0.011499376,0,,,,,,,,,,,,,,,,,,,,,,,,,,,,,,,,,,,,,,,,,,,,,,,,,,,,,,,,,,,,,,,,,,,,,,,,,,,,,,,,
,,5f88877885e51d02acd71b12,2022-09-09_02h25.01.117,CGTgamblingSpanTasks,2022.2.1,Win32,59.54153022,,,,,,,,2.5189,,,,,,,,,,,,,,1,v,1.4811,0,1,3.5189,1,,,,,,15.43649625,0,1.65459324,,,,,,,,,,,,,0,42,42,33,1,0.479480163,1,,,,,,,,,,,,,,,,,,,,,,,,,,,,,,,,,,,,,,,,,,,,,,,,,,,,,,,,,,,,,,,,,,,,,,,,,,,,,,,,
,,5f88877885e51d02acd71b12,2022-09-09_02h25.01.117,CGTgamblingSpanTasks,2022.2.1,Win32,59.54153022,,,,,,,,2.1027,,,,,,,,,,,,,,1,v,1.8973,0,1,3.1027,1,,,,,,27.12325385,0,0.080932047,,,,,,,,,,,,,0,43,43,14,1,0.906929184,0,,,,,,,,,,,,,,,,,,,,,,,,,,,,,,,,,,,,,,,,,,,,,,,,,,,,,,,,,,,,,,,,,,,,,,,,,,,,,,,,
,,5f88877885e51d02acd71b12,2022-09-09_02h25.01.117,CGTgamblingSpanTasks,2022.2.1,Win32,59.54153022,,,,,,,,2.4248,,,,,,,,,,,,,,2,n,1.5752,15.73000491,1,3.9248,1.5,,,,,,15.73000491,0,8.830252162,,,,,,,,,,,,,0,44,44,95,1,0.084193143,0,,,,,,,,,,,,,,,,,,,,,,,,,,,,,,,,,,,,,,,,,,,,,,,,,,,,,,,,,,,,,,,,,,,,,,,,,,,,,,,,
,,5f88877885e51d02acd71b12,2022-09-09_02h25.01.117,CGTgamblingSpanTasks,2022.2.1,Win32,59.54153022,,,,,,,,2.4146,,,,,,,,,,,,,,1,v,1.5854,0,1,3.4146,1,,,,,,17.5608285,0,1.825111303,,,,,,,,,,,,,0,45,45,104,1,0.487721116,1,,,,,,,,,,,,,,,,,,,,,,,,,,,,,,,,,,,,,,,,,,,,,,,,,,,,,,,,,,,,,,,,,,,,,,,,,,,,,,,,
,,5f88877885e51d02acd71b12,2022-09-09_02h25.01.117,CGTgamblingSpanTasks,2022.2.1,Win32,59.54153022,,,,,,,,2.3235,,,,,,,,,,,,,,2,n,1.6765,27.76752685,1,3.8235,1.5,,,,,,27.76752685,0,0.083968035,,,,,,,,,,,,,0,46,46,13,1,0.906513967,0,,,,,,,,,,,,,,,,,,,,,,,,,,,,,,,,,,,,,,,,,,,,,,,,,,,,,,,,,,,,,,,,,,,,,,,,,,,,,,,,
,,5f88877885e51d02acd71b12,2022-09-09_02h25.01.117,CGTgamblingSpanTasks,2022.2.1,Win32,59.54153022,,,,,,,,2.0083,,,,,,,,,,,,,,2,n,1.9917,0,1,3.0083,1,,,,,,25.21882231,0,0.085746782,,,,,,,,,,,,,0,47,47,64,1,0.90272076,0,,,,,,,,,,,,,,,,,,,,,,,,,,,,,,,,,,,,,,,,,,,,,,,,,,,,,,,,,,,,,,,,,,,,,,,,,,,,,,,,
,,5f88877885e51d02acd71b12,2022-09-09_02h25.01.117,CGTgamblingSpanTasks,2022.2.1,Win32,59.54153022,,,,,,,,2.447,,,,,,,,,,,,,,1,n,1.553,7.646213173,0,3.447,1,,,,,,2.042350179,0,7.646213173,,,,,,,,,,,,,0,48,48,53,1,0.009522273,0,,,,,,,,,,,,,,,,,,,,,,,,,,,,,,,,,,,,,,,,,,,,,,,,,,,,,,,,,,,,,,,,,,,,,,,,,,,,,,,,
,,5f88877885e51d02acd71b12,2022-09-09_02h25.01.117,CGTgamblingSpanTasks,2022.2.1,Win32,59.54153022,,,,,,,,2.6468,,,,,,,,,,,,,,2,n,1.3532,27.77179191,1,4.1468,1.5,,,,,,27.77179191,0,0.074524436,,,,,,,,,,,,,0,49,49,99,1,0.910114387,0,,,,,,,,,,,,,,,,,,,,,,,,,,,,,,,,,,,,,,,,,,,,,,,,,,,,,,,,,,,,,,,,,,,,,,,,,,,,,,,,
,,5f88877885e51d02acd71b12,2022-09-09_02h25.01.117,CGTgamblingSpanTasks,2022.2.1,Win32,59.54153022,,,,,,,,2.578,,,,,,,,,,,,,,2,n,1.422,21.7711579,1,3.578,1,,,,,,21.7711579,0,2.502728921,,,,,,,,,,,,,0,50,50,101,1,0.460552621,1,,,,,,,,,,,,,,,,,,,,,,,,,,,,,,,,,,,,,,,,,,,,,,,,,,,,,,,,,,,,,,,,,,,,,,,,,,,,,,,,
,,5f88877885e51d02acd71b12,2022-09-09_02h25.01.117,CGTgamblingSpanTasks,2022.2.1,Win32,59.54153022,,,,,,,,2.2207,,,,,,,,,,,,,,2,n,1.7793,0,1,3.2207,1,,,,,,19.30622782,0,10.31611309,,,,,,,,,,,,,0,51,51,1,1,0.091105656,0,,,,,,,,,,,,,,,,,,,,,,,,,,,,,,,,,,,,,,,,,,,,,,,,,,,,,,,,,,,,,,,,,,,,,,,,,,,,,,,,
,,5f88877885e51d02acd71b12,2022-09-09_02h25.01.117,CGTgamblingSpanTasks,2022.2.1,Win32,59.54153022,,,,,,,,2.3867,,,,,,,,,,,,,,1,n,1.6133,5.683635938,0,3.8867,1.5,,,,,,4.941039335,0,5.683635938,,,,,,,,,,,,,0,52,52,9,1,0.025481984,0,,,,,,,,,,,,,,,,,,,,,,,,,,,,,,,,,,,,,,,,,,,,,,,,,,,,,,,,,,,,,,,,,,,,,,,,,,,,,,,,
,,5f88877885e51d02acd71b12,2022-09-09_02h25.01.117,CGTgamblingSpanTasks,2022.2.1,Win32,59.54153022,,,,,,,,2.3525,,,,,,,,,,,,,,2,n,1.6475,0,1,3.3525,1,,,,,,14.11762686,0,8.579385201,,,,,,,,,,,,,0,53,53,60,1,0.073886959,0,,,,,,,,,,,,,,,,,,,,,,,,,,,,,,,,,,,,,,,,,,,,,,,,,,,,,,,,,,,,,,,,,,,,,,,,,,,,,,,,
,,5f88877885e51d02acd71b12,2022-09-09_02h25.01.117,CGTgamblingSpanTasks,2022.2.1,Win32,59.54153022,,,,,,,,2.5368,,,,,,,,,,,,,,1,v,1.4632,22.25959835,1,4.0368,1.5,,,,,,22.25959835,0,0.065383587,,,,,,,,,,,,,0,54,54,97,1,0.907413875,0,,,,,,,,,,,,,,,,,,,,,,,,,,,,,,,,,,,,,,,,,,,,,,,,,,,,,,,,,,,,,,,,,,,,,,,,,,,,,,,,
,,5f88877885e51d02acd71b12,2022-09-09_02h25.01.117,CGTgamblingSpanTasks,2022.2.1,Win32,59.54153022,,,,,,,,2.7528,,,,,,,,,,,,,,1,v,1.2472,0,1,4.2528,1.5,,,,,,22.87092517,0,0.059276504,,,,,,,,,,,,,0,55,55,27,1,0.911114935,0,,,,,,,,,,,,,,,,,,,,,,,,,,,,,,,,,,,,,,,,,,,,,,,,,,,,,,,,,,,,,,,,,,,,,,,,,,,,,,,,
,,5f88877885e51d02acd71b12,2022-09-09_02h25.01.117,CGTgamblingSpanTasks,2022.2.1,Win32,59.54153022,,,,,,,,2.4912,,,,,,,,,,,,,,1,v,1.5088,0,1,3.9912,1.5,,,,,,28.94627214,0,2.701896413,,,,,,,,,,,,,0,56,56,111,1,0.515860759,1,,,,,,,,,,,,,,,,,,,,,,,,,,,,,,,,,,,,,,,,,,,,,,,,,,,,,,,,,,,,,,,,,,,,,,,,,,,,,,,,
,,5f88877885e51d02acd71b12,2022-09-09_02h25.01.117,CGTgamblingSpanTasks,2022.2.1,Win32,59.54153022,,,,,,,,2.5689,,,,,,,,,,,,,,1,v,1.4311,25.56803059,1,3.5689,1,,,,,,25.56803059,0,2.543951743,,,,,,,,,,,,,0,57,57,41,1,0.499247217,1,,,,,,,,,,,,,,,,,,,,,,,,,,,,,,,,,,,,,,,,,,,,,,,,,,,,,,,,,,,,,,,,,,,,,,,,,,,,,,,,
,,5f88877885e51d02acd71b12,2022-09-09_02h25.01.117,CGTgamblingSpanTasks,2022.2.1,Win32,59.54153022,,,,,,,,2.4698,,,,,,,,,,,,,,2,n,1.5302,22.86604061,1,3.9698,1.5,,,,,,22.86604061,0,2.293289792,,,,,,,,,,,,,0,58,58,51,1,0.49715382,1,,,,,,,,,,,,,,,,,,,,,,,,,,,,,,,,,,,,,,,,,,,,,,,,,,,,,,,,,,,,,,,,,,,,,,,,,,,,,,,,
,,5f88877885e51d02acd71b12,2022-09-09_02h25.01.117,CGTgamblingSpanTasks,2022.2.1,Win32,59.54153022,,,,,,,,2.5446,,,,,,,,,,,,,,2,n,1.4554,24.66627941,1,4.0446,1.5,,,,,,24.66627941,0,2.765426402,,,,,,,,,,,,,0,59,59,24,1,0.467360588,1,,,,,,,,,,,,,,,,,,,,,,,,,,,,,,,,,,,,,,,,,,,,,,,,,,,,,,,,,,,,,,,,,,,,,,,,,,,,,,,,
,,5f88877885e51d02acd71b12,2022-09-09_02h25.01.117,CGTgamblingSpanTasks,2022.2.1,Win32,59.54153022,,,,,,,,2.4778,,,,,,,,,,,,,,1,v,1.5222,19.3050342,1,3.4778,1,,,,,,19.3050342,0,2.030232342,,,,,,,,,,,,,0,60,60,73,1,0.484573227,1,,,,,,,,,,,,,,,,,,,,,,,,,,,,,,,,,,,,,,,,,,,,,,,,,,,,,,,,,,,,,,,,,,,,,,,,,,,,,,,,
,,5f88877885e51d02acd71b12,2022-09-09_02h25.01.117,CGTgamblingSpanTasks,2022.2.1,Win32,59.54153022,,,,,,,,2.0637,,,,,,,,,,,,,,1,n,1.9363,10.41201161,0,3.0637,1,,,,,,6.307062696,0,10.41201161,,,,,,,,,,,,,0,61,61,23,1,0.018187109,0,,,,,,,,,,,,,,,,,,,,,,,,,,,,,,,,,,,,,,,,,,,,,,,,,,,,,,,,,,,,,,,,,,,,,,,,,,,,,,,,
,,5f88877885e51d02acd71b12,2022-09-09_02h25.01.117,CGTgamblingSpanTasks,2022.2.1,Win32,59.54153022,,,,,,,,2.4351,,,,,,,,,,,,,,1,v,1.5649,28.68598705,1,3.9351,1.5,,,,,,28.68598705,0,0.050674956,,,,,,,,,,,,,0,62,62,62,1,0.920905497,0,,,,,,,,,,,,,,,,,,,,,,,,,,,,,,,,,,,,,,,,,,,,,,,,,,,,,,,,,,,,,,,,,,,,,,,,,,,,,,,,
,,5f88877885e51d02acd71b12,2022-09-09_02h25.01.117,CGTgamblingSpanTasks,2022.2.1,Win32,59.54153022,,,,,,,,2.4037,,,,,,,,,,,,,,2,n,1.5963,19.68065872,1,3.9037,1.5,,,,,,19.68065872,0,1.843597162,,,,,,,,,,,,,0,63,63,80,1,0.514941058,1,,,,,,,,,,,,,,,,,,,,,,,,,,,,,,,,,,,,,,,,,,,,,,,,,,,,,,,,,,,,,,,,,,,,,,,,,,,,,,,,
,,5f88877885e51d02acd71b12,2022-09-09_02h25.01.117,CGTgamblingSpanTasks,2022.2.1,Win32,59.54153022,,,,,,,,2.5543,,,,,,,,,,,,,,2,n,1.4457,18.50662664,1,4.0543,1.5,,,,,,18.50662664,0,0.052546026,,,,,,,,,,,,,0,64,64,112,1,0.908444837,0,,,,,,,,,,,,,,,,,,,,,,,,,,,,,,,,,,,,,,,,,,,,,,,,,,,,,,,,,,,,,,,,,,,,,,,,,,,,,,,,
,,5f88877885e51d02acd71b12,2022-09-09_02h25.01.117,CGTgamblingSpanTasks,2022.2.1,Win32,59.54153022,,,,,,,,2.5281,,,,,,,,,,,,,,2,n,1.4719,0,1,4.0281,1.5,,,,,,23.24777057,0,2.003482335,,,,,,,,,,,,,0,65,65,59,1,0.536135174,1,,,,,,,,,,,,,,,,,,,,,,,,,,,,,,,,,,,,,,,,,,,,,,,,,,,,,,,,,,,,,,,,,,,,,,,,,,,,,,,,
,,5f88877885e51d02acd71b12,2022-09-09_02h25.01.117,CGTgamblingSpanTasks,2022.2.1,Win32,59.54153022,,,,,,,,1.7494,,,,,,,,,,,,,,1,n,2.2506,11.93550497,0,3.2494,1.5,,,,,,14.20587264,0,11.93550497,,,,,,,,,,,,,0,66,66,21,1,0.041340301,0,,,,,,,,,,,,,,,,,,,,,,,,,,,,,,,,,,,,,,,,,,,,,,,,,,,,,,,,,,,,,,,,,,,,,,,,,,,,,,,,
,,5f88877885e51d02acd71b12,2022-09-09_02h25.01.117,CGTgamblingSpanTasks,2022.2.1,Win32,59.54153022,,,,,,,,2.4012,,,,,,,,,,,,,,1,v,1.5988,15.13999312,1,3.9012,1.5,,,,,,15.13999312,0,8.653432553,,,,,,,,,,,,,0,67,67,54,1,0.081767484,0,,,,,,,,,,,,,,,,,,,,,,,,,,,,,,,,,,,,,,,,,,,,,,,,,,,,,,,,,,,,,,,,,,,,,,,,,,,,,,,,
,,5f88877885e51d02acd71b12,2022-09-09_02h25.01.117,CGTgamblingSpanTasks,2022.2.1,Win32,59.54153022,,,,,,,,2.681,,,,,,,,,,,,,,2,v,1.319,11.19311486,0,3.681,1,,,,,,8.17598802,0,11.19311486,,,,,,,,,,,,,0,68,68,110,1,0.021568003,0,,,,,,,,,,,,,,,,,,,,,,,,,,,,,,,,,,,,,,,,,,,,,,,,,,,,,,,,,,,,,,,,,,,,,,,,,,,,,,,,
,,5f88877885e51d02acd71b12,2022-09-09_02h25.01.117,CGTgamblingSpanTasks,2022.2.1,Win32,59.54153022,,,,,,,,2.4875,,,,,,,,,,,,,,1,v,1.5125,0,1,3.4875,1,,,,,,21.46599803,0,0.059789256,,,,,,,,,,,,,0,69,69,8,1,0.909019081,0,,,,,,,,,,,,,,,,,,,,,,,,,,,,,,,,,,,,,,,,,,,,,,,,,,,,,,,,,,,,,,,,,,,,,,,,,,,,,,,,
,,5f88877885e51d02acd71b12,2022-09-09_02h25.01.117,CGTgamblingSpanTasks,2022.2.1,Win32,59.54153022,,,,,,,,2.2281,,,,,,,,,,,,,,2,n,1.7719,0,1,3.2281,1,,,,,,15.21435748,0,10.3417501,,,,,,,,,,,,,0,70,70,72,1,0.060969226,0,,,,,,,,,,,,,,,,,,,,,,,,,,,,,,,,,,,,,,,,,,,,,,,,,,,,,,,,,,,,,,,,,,,,,,,,,,,,,,,,
,,5f88877885e51d02acd71b12,2022-09-09_02h25.01.117,CGTgamblingSpanTasks,2022.2.1,Win32,59.54153022,,,,,,,,2.3313,,,,,,,,,,,,,,2,n,1.6687,19.5450126,1,3.3313,1,,,,,,19.5450126,0,2.123581464,,,,,,,,,,,,,0,71,71,65,1,0.475836144,1,,,,,,,,,,,,,,,,,,,,,,,,,,,,,,,,,,,,,,,,,,,,,,,,,,,,,,,,,,,,,,,,,,,,,,,,,,,,,,,,
,,5f88877885e51d02acd71b12,2022-09-09_02h25.01.117,CGTgamblingSpanTasks,2022.2.1,Win32,59.54153022,,,,,,,,2.456,,,,,,,,,,,,,,2,n,1.544,0,1,3.956,1.5,,,,,,17.92584289,0,1.878232496,,,,,,,,,,,,,0,72,72,5,1,0.485559263,1,,,,,,,,,,,,,,,,,,,,,,,,,,,,,,,,,,,,,,,,,,,,,,,,,,,,,,,,,,,,,,,,,,,,,,,,,,,,,,,,
,,5f88877885e51d02acd71b12,2022-09-09_02h25.01.117,CGTgamblingSpanTasks,2022.2.1,Win32,59.54153022,,,,,,,,2.8361,,,,,,,,,,,,,,2,n,1.1639,27.57491653,1,4.3361,1.5,,,,,,27.57491653,0,2.99133314,,,,,,,,,,,,,0,73,73,10,1,0.47625893,1,,,,,,,,,,,,,,,,,,,,,,,,,,,,,,,,,,,,,,,,,,,,,,,,,,,,,,,,,,,,,,,,,,,,,,,,,,,,,,,,
,,5f88877885e51d02acd71b12,2022-09-09_02h25.01.117,CGTgamblingSpanTasks,2022.2.1,Win32,59.54153022,,,,,,,,2.885,,,,,,,,,,,,,,2,n,1.115,0,1,3.885,1,,,,,,21.00799273,0,0.067969053,,,,,,,,,,,,,0,74,74,92,1,0.904360262,0,,,,,,,,,,,,,,,,,,,,,,,,,,,,,,,,,,,,,,,,,,,,,,,,,,,,,,,,,,,,,,,,,,,,,,,,,,,,,,,,
,,5f88877885e51d02acd71b12,2022-09-09_02h25.01.117,CGTgamblingSpanTasks,2022.2.1,Win32,59.54153022,,,,,,,,2.4176,,,,,,,,,,,,,,1,v,1.5824,24.479109,1,3.9176,1.5,,,,,,24.479109,0,0.089582697,,,,,,,,,,,,,0,75,75,89,1,0.900200232,0,,,,,,,,,,,,,,,,,,,,,,,,,,,,,,,,,,,,,,,,,,,,,,,,,,,,,,,,,,,,,,,,,,,,,,,,,,,,,,,,
,,5f88877885e51d02acd71b12,2022-09-09_02h25.01.117,CGTgamblingSpanTasks,2022.2.1,Win32,59.54153022,,,,,,,,2.2409,,,,,,,,,,,,,,2,n,1.7591,20.31034258,1,3.7409,1.5,,,,,,20.31034258,0,1.870404296,,,,,,,,,,,,,0,76,76,85,1,0.519325853,1,,,,,,,,,,,,,,,,,,,,,,,,,,,,,,,,,,,,,,,,,,,,,,,,,,,,,,,,,,,,,,,,,,,,,,,,,,,,,,,,
,,5f88877885e51d02acd71b12,2022-09-09_02h25.01.117,CGTgamblingSpanTasks,2022.2.1,Win32,59.54153022,,,,,,,,2.0365,,,,,,,,,,,,,,1,v,1.9635,25.0707644,1,3.5365,1.5,,,,,,25.0707644,0,0.067651625,,,,,,,,,,,,,0,77,77,70,1,0.909952349,0,,,,,,,,,,,,,,,,,,,,,,,,,,,,,,,,,,,,,,,,,,,,,,,,,,,,,,,,,,,,,,,,,,,,,,,,,,,,,,,,
,,5f88877885e51d02acd71b12,2022-09-09_02h25.01.117,CGTgamblingSpanTasks,2022.2.1,Win32,59.54153022,,,,,,,,1.8509,,,,,,,,,,,,,,2,v,2.1491,7.50753835,0,2.8509,1,,,,,,2.231316635,0,7.50753835,,,,,,,,,,,,,0,78,78,29,1,0.010273427,0,,,,,,,,,,,,,,,,,,,,,,,,,,,,,,,,,,,,,,,,,,,,,,,,,,,,,,,,,,,,,,,,,,,,,,,,,,,,,,,,
,,5f88877885e51d02acd71b12,2022-09-09_02h25.01.117,CGTgamblingSpanTasks,2022.2.1,Win32,59.54153022,,,,,,,,1.8097,,,,,,,,,,,,,,2,v,2.1903,5.526483034,0,2.8097,1,,,,,,9.725876653,0,5.526483034,,,,,,,,,,,,,0,79,79,44,1,0.082550696,0,,,,,,,,,,,,,,,,,,,,,,,,,,,,,,,,,,,,,,,,,,,,,,,,,,,,,,,,,,,,,,,,,,,,,,,,,,,,,,,,
,,5f88877885e51d02acd71b12,2022-09-09_02h25.01.117,CGTgamblingSpanTasks,2022.2.1,Win32,59.54153022,,,,,,,,1.6653,,,,,,,,,,,,,,2,n,2.3347,28.9381277,1,2.6653,1,,,,,,28.9381277,0,2.663622024,,,,,,,,,,,,,0,80,80,103,1,0.519453367,1,,,,,,,,,,,,,,,,,,,,,,,,,,,,,,,,,,,,,,,,,,,,,,,,,,,,,,,,,,,,,,,,,,,,,,,,,,,,,,,,
,,5f88877885e51d02acd71b12,2022-09-09_02h25.01.117,CGTgamblingSpanTasks,2022.2.1,Win32,59.54153022,,,,,,,,2.364,,,,,,,,,,,,,,2,v,1.636,4.251676631,0,3.864,1.5,,,,,,3.395192929,0,4.251676631,,,,,,,,,,,,,0,81,81,7,1,0.023467153,0,,,,,,,,,,,,,,,,,,,,,,,,,,,,,,,,,,,,,,,,,,,,,,,,,,,,,,,,,,,,,,,,,,,,,,,,,,,,,,,,
,,5f88877885e51d02acd71b12,2022-09-09_02h25.01.117,CGTgamblingSpanTasks,2022.2.1,Win32,59.54153022,,,,,,,,2.2006,,,,,,,,,,,,,,1,v,1.7994,0,1,3.2006,1,,,,,,28.33977875,0,2.768313633,,,,,,,,,,,,,0,82,82,116,1,0.50406901,1,,,,,,,,,,,,,,,,,,,,,,,,,,,,,,,,,,,,,,,,,,,,,,,,,,,,,,,,,,,,,,,,,,,,,,,,,,,,,,,,
,,5f88877885e51d02acd71b12,2022-09-09_02h25.01.117,CGTgamblingSpanTasks,2022.2.1,Win32,59.54153022,,,,,,,,1.9036,,,,,,,,,,,,,,2,n,2.0964,17.23907308,1,2.9036,1,,,,,,17.23907308,0,2.055848574,,,,,,,,,,,,,0,83,83,66,1,0.450504458,1,,,,,,,,,,,,,,,,,,,,,,,,,,,,,,,,,,,,,,,,,,,,,,,,,,,,,,,,,,,,,,,,,,,,,,,,,,,,,,,,
,,5f88877885e51d02acd71b12,2022-09-09_02h25.01.117,CGTgamblingSpanTasks,2022.2.1,Win32,59.54153022,,,,,,,,2.2863,,,,,,,,,,,,,,2,n,1.7137,0,1,3.2863,1,,,,,,7.066129113,0,0.585581699,,,,,,,,,,,,,0,84,84,19,1,0.545860632,1,,,,,,,,,,,,,,,,,,,,,,,,,,,,,,,,,,,,,,,,,,,,,,,,,,,,,,,,,,,,,,,,,,,,,,,,,,,,,,,,
,,5f88877885e51d02acd71b12,2022-09-09_02h25.01.117,CGTgamblingSpanTasks,2022.2.1,Win32,59.54153022,,,,,,,,2.5366,,,,,,,,,,,,,,2,n,1.4634,17.4320197,1,3.5366,1,,,,,,17.4320197,0,1.448620949,,,,,,,,,,,,,0,85,85,30,1,0.545178213,1,,,,,,,,,,,,,,,,,,,,,,,,,,,,,,,,,,,,,,,,,,,,,,,,,,,,,,,,,,,,,,,,,,,,,,,,,,,,,,,,
,,5f88877885e51d02acd71b12,2022-09-09_02h25.01.117,CGTgamblingSpanTasks,2022.2.1,Win32,59.54153022,,,,,,,,2.123,,,,,,,,,,,,,,1,v,1.877,0,1,3.123,1,,,,,,25.65316415,0,0.079652925,,,,,,,,,,,,,0,86,86,109,1,0.90568168,0,,,,,,,,,,,,,,,,,,,,,,,,,,,,,,,,,,,,,,,,,,,,,,,,,,,,,,,,,,,,,,,,,,,,,,,,,,,,,,,,
,,5f88877885e51d02acd71b12,2022-09-09_02h25.01.117,CGTgamblingSpanTasks,2022.2.1,Win32,59.54153022,,,,,,,,2.2194,,,,,,,,,,,,,,2,n,1.7806,25.54604005,1,3.2194,1,,,,,,25.54604005,0,0.088845411,,,,,,,,,,,,,0,87,87,79,1,0.901957831,0,,,,,,,,,,,,,,,,,,,,,,,,,,,,,,,,,,,,,,,,,,,,,,,,,,,,,,,,,,,,,,,,,,,,,,,,,,,,,,,,
,,5f88877885e51d02acd71b12,2022-09-09_02h25.01.117,CGTgamblingSpanTasks,2022.2.1,Win32,59.54153022,,,,,,,,1.6539,,,,,,,,,,,,,,1,v,2.3461,26.4985979,1,3.1539,1.5,,,,,,26.4985979,0,0.051324376,,,,,,,,,,,,,0,88,88,106,1,0.918747215,0,,,,,,,,,,,,,,,,,,,,,,,,,,,,,,,,,,,,,,,,,,,,,,,,,,,,,,,,,,,,,,,,,,,,,,,,,,,,,,,,
,,5f88877885e51d02acd71b12,2022-09-09_02h25.01.117,CGTgamblingSpanTasks,2022.2.1,Win32,59.54153022,,,,,,,,2.4233,,,,,,,,,,,,,,2,n,1.5767,11.16819157,1,3.4233,1,,,,,,11.16819157,0,0.941456753,,,,,,,,,,,,,0,89,89,45,1,0.54163803,1,,,,,,,,,,,,,,,,,,,,,,,,,,,,,,,,,,,,,,,,,,,,,,,,,,,,,,,,,,,,,,,,,,,,,,,,,,,,,,,,
,,5f88877885e51d02acd71b12,2022-09-09_02h25.01.117,CGTgamblingSpanTasks,2022.2.1,Win32,59.54153022,,,,,,,,1.6751,,,,,,,,,,,,,,1,v,2.3249,28.18900855,1,3.1751,1.5,,,,,,28.18900855,0,0.05384276,,,,,,,,,,,,,0,90,90,55,1,0.919081308,0,,,,,,,,,,,,,,,,,,,,,,,,,,,,,,,,,,,,,,,,,,,,,,,,,,,,,,,,,,,,,,,,,,,,,,,,,,,,,,,,
,,5f88877885e51d02acd71b12,2022-09-09_02h25.01.117,CGTgamblingSpanTasks,2022.2.1,Win32,59.54153022,,,,,,,,1.8549,,,,,,,,,,,,,,2,v,2.1451,3.877530383,0,3.3549,1.5,,,,,,3.471484939,0,3.877530383,,,,,,,,,,,,,0,91,91,40,1,0.02623078,0,,,,,,,,,,,,,,,,,,,,,,,,,,,,,,,,,,,,,,,,,,,,,,,,,,,,,,,,,,,,,,,,,,,,,,,,,,,,,,,,
,,5f88877885e51d02acd71b12,2022-09-09_02h25.01.117,CGTgamblingSpanTasks,2022.2.1,Win32,59.54153022,,,,,,,,2.3812,,,,,,,,,,,,,,1,v,1.6188,23.4214135,1,3.8812,1.5,,,,,,23.4214135,0,2.485985001,,,,,,,,,,,,,0,92,92,81,1,0.482105905,1,,,,,,,,,,,,,,,,,,,,,,,,,,,,,,,,,,,,,,,,,,,,,,,,,,,,,,,,,,,,,,,,,,,,,,,,,,,,,,,,
,,5f88877885e51d02acd71b12,2022-09-09_02h25.01.117,CGTgamblingSpanTasks,2022.2.1,Win32,59.54153022,,,,,,,,2.7593,,,,,,,,,,,,,,1,v,1.2407,27.94544945,1,3.7593,1,,,,,,27.94544945,0,2.32030209,,,,,,,,,,,,,0,93,93,115,1,0.545390564,1,,,,,,,,,,,,,,,,,,,,,,,,,,,,,,,,,,,,,,,,,,,,,,,,,,,,,,,,,,,,,,,,,,,,,,,,,,,,,,,,
,,5f88877885e51d02acd71b12,2022-09-09_02h25.01.117,CGTgamblingSpanTasks,2022.2.1,Win32,59.54153022,,,,,,,,2.622,,,,,,,,,,,,,,1,v,1.378,19.36415485,1,3.622,1,,,,,,19.36415485,0,1.966229494,,,,,,,,,,,,,0,94,94,96,1,0.493893111,1,,,,,,,,,,,,,,,,,,,,,,,,,,,,,,,,,,,,,,,,,,,,,,,,,,,,,,,,,,,,,,,,,,,,,,,,,,,,,,,,
,,5f88877885e51d02acd71b12,2022-09-09_02h25.01.117,CGTgamblingSpanTasks,2022.2.1,Win32,59.54153022,,,,,,,,1.6094,,,,,,,,,,,,,,2,n,2.3906,18.11029021,1,3.1094,1.5,,,,,,18.11029021,0,11.41737518,,,,,,,,,,,,,0,95,95,48,1,0.069445859,0,,,,,,,,,,,,,,,,,,,,,,,,,,,,,,,,,,,,,,,,,,,,,,,,,,,,,,,,,,,,,,,,,,,,,,,,,,,,,,,,
,,5f88877885e51d02acd71b12,2022-09-09_02h25.01.117,CGTgamblingSpanTasks,2022.2.1,Win32,59.54153022,,,,,,,,2.3368,,,,,,,,,,,,,,1,v,1.6632,28.14876717,1,3.8368,1.5,,,,,,28.14876717,0,3.117906378,,,,,,,,,,,,,0,96,96,76,1,0.470636736,1,,,,,,,,,,,,,,,,,,,,,,,,,,,,,,,,,,,,,,,,,,,,,,,,,,,,,,,,,,,,,,,,,,,,,,,,,,,,,,,,
,,5f88877885e51d02acd71b12,2022-09-09_02h25.01.117,CGTgamblingSpanTasks,2022.2.1,Win32,59.54153022,,,,,,,,2.5195,,,,,,,,,,,,,,1,v,1.4805,22.62475578,1,3.5195,1,,,,,,22.62475578,0,2.397643354,,,,,,,,,,,,,0,97,97,93,1,0.482527609,1,,,,,,,,,,,,,,,,,,,,,,,,,,,,,,,,,,,,,,,,,,,,,,,,,,,,,,,,,,,,,,,,,,,,,,,,,,,,,,,,
,,5f88877885e51d02acd71b12,2022-09-09_02h25.01.117,CGTgamblingSpanTasks,2022.2.1,Win32,59.54153022,,,,,,,,2.7204,,,,,,,,,,,,,,1,v,1.2796,0,1,3.7204,1,,,,,,14.3363647,0,1.396635362,,,,,,,,,,,,,0,98,98,78,1,0.504775474,1,,,,,,,,,,,,,,,,,,,,,,,,,,,,,,,,,,,,,,,,,,,,,,,,,,,,,,,,,,,,,,,,,,,,,,,,,,,,,,,,
,,5f88877885e51d02acd71b12,2022-09-09_02h25.01.117,CGTgamblingSpanTasks,2022.2.1,Win32,59.54153022,,,,,,,,2.4883,,,,,,,,,,,,,,2,n,1.5117,13.4287264,1,3.9883,1.5,,,,,,13.4287264,0,1.317368801,,,,,,,,,,,,,0,99,99,100,1,0.502953125,1,,,,,,,,,,,,,,,,,,,,,,,,,,,,,,,,,,,,,,,,,,,,,,,,,,,,,,,,,,,,,,,,,,,,,,,,,,,,,,,,
,,5f88877885e51d02acd71b12,2022-09-09_02h25.01.117,CGTgamblingSpanTasks,2022.2.1,Win32,59.54153022,,,,,,,,2.1782,,,,,,,,,,,,,,2,n,1.8218,0,1,3.6782,1.5,,,,,,27.88092897,0,2.771762788,,,,,,,,,,,,,0,100,100,117,1,0.499466648,1,,,,,,,,,,,,,,,,,,,,,,,,,,,,,,,,,,,,,,,,,,,,,,,,,,,,,,,,,,,,,,,,,,,,,,,,,,,,,,,,
,,5f88877885e51d02acd71b12,2022-09-09_02h25.01.117,CGTgamblingSpanTasks,2022.2.1,Win32,59.54153022,,,,,,,,2.404,,,,,,,,,,,,,,2,n,1.596,10.43004651,1,3.904,1.5,,,,,,10.43004651,0,11.6744431,,,,,,,,,,,,,0,101,101,15,1,0.026176489,0,,,,,,,,,,,,,,,,,,,,,,,,,,,,,,,,,,,,,,,,,,,,,,,,,,,,,,,,,,,,,,,,,,,,,,,,,,,,,,,,
,,5f88877885e51d02acd71b12,2022-09-09_02h25.01.117,CGTgamblingSpanTasks,2022.2.1,Win32,59.54153022,,,,,,,,1.9136,,,,,,,,,,,,,,1,v,2.0864,8.217594828,1,3.4136,1.5,,,,,,8.217594828,0,0.951019374,,,,,,,,,,,,,0,102,102,87,1,0.458722936,1,,,,,,,,,,,,,,,,,,,,,,,,,,,,,,,,,,,,,,,,,,,,,,,,,,,,,,,,,,,,,,,,,,,,,,,,,,,,,,,,
,,5f88877885e51d02acd71b12,2022-09-09_02h25.01.117,CGTgamblingSpanTasks,2022.2.1,Win32,59.54153022,,,,,,,,2.4024,,,,,,,,,,,,,,1,v,1.5976,0,1,3.4024,1,,,,,,8.363821911,0,6.781500919,,,,,,,,,,,,,0,103,103,61,1,0.044227959,0,,,,,,,,,,,,,,,,,,,,,,,,,,,,,,,,,,,,,,,,,,,,,,,,,,,,,,,,,,,,,,,,,,,,,,,,,,,,,,,,
,,5f88877885e51d02acd71b12,2022-09-09_02h25.01.117,CGTgamblingSpanTasks,2022.2.1,Win32,59.54153022,,,,,,,,1.9704,,,,,,,,,,,,,,1,v,2.0296,28.9323758,1,3.4704,1.5,,,,,,28.9323758,0,2.893007023,,,,,,,,,,,,,0,104,104,11,1,0.497943321,1,,,,,,,,,,,,,,,,,,,,,,,,,,,,,,,,,,,,,,,,,,,,,,,,,,,,,,,,,,,,,,,,,,,,,,,,,,,,,,,,
,,5f88877885e51d02acd71b12,2022-09-09_02h25.01.117,CGTgamblingSpanTasks,2022.2.1,Win32,59.54153022,,,,,,,,2.1773,,,,,,,,,,,,,,1,v,1.8227,21.48443242,1,3.6773,1.5,,,,,,21.48443242,0,2.229247341,,,,,,,,,,,,,0,105,105,63,1,0.488155912,1,,,,,,,,,,,,,,,,,,,,,,,,,,,,,,,,,,,,,,,,,,,,,,,,,,,,,,,,,,,,,,,,,,,,,,,,,,,,,,,,
,,5f88877885e51d02acd71b12,2022-09-09_02h25.01.117,CGTgamblingSpanTasks,2022.2.1,Win32,59.54153022,,,,,,,,1.9424,,,,,,,,,,,,,,2,n,2.0576,22.72923833,1,3.4424,1.5,,,,,,22.72923833,0,0.067170781,,,,,,,,,,,,,0,106,106,86,1,0.907226703,0,,,,,,,,,,,,,,,,,,,,,,,,,,,,,,,,,,,,,,,,,,,,,,,,,,,,,,,,,,,,,,,,,,,,,,,,,,,,,,,,
,,5f88877885e51d02acd71b12,2022-09-09_02h25.01.117,CGTgamblingSpanTasks,2022.2.1,Win32,59.54153022,,,,,,,,1.9872,,,,,,,,,,,,,,2,n,2.0128,27.38828234,1,2.9872,1,,,,,,27.38828234,0,0.0639233,,,,,,,,,,,,,0,107,107,43,1,0.914010176,0,,,,,,,,,,,,,,,,,,,,,,,,,,,,,,,,,,,,,,,,,,,,,,,,,,,,,,,,,,,,,,,,,,,,,,,,,,,,,,,,
,,5f88877885e51d02acd71b12,2022-09-09_02h25.01.117,CGTgamblingSpanTasks,2022.2.1,Win32,59.54153022,,,,,,,,1.3718,,,,,,,,,,,,,,2,n,2.6282,21.2188881,1,2.3718,1,,,,,,21.2188881,0,2.067660742,,,,,,,,,,,,,0,108,108,107,1,0.50470775,1,,,,,,,,,,,,,,,,,,,,,,,,,,,,,,,,,,,,,,,,,,,,,,,,,,,,,,,,,,,,,,,,,,,,,,,,,,,,,,,,
,,5f88877885e51d02acd71b12,2022-09-09_02h25.01.117,CGTgamblingSpanTasks,2022.2.1,Win32,59.54153022,,,,,,,,1.7224,,,,,,,,,,,,,,1,v,2.2776,0,1,2.7224,1,,,,,,18.20422443,0,1.635040165,,,,,,,,,,,,,0,109,109,82,1,0.525708991,1,,,,,,,,,,,,,,,,,,,,,,,,,,,,,,,,,,,,,,,,,,,,,,,,,,,,,,,,,,,,,,,,,,,,,,,,,,,,,,,,
,,5f88877885e51d02acd71b12,2022-09-09_02h25.01.117,CGTgamblingSpanTasks,2022.2.1,Win32,59.54153022,,,,,,,,2.5836,,,,,,,,,,,,,,1,v,1.4164,0,1,4.0836,1.5,,,,,,27.39221343,0,2.743407746,,,,,,,,,,,,,0,110,110,47,1,0.49752044,1,,,,,,,,,,,,,,,,,,,,,,,,,,,,,,,,,,,,,,,,,,,,,,,,,,,,,,,,,,,,,,,,,,,,,,,,,,,,,,,,
,,5f88877885e51d02acd71b12,2022-09-09_02h25.01.117,CGTgamblingSpanTasks,2022.2.1,Win32,59.54153022,,,,,,,,2.3516,,,,,,,,,,,,,,1,v,1.6484,0,1,3.3516,1,,,,,,26.11188619,0,0.081942421,,,,,,,,,,,,,0,111,111,105,1,0.905343856,0,,,,,,,,,,,,,,,,,,,,,,,,,,,,,,,,,,,,,,,,,,,,,,,,,,,,,,,,,,,,,,,,,,,,,,,,,,,,,,,,
,,5f88877885e51d02acd71b12,2022-09-09_02h25.01.117,CGTgamblingSpanTasks,2022.2.1,Win32,59.54153022,,,,,,,,2.2399,,,,,,,,,,,,,,2,n,1.7601,0,1,3.7399,1.5,,,,,,9.012590634,0,1.002188111,,,,,,,,,,,,,0,112,112,12,1,0.46958041,1,,,,,,,,,,,,,,,,,,,,,,,,,,,,,,,,,,,,,,,,,,,,,,,,,,,,,,,,,,,,,,,,,,,,,,,,,,,,,,,,
,,5f88877885e51d02acd71b12,2022-09-09_02h25.01.117,CGTgamblingSpanTasks,2022.2.1,Win32,59.54153022,,,,,,,,2.4196,,,,,,,,,,,,,,2,n,1.5804,0,1,3.4196,1,,,,,,26.16821818,0,0.093528069,,,,,,,,,,,,,0,113,113,42,1,0.901022427,0,,,,,,,,,,,,,,,,,,,,,,,,,,,,,,,,,,,,,,,,,,,,,,,,,,,,,,,,,,,,,,,,,,,,,,,,,,,,,,,,
,,5f88877885e51d02acd71b12,2022-09-09_02h25.01.117,CGTgamblingSpanTasks,2022.2.1,Win32,59.54153022,,,,,,,,2.032,,,,,,,,,,,,,,2,v,1.968,11.42134125,0,3.032,1,,,,,,12.9904115,0,11.42134125,,,,,,,,,,,,,0,114,114,118,1,0.037876033,0,,,,,,,,,,,,,,,,,,,,,,,,,,,,,,,,,,,,,,,,,,,,,,,,,,,,,,,,,,,,,,,,,,,,,,,,,,,,,,,,
,,5f88877885e51d02acd71b12,2022-09-09_02h25.01.117,CGTgamblingSpanTasks,2022.2.1,Win32,59.54153022,,,,,,,,2.111,,,,,,,,,,,,,,2,n,1.889,0,1,3.611,1.5,,,,,,27.7711693,0,2.320849632,,,,,,,,,,,,,0,115,115,94,1,0.543786368,1,,,,,,,,,,,,,,,,,,,,,,,,,,,,,,,,,,,,,,,,,,,,,,,,,,,,,,,,,,,,,,,,,,,,,,,,,,,,,,,,
,,5f88877885e51d02acd71b12,2022-09-09_02h25.01.117,CGTgamblingSpanTasks,2022.2.1,Win32,59.54153022,,,,,,,,2.4371,,,,,,,,,,,,,,2,n,1.5629,21.16780451,1,3.4371,1,,,,,,21.16780451,0,2.469465385,,,,,,,,,,,,,0,116,116,32,1,0.456531699,1,,,,,,,,,,,,,,,,,,,,,,,,,,,,,,,,,,,,,,,,,,,,,,,,,,,,,,,,,,,,,,,,,,,,,,,,,,,,,,,,
,,5f88877885e51d02acd71b12,2022-09-09_02h25.01.117,CGTgamblingSpanTasks,2022.2.1,Win32,59.54153022,,,,,,,,2.2787,,,,,,,,,,,,,,1,v,1.7213,24.8002852,1,3.7787,1.5,,,,,,24.8002852,0,0.071848086,,,,,,,,,,,,,0,117,117,16,1,0.90783559,0,,,,,,,,,,,,,,,,,,,,,,,,,,,,,,,,,,,,,,,,,,,,,,,,,,,,,,,,,,,,,,,,,,,,,,,,,,,,,,,,
,,5f88877885e51d02acd71b12,2022-09-09_02h25.01.117,CGTgamblingSpanTasks,2022.2.1,Win32,59.54153022,,,,,,,,2.4371,,,,,,,,,,,,,,1,v,1.5629,0,1,3.4371,1,,,,,,15.87668502,0,8.42547829,,,,,,,,,,,,,0,118,118,56,1,0.092099462,0,,,,,,,,,,,,,,,,,,,,,,,,,,,,,,,,,,,,,,,,,,,,,,,,,,,,,,,,,,,,,,,,,,,,,,,,,,,,,,,,
,,5f88877885e51d02acd71b12,2022-09-09_02h25.01.117,CGTgamblingSpanTasks,2022.2.1,Win32,59.54153022,,,,,,,,2.3109,,,,,,,,,,,,,,2,n,1.6891,29.30724159,1,3.3109,1,,,,,,29.30724159,0,3.247012935,,,,,,,,,,,,,0,119,119,71,1,0.470571125,1,,,,,,,,,,,,,,,,,,,,,,,,,,,,,,,,,,,,,,,,,,,,,,,,,,,,,,,,,,,,,,,,,,,,,,,,,,,,,,,,
,,5f88877885e51d02acd71b12,2022-09-09_02h25.01.117,CGTgamblingSpanTasks,2022.2.1,Win32,59.54153022,,,,,,,,,,,,,,,,,,,,,,,,,,,,,,,,,,,,,,,,,,,,,,,,,,,,,,,,return,111.2613,,,,,,,,,,,,,,,,,,,,,,,,,,,,,,,,,,,,,,,,,,,,,,,,,,,,,,,,,,,,,,,,,,,,,,,,,,,,,,
,,5f88877885e51d02acd71b12,2022-09-09_02h25.01.117,CGTgamblingSpanTasks,2022.2.1,Win32,59.54153022,,,,,,,,,,,,,,,,,,,,,,,,,,,,,,,,,,,,,,,,,,,,,,,,,,,,,,,,,,return,297.3631,,,,,,,,,,,,,,,,,,,,,,,,,,,,,,,,,,,,,,,,,,,,,,,,,,,,,,,,,,,,,,,,,,,,,,,,,,,,
,,5f88877885e51d02acd71b12,2022-09-09_02h25.01.117,CGTgamblingSpanTasks,2022.2.1,Win32,59.54153022,,,,,,,,,,,,,,,,,,,,,,,,,,,,,,,,,,,,,,,,,,,,,,,,,,,,,,,,,,,,return,17.0335,,,,,,,,,,,,,,,,,,,,,,,,,,,,,,,,,,,,,,,,,,,,,,,,,,,,,,,,,,,,,,,,,,,,,,,,,,
,,5f88877885e51d02acd71b12,2022-09-09_02h25.01.117,CGTgamblingSpanTasks,2022.2.1,Win32,59.54153022,,,,,,,,,,,,,,,,,,,,,,,,,,,,,,,,,,,,,,,,,,,,,,,,,,,,,,,,,,,,,,342,1,0.045572917,-0.416666667,1,0,0,cont_buttonPractice,0,0,0,0,1,3,342,24,2,42,,,,,,,,,,,,,,,,,,,,,,,,,,,,,,,,,,,,,,,,,,,,,,,,,,,,,,,,
,,5f88877885e51d02acd71b12,2022-09-09_02h25.01.117,CGTgamblingSpanTasks,2022.2.1,Win32,59.54153022,,,,,,,,,,,,,,,,,,,,,,,,,,,,,,,,,,,,,,,,,,,,,,,,,,,,,,,,,,,,,,937,1,0.045572917,-0.416666667,1,0,0,cont_buttonPractice,0,1,1,1,1,3,937,73,2,37,,,,,,,,,,,,,,,,,,,,,,,,,,,,,,,,,,,,,,,,,,,,,,,,,,,,,,,,
,,5f88877885e51d02acd71b12,2022-09-09_02h25.01.117,CGTgamblingSpanTasks,2022.2.1,Win32,59.54153022,,,,,,,,,,,,,,,,,,,,,,,,,,,,,,,,,,,,,,,,,,,,,,,,,,,,,,,,,,,,,,,,,,,,,,,,,,,,,,,,return,6.9564,,,,,,,,,,,,,,,,,,,,,,,,,,,,,,,,,,,,,,,,,,,,,,,,,,,,,,
,,5f88877885e51d02acd71b12,2022-09-09_02h25.01.117,CGTgamblingSpanTasks,2022.2.1,Win32,59.54153022,,,,,,,,,,,,,,,,,,,,,,,,,,,,,,,,,,,,,,,,,,,,,,,,,,,,,,,,,,,,,,,,,,,,,,,,,,,,,,,,,,"[6,7,9]",0,0,0,0,1,,,,,,,,,,,,,,,,,,,,,,,,,,,,,,,,,,,,,,,,,,,,,,,,
,,5f88877885e51d02acd71b12,2022-09-09_02h25.01.117,CGTgamblingSpanTasks,2022.2.1,Win32,59.54153022,,,,,,,,,,,,,,,,,,,,,,,,,,,,,,,,,,,,,,,,,,,,,,,,,,,,,,,,,,,,,,,,,,,,,,,,,,,,,,,,,,"[6,7,9]",1,0,1,0,1,,,,,,,,,,,,,,,,,,,,,,,,,,,,,,,,,,,,,,,,,,,,,,,,
,,5f88877885e51d02acd71b12,2022-09-09_02h25.01.117,CGTgamblingSpanTasks,2022.2.1,Win32,59.54153022,,,,,,,,,,,,,,,,,,,,,,,,,,,,,,,,,,,,,,,,,,,,,,,,,,,,,,,,,,,,,,,,,,,,,,,,,,,,,,,,,,"[6,7,9]",2,0,2,0,1,,,,,,,,,,,,,,,,,,,,,,,,,,,,,,,,,,,,,,,,,,,,,,,,
,,5f88877885e51d02acd71b12,2022-09-09_02h25.01.117,CGTgamblingSpanTasks,2022.2.1,Win32,59.54153022,,,,,,,,,,,,,,,,,,,,,,,,,,,,,,,,,,,,,,,,,,,,,,,,,,,,,,,,,,,,,,,1,,,,,,,,,,,,,,,,,,,,,,,,,679,0.045572917,-0.416666667,1,0,0,cont_button,0,0,0,0,1,1,,,,,,,,,,,,,,,,,,,,,,,,,,,,,,,,,,,
,,5f88877885e51d02acd71b12,2022-09-09_02h25.01.117,CGTgamblingSpanTasks,2022.2.1,Win32,59.54153022,,,,,,,,,,,,,,,,,,,,,,,,,,,,,,,,,,,,,,,,,,,,,,,,,,,,,,,,,,,,,,,,,,,,,,,,,,,,,,,,,,"[8,9,5,1]",0,0,0,0,1,,,,,,,,,,,,,,,,,,,,,,,,,,,,,,,,,,,,,,,,,,,,,,,,
,,5f88877885e51d02acd71b12,2022-09-09_02h25.01.117,CGTgamblingSpanTasks,2022.2.1,Win32,59.54153022,,,,,,,,,,,,,,,,,,,,,,,,,,,,,,,,,,,,,,,,,,,,,,,,,,,,,,,,,,,,,,,,,,,,,,,,,,,,,,,,,,"[8,9,5,1]",1,0,1,0,1,,,,,,,,,,,,,,,,,,,,,,,,,,,,,,,,,,,,,,,,,,,,,,,,
,,5f88877885e51d02acd71b12,2022-09-09_02h25.01.117,CGTgamblingSpanTasks,2022.2.1,Win32,59.54153022,,,,,,,,,,,,,,,,,,,,,,,,,,,,,,,,,,,,,,,,,,,,,,,,,,,,,,,,,,,,,,,,,,,,,,,,,,,,,,,,,,"[8,9,5,1]",2,0,2,0,1,,,,,,,,,,,,,,,,,,,,,,,,,,,,,,,,,,,,,,,,,,,,,,,,
,,5f88877885e51d02acd71b12,2022-09-09_02h25.01.117,CGTgamblingSpanTasks,2022.2.1,Win32,59.54153022,,,,,,,,,,,,,,,,,,,,,,,,,,,,,,,,,,,,,,,,,,,,,,,,,,,,,,,,,,,,,,,,,,,,,,,,,,,,,,,,,,"[8,9,5,1]",3,0,3,0,1,,,,,,,,,,,,,,,,,,,,,,,,,,,,,,,,,,,,,,,,,,,,,,,,
,,5f88877885e51d02acd71b12,2022-09-09_02h25.01.117,CGTgamblingSpanTasks,2022.2.1,Win32,59.54153022,,,,,,,,,,,,,,,,,,,,,,,,,,,,,,,,,,,,,,,,,,,,,,,,,,,,,,,,,,,,,,,1,,,,,,,,,,,,,,,,,,,,,,,,,8951,0.045572917,-0.416666667,1,0,0,cont_button,0,1,1,1,1,2,,,,,,,,,,,,,,,,,,,,,,,,,,,,,,,,,,,
,,5f88877885e51d02acd71b12,2022-09-09_02h25.01.117,CGTgamblingSpanTasks,2022.2.1,Win32,59.54153022,,,,,,,,,,,,,,,,,,,,,,,,,,,,,,,,,,,,,,,,,,,,,,,,,,,,,,,,,,,,,,,,,,,,,,,,,,,,,,,,,,"[8,3,9,4,7]",0,0,0,0,1,,,,,,,,,,,,,,,,,,,,,,,,,,,,,,,,,,,,,,,,,,,,,,,,
,,5f88877885e51d02acd71b12,2022-09-09_02h25.01.117,CGTgamblingSpanTasks,2022.2.1,Win32,59.54153022,,,,,,,,,,,,,,,,,,,,,,,,,,,,,,,,,,,,,,,,,,,,,,,,,,,,,,,,,,,,,,,,,,,,,,,,,,,,,,,,,,"[8,3,9,4,7]",1,0,1,0,1,,,,,,,,,,,,,,,,,,,,,,,,,,,,,,,,,,,,,,,,,,,,,,,,
,,5f88877885e51d02acd71b12,2022-09-09_02h25.01.117,CGTgamblingSpanTasks,2022.2.1,Win32,59.54153022,,,,,,,,,,,,,,,,,,,,,,,,,,,,,,,,,,,,,,,,,,,,,,,,,,,,,,,,,,,,,,,,,,,,,,,,,,,,,,,,,,"[8,3,9,4,7]",2,0,2,0,1,,,,,,,,,,,,,,,,,,,,,,,,,,,,,,,,,,,,,,,,,,,,,,,,
,,5f88877885e51d02acd71b12,2022-09-09_02h25.01.117,CGTgamblingSpanTasks,2022.2.1,Win32,59.54153022,,,,,,,,,,,,,,,,,,,,,,,,,,,,,,,,,,,,,,,,,,,,,,,,,,,,,,,,,,,,,,,,,,,,,,,,,,,,,,,,,,"[8,3,9,4,7]",3,0,3,0,1,,,,,,,,,,,,,,,,,,,,,,,,,,,,,,,,,,,,,,,,,,,,,,,,
,,5f88877885e51d02acd71b12,2022-09-09_02h25.01.117,CGTgamblingSpanTasks,2022.2.1,Win32,59.54153022,,,,,,,,,,,,,,,,,,,,,,,,,,,,,,,,,,,,,,,,,,,,,,,,,,,,,,,,,,,,,,,,,,,,,,,,,,,,,,,,,,"[8,3,9,4,7]",4,0,4,0,1,,,,,,,,,,,,,,,,,,,,,,,,,,,,,,,,,,,,,,,,,,,,,,,,
,,5f88877885e51d02acd71b12,2022-09-09_02h25.01.117,CGTgamblingSpanTasks,2022.2.1,Win32,59.54153022,,,,,,,,,,,,,,,,,,,,,,,,,,,,,,,,,,,,,,,,,,,,,,,,,,,,,,,,,,,,,,,1,,,,,,,,,,,,,,,,,,,,,,,,,83947,0.045572917,-0.416666667,1,0,0,cont_button,0,2,2,2,1,3,,,,,,,,,,,,,,,,,,,,,,,,,,,,,,,,,,,
,,5f88877885e51d02acd71b12,2022-09-09_02h25.01.117,CGTgamblingSpanTasks,2022.2.1,Win32,59.54153022,,,,,,,,,,,,,,,,,,,,,,,,,,,,,,,,,,,,,,,,,,,,,,,,,,,,,,,,,,,,,,,,,,,,,,,,,,,,,,,,,,"[8,2,7,4,3,1]",0,0,0,0,1,,,,,,,,,,,,,,,,,,,,,,,,,,,,,,,,,,,,,,,,,,,,,,,,
,,5f88877885e51d02acd71b12,2022-09-09_02h25.01.117,CGTgamblingSpanTasks,2022.2.1,Win32,59.54153022,,,,,,,,,,,,,,,,,,,,,,,,,,,,,,,,,,,,,,,,,,,,,,,,,,,,,,,,,,,,,,,,,,,,,,,,,,,,,,,,,,"[8,2,7,4,3,1]",1,0,1,0,1,,,,,,,,,,,,,,,,,,,,,,,,,,,,,,,,,,,,,,,,,,,,,,,,
,,5f88877885e51d02acd71b12,2022-09-09_02h25.01.117,CGTgamblingSpanTasks,2022.2.1,Win32,59.54153022,,,,,,,,,,,,,,,,,,,,,,,,,,,,,,,,,,,,,,,,,,,,,,,,,,,,,,,,,,,,,,,,,,,,,,,,,,,,,,,,,,"[8,2,7,4,3,1]",2,0,2,0,1,,,,,,,,,,,,,,,,,,,,,,,,,,,,,,,,,,,,,,,,,,,,,,,,
,,5f88877885e51d02acd71b12,2022-09-09_02h25.01.117,CGTgamblingSpanTasks,2022.2.1,Win32,59.54153022,,,,,,,,,,,,,,,,,,,,,,,,,,,,,,,,,,,,,,,,,,,,,,,,,,,,,,,,,,,,,,,,,,,,,,,,,,,,,,,,,,"[8,2,7,4,3,1]",3,0,3,0,1,,,,,,,,,,,,,,,,,,,,,,,,,,,,,,,,,,,,,,,,,,,,,,,,
,,5f88877885e51d02acd71b12,2022-09-09_02h25.01.117,CGTgamblingSpanTasks,2022.2.1,Win32,59.54153022,,,,,,,,,,,,,,,,,,,,,,,,,,,,,,,,,,,,,,,,,,,,,,,,,,,,,,,,,,,,,,,,,,,,,,,,,,,,,,,,,,"[8,2,7,4,3,1]",4,0,4,0,1,,,,,,,,,,,,,,,,,,,,,,,,,,,,,,,,,,,,,,,,,,,,,,,,
,,5f88877885e51d02acd71b12,2022-09-09_02h25.01.117,CGTgamblingSpanTasks,2022.2.1,Win32,59.54153022,,,,,,,,,,,,,,,,,,,,,,,,,,,,,,,,,,,,,,,,,,,,,,,,,,,,,,,,,,,,,,,,,,,,,,,,,,,,,,,,,,"[8,2,7,4,3,1]",5,0,5,0,1,,,,,,,,,,,,,,,,,,,,,,,,,,,,,,,,,,,,,,,,,,,,,,,,
,,5f88877885e51d02acd71b12,2022-09-09_02h25.01.117,CGTgamblingSpanTasks,2022.2.1,Win32,59.54153022,,,,,,,,,,,,,,,,,,,,,,,,,,,,,,,,,,,,,,,,,,,,,,,,,,,,,,,,,,,,,,,1,,,,,,,,,,,,,,,,,,,,,,,,,827431,0.045572917,-0.416666667,1,0,0,cont_button,0,3,3,3,1,4,,,,,,,,,,,,,,,,,,,,,,,,,,,,,,,,,,,
,,5f88877885e51d02acd71b12,2022-09-09_02h25.01.117,CGTgamblingSpanTasks,2022.2.1,Win32,59.54153022,,,,,,,,,,,,,,,,,,,,,,,,,,,,,,,,,,,,,,,,,,,,,,,,,,,,,,,,,,,,,,,,,,,,,,,,,,,,,,,,,,"[8,5,9,3,1,4,7]",0,0,0,0,1,,,,,,,,,,,,,,,,,,,,,,,,,,,,,,,,,,,,,,,,,,,,,,,,
,,5f88877885e51d02acd71b12,2022-09-09_02h25.01.117,CGTgamblingSpanTasks,2022.2.1,Win32,59.54153022,,,,,,,,,,,,,,,,,,,,,,,,,,,,,,,,,,,,,,,,,,,,,,,,,,,,,,,,,,,,,,,,,,,,,,,,,,,,,,,,,,"[8,5,9,3,1,4,7]",1,0,1,0,1,,,,,,,,,,,,,,,,,,,,,,,,,,,,,,,,,,,,,,,,,,,,,,,,
,,5f88877885e51d02acd71b12,2022-09-09_02h25.01.117,CGTgamblingSpanTasks,2022.2.1,Win32,59.54153022,,,,,,,,,,,,,,,,,,,,,,,,,,,,,,,,,,,,,,,,,,,,,,,,,,,,,,,,,,,,,,,,,,,,,,,,,,,,,,,,,,"[8,5,9,3,1,4,7]",2,0,2,0,1,,,,,,,,,,,,,,,,,,,,,,,,,,,,,,,,,,,,,,,,,,,,,,,,
,,5f88877885e51d02acd71b12,2022-09-09_02h25.01.117,CGTgamblingSpanTasks,2022.2.1,Win32,59.54153022,,,,,,,,,,,,,,,,,,,,,,,,,,,,,,,,,,,,,,,,,,,,,,,,,,,,,,,,,,,,,,,,,,,,,,,,,,,,,,,,,,"[8,5,9,3,1,4,7]",3,0,3,0,1,,,,,,,,,,,,,,,,,,,,,,,,,,,,,,,,,,,,,,,,,,,,,,,,
,,5f88877885e51d02acd71b12,2022-09-09_02h25.01.117,CGTgamblingSpanTasks,2022.2.1,Win32,59.54153022,,,,,,,,,,,,,,,,,,,,,,,,,,,,,,,,,,,,,,,,,,,,,,,,,,,,,,,,,,,,,,,,,,,,,,,,,,,,,,,,,,"[8,5,9,3,1,4,7]",4,0,4,0,1,,,,,,,,,,,,,,,,,,,,,,,,,,,,,,,,,,,,,,,,,,,,,,,,
,,5f88877885e51d02acd71b12,2022-09-09_02h25.01.117,CGTgamblingSpanTasks,2022.2.1,Win32,59.54153022,,,,,,,,,,,,,,,,,,,,,,,,,,,,,,,,,,,,,,,,,,,,,,,,,,,,,,,,,,,,,,,,,,,,,,,,,,,,,,,,,,"[8,5,9,3,1,4,7]",5,0,5,0,1,,,,,,,,,,,,,,,,,,,,,,,,,,,,,,,,,,,,,,,,,,,,,,,,
,,5f88877885e51d02acd71b12,2022-09-09_02h25.01.117,CGTgamblingSpanTasks,2022.2.1,Win32,59.54153022,,,,,,,,,,,,,,,,,,,,,,,,,,,,,,,,,,,,,,,,,,,,,,,,,,,,,,,,,,,,,,,,,,,,,,,,,,,,,,,,,,"[8,5,9,3,1,4,7]",6,0,6,0,1,,,,,,,,,,,,,,,,,,,,,,,,,,,,,,,,,,,,,,,,,,,,,,,,
,,5f88877885e51d02acd71b12,2022-09-09_02h25.01.117,CGTgamblingSpanTasks,2022.2.1,Win32,59.54153022,,,,,,,,,,,,,,,,,,,,,,,,,,,,,,,,,,,,,,,,,,,,,,,,,,,,,,,,,,,,,,,1,,,,,,,,,,,,,,,,,,,,,,,,,8593147,0.045572917,-0.416666667,1,0,0,cont_button,0,4,4,4,1,5,,,,,,,,,,,,,,,,,,,,,,,,,,,,,,,,,,,
,,5f88877885e51d02acd71b12,2022-09-09_02h25.01.117,CGTgamblingSpanTasks,2022.2.1,Win32,59.54153022,,,,,,,,,,,,,,,,,,,,,,,,,,,,,,,,,,,,,,,,,,,,,,,,,,,,,,,,,,,,,,,,,,,,,,,,,,,,,,,,,,"[4,8,9,1,6,7,2,3]",0,0,0,0,1,,,,,,,,,,,,,,,,,,,,,,,,,,,,,,,,,,,,,,,,,,,,,,,,
,,5f88877885e51d02acd71b12,2022-09-09_02h25.01.117,CGTgamblingSpanTasks,2022.2.1,Win32,59.54153022,,,,,,,,,,,,,,,,,,,,,,,,,,,,,,,,,,,,,,,,,,,,,,,,,,,,,,,,,,,,,,,,,,,,,,,,,,,,,,,,,,"[4,8,9,1,6,7,2,3]",1,0,1,0,1,,,,,,,,,,,,,,,,,,,,,,,,,,,,,,,,,,,,,,,,,,,,,,,,
,,5f88877885e51d02acd71b12,2022-09-09_02h25.01.117,CGTgamblingSpanTasks,2022.2.1,Win32,59.54153022,,,,,,,,,,,,,,,,,,,,,,,,,,,,,,,,,,,,,,,,,,,,,,,,,,,,,,,,,,,,,,,,,,,,,,,,,,,,,,,,,,"[4,8,9,1,6,7,2,3]",2,0,2,0,1,,,,,,,,,,,,,,,,,,,,,,,,,,,,,,,,,,,,,,,,,,,,,,,,
,,5f88877885e51d02acd71b12,2022-09-09_02h25.01.117,CGTgamblingSpanTasks,2022.2.1,Win32,59.54153022,,,,,,,,,,,,,,,,,,,,,,,,,,,,,,,,,,,,,,,,,,,,,,,,,,,,,,,,,,,,,,,,,,,,,,,,,,,,,,,,,,"[4,8,9,1,6,7,2,3]",3,0,3,0,1,,,,,,,,,,,,,,,,,,,,,,,,,,,,,,,,,,,,,,,,,,,,,,,,
,,5f88877885e51d02acd71b12,2022-09-09_02h25.01.117,CGTgamblingSpanTasks,2022.2.1,Win32,59.54153022,,,,,,,,,,,,,,,,,,,,,,,,,,,,,,,,,,,,,,,,,,,,,,,,,,,,,,,,,,,,,,,,,,,,,,,,,,,,,,,,,,"[4,8,9,1,6,7,2,3]",4,0,4,0,1,,,,,,,,,,,,,,,,,,,,,,,,,,,,,,,,,,,,,,,,,,,,,,,,
,,5f88877885e51d02acd71b12,2022-09-09_02h25.01.117,CGTgamblingSpanTasks,2022.2.1,Win32,59.54153022,,,,,,,,,,,,,,,,,,,,,,,,,,,,,,,,,,,,,,,,,,,,,,,,,,,,,,,,,,,,,,,,,,,,,,,,,,,,,,,,,,"[4,8,9,1,6,7,2,3]",5,0,5,0,1,,,,,,,,,,,,,,,,,,,,,,,,,,,,,,,,,,,,,,,,,,,,,,,,
,,5f88877885e51d02acd71b12,2022-09-09_02h25.01.117,CGTgamblingSpanTasks,2022.2.1,Win32,59.54153022,,,,,,,,,,,,,,,,,,,,,,,,,,,,,,,,,,,,,,,,,,,,,,,,,,,,,,,,,,,,,,,,,,,,,,,,,,,,,,,,,,"[4,8,9,1,6,7,2,3]",6,0,6,0,1,,,,,,,,,,,,,,,,,,,,,,,,,,,,,,,,,,,,,,,,,,,,,,,,
,,5f88877885e51d02acd71b12,2022-09-09_02h25.01.117,CGTgamblingSpanTasks,2022.2.1,Win32,59.54153022,,,,,,,,,,,,,,,,,,,,,,,,,,,,,,,,,,,,,,,,,,,,,,,,,,,,,,,,,,,,,,,,,,,,,,,,,,,,,,,,,,"[4,8,9,1,6,7,2,3]",7,0,7,0,1,,,,,,,,,,,,,,,,,,,,,,,,,,,,,,,,,,,,,,,,,,,,,,,,
,,5f88877885e51d02acd71b12,2022-09-09_02h25.01.117,CGTgamblingSpanTasks,2022.2.1,Win32,59.54153022,,,,,,,,,,,,,,,,,,,,,,,,,,,,,,,,,,,,,,,,,,,,,,,,,,,,,,,,,,,,,,,0,,,,,,,,,,,,,,,,,,,,,,,,,4891673,0.045572917,-0.416666667,1,0,0,cont_button,0,5,5,5,1,6,,,,,,,,,,,,,,,,,,,,,,,,,,,,,,,,,,,
,,5f88877885e51d02acd71b12,2022-09-09_02h25.01.117,CGTgamblingSpanTasks,2022.2.1,Win32,59.54153022,,,,,,,,,,,,,,,,,,,,,,,,,,,,,,,,,,,,,,,,,,,,,,,,,,,,,,,,,,,,,,,,,,,,,,,,,,,,,,,,,,"[2,1,9,7,3,5,6,4]",0,0,0,0,1,,,,,,,,,,,,,,,,,,,,,,,,,,,,,,,,,,,,,,,,,,,,,,,,
,,5f88877885e51d02acd71b12,2022-09-09_02h25.01.117,CGTgamblingSpanTasks,2022.2.1,Win32,59.54153022,,,,,,,,,,,,,,,,,,,,,,,,,,,,,,,,,,,,,,,,,,,,,,,,,,,,,,,,,,,,,,,,,,,,,,,,,,,,,,,,,,"[2,1,9,7,3,5,6,4]",1,0,1,0,1,,,,,,,,,,,,,,,,,,,,,,,,,,,,,,,,,,,,,,,,,,,,,,,,
,,5f88877885e51d02acd71b12,2022-09-09_02h25.01.117,CGTgamblingSpanTasks,2022.2.1,Win32,59.54153022,,,,,,,,,,,,,,,,,,,,,,,,,,,,,,,,,,,,,,,,,,,,,,,,,,,,,,,,,,,,,,,,,,,,,,,,,,,,,,,,,,"[2,1,9,7,3,5,6,4]",2,0,2,0,1,,,,,,,,,,,,,,,,,,,,,,,,,,,,,,,,,,,,,,,,,,,,,,,,
,,5f88877885e51d02acd71b12,2022-09-09_02h25.01.117,CGTgamblingSpanTasks,2022.2.1,Win32,59.54153022,,,,,,,,,,,,,,,,,,,,,,,,,,,,,,,,,,,,,,,,,,,,,,,,,,,,,,,,,,,,,,,,,,,,,,,,,,,,,,,,,,"[2,1,9,7,3,5,6,4]",3,0,3,0,1,,,,,,,,,,,,,,,,,,,,,,,,,,,,,,,,,,,,,,,,,,,,,,,,
,,5f88877885e51d02acd71b12,2022-09-09_02h25.01.117,CGTgamblingSpanTasks,2022.2.1,Win32,59.54153022,,,,,,,,,,,,,,,,,,,,,,,,,,,,,,,,,,,,,,,,,,,,,,,,,,,,,,,,,,,,,,,,,,,,,,,,,,,,,,,,,,"[2,1,9,7,3,5,6,4]",4,0,4,0,1,,,,,,,,,,,,,,,,,,,,,,,,,,,,,,,,,,,,,,,,,,,,,,,,
,,5f88877885e51d02acd71b12,2022-09-09_02h25.01.117,CGTgamblingSpanTasks,2022.2.1,Win32,59.54153022,,,,,,,,,,,,,,,,,,,,,,,,,,,,,,,,,,,,,,,,,,,,,,,,,,,,,,,,,,,,,,,,,,,,,,,,,,,,,,,,,,"[2,1,9,7,3,5,6,4]",5,0,5,0,1,,,,,,,,,,,,,,,,,,,,,,,,,,,,,,,,,,,,,,,,,,,,,,,,
,,5f88877885e51d02acd71b12,2022-09-09_02h25.01.117,CGTgamblingSpanTasks,2022.2.1,Win32,59.54153022,,,,,,,,,,,,,,,,,,,,,,,,,,,,,,,,,,,,,,,,,,,,,,,,,,,,,,,,,,,,,,,,,,,,,,,,,,,,,,,,,,"[2,1,9,7,3,5,6,4]",6,0,6,0,1,,,,,,,,,,,,,,,,,,,,,,,,,,,,,,,,,,,,,,,,,,,,,,,,
,,5f88877885e51d02acd71b12,2022-09-09_02h25.01.117,CGTgamblingSpanTasks,2022.2.1,Win32,59.54153022,,,,,,,,,,,,,,,,,,,,,,,,,,,,,,,,,,,,,,,,,,,,,,,,,,,,,,,,,,,,,,,,,,,,,,,,,,,,,,,,,,"[2,1,9,7,3,5,6,4]",7,0,7,0,1,,,,,,,,,,,,,,,,,,,,,,,,,,,,,,,,,,,,,,,,,,,,,,,,
,,5f88877885e51d02acd71b12,2022-09-09_02h25.01.117,CGTgamblingSpanTasks,2022.2.1,Win32,59.54153022,,,,,,,,,,,,,,,,,,,,,,,,,,,,,,,,,,,,,,,,,,,,,,,,,,,,,,,,,,,,,,,0,,,,,,,,,,,,,,,,,,,,,,,,,2197354,0.045572917,-0.416666667,1,0,0,cont_button,0,6,6,6,1,7,,,,,,,,,,,,,,,,,,,,,,,,,,,,,,,,,,,
,,5f88877885e51d02acd71b12,2022-09-09_02h25.01.117,CGTgamblingSpanTasks,2022.2.1,Win32,59.54153022,,,,,,,,,,,,,,,,,,,,,,,,,,,,,,,,,,,,,,,,,,,,,,,,,,,,,,,,,,,,,,,,,,,,,,,,,,,,,,,,,,"[9,6,1,8,4,2,5]",0,0,0,0,1,,,,,,,,,,,,,,,,,,,,,,,,,,,,,,,,,,,,,,,,,,,,,,,,
,,5f88877885e51d02acd71b12,2022-09-09_02h25.01.117,CGTgamblingSpanTasks,2022.2.1,Win32,59.54153022,,,,,,,,,,,,,,,,,,,,,,,,,,,,,,,,,,,,,,,,,,,,,,,,,,,,,,,,,,,,,,,,,,,,,,,,,,,,,,,,,,"[9,6,1,8,4,2,5]",1,0,1,0,1,,,,,,,,,,,,,,,,,,,,,,,,,,,,,,,,,,,,,,,,,,,,,,,,
,,5f88877885e51d02acd71b12,2022-09-09_02h25.01.117,CGTgamblingSpanTasks,2022.2.1,Win32,59.54153022,,,,,,,,,,,,,,,,,,,,,,,,,,,,,,,,,,,,,,,,,,,,,,,,,,,,,,,,,,,,,,,,,,,,,,,,,,,,,,,,,,"[9,6,1,8,4,2,5]",2,0,2,0,1,,,,,,,,,,,,,,,,,,,,,,,,,,,,,,,,,,,,,,,,,,,,,,,,
,,5f88877885e51d02acd71b12,2022-09-09_02h25.01.117,CGTgamblingSpanTasks,2022.2.1,Win32,59.54153022,,,,,,,,,,,,,,,,,,,,,,,,,,,,,,,,,,,,,,,,,,,,,,,,,,,,,,,,,,,,,,,,,,,,,,,,,,,,,,,,,,"[9,6,1,8,4,2,5]",3,0,3,0,1,,,,,,,,,,,,,,,,,,,,,,,,,,,,,,,,,,,,,,,,,,,,,,,,
,,5f88877885e51d02acd71b12,2022-09-09_02h25.01.117,CGTgamblingSpanTasks,2022.2.1,Win32,59.54153022,,,,,,,,,,,,,,,,,,,,,,,,,,,,,,,,,,,,,,,,,,,,,,,,,,,,,,,,,,,,,,,,,,,,,,,,,,,,,,,,,,"[9,6,1,8,4,2,5]",4,0,4,0,1,,,,,,,,,,,,,,,,,,,,,,,,,,,,,,,,,,,,,,,,,,,,,,,,
,,5f88877885e51d02acd71b12,2022-09-09_02h25.01.117,CGTgamblingSpanTasks,2022.2.1,Win32,59.54153022,,,,,,,,,,,,,,,,,,,,,,,,,,,,,,,,,,,,,,,,,,,,,,,,,,,,,,,,,,,,,,,,,,,,,,,,,,,,,,,,,,"[9,6,1,8,4,2,5]",5,0,5,0,1,,,,,,,,,,,,,,,,,,,,,,,,,,,,,,,,,,,,,,,,,,,,,,,,
,,5f88877885e51d02acd71b12,2022-09-09_02h25.01.117,CGTgamblingSpanTasks,2022.2.1,Win32,59.54153022,,,,,,,,,,,,,,,,,,,,,,,,,,,,,,,,,,,,,,,,,,,,,,,,,,,,,,,,,,,,,,,,,,,,,,,,,,,,,,,,,,"[9,6,1,8,4,2,5]",6,0,6,0,1,,,,,,,,,,,,,,,,,,,,,,,,,,,,,,,,,,,,,,,,,,,,,,,,
,,5f88877885e51d02acd71b12,2022-09-09_02h25.01.117,CGTgamblingSpanTasks,2022.2.1,Win32,59.54153022,,,,,,,,,,,,,,,,,,,,,,,,,,,,,,,,,,,,,,,,,,,,,,,,,,,,,,,,,,,,,,,0,,,,,,,,,,,,,,,,,,,,,,,,,618425,0.045572917,-0.416666667,1,0,0,cont_button,0,7,7,7,1,8,,,,,,,,,,,,,,,,,,,,,,,,,,,,,,,,,,,
,,5f88877885e51d02acd71b12,2022-09-09_02h25.01.117,CGTgamblingSpanTasks,2022.2.1,Win32,59.54153022,,,,,,,,,,,,,,,,,,,,,,,,,,,,,,,,,,,,,,,,,,,,,,,,,,,,,,,,,,,,,,,,,,,,,,,,,,,,,,,,,,"[7,5,8,6,4,1,9]",0,0,0,0,1,,,,,,,,,,,,,,,,,,,,,,,,,,,,,,,,,,,,,,,,,,,,,,,,
,,5f88877885e51d02acd71b12,2022-09-09_02h25.01.117,CGTgamblingSpanTasks,2022.2.1,Win32,59.54153022,,,,,,,,,,,,,,,,,,,,,,,,,,,,,,,,,,,,,,,,,,,,,,,,,,,,,,,,,,,,,,,,,,,,,,,,,,,,,,,,,,"[7,5,8,6,4,1,9]",1,0,1,0,1,,,,,,,,,,,,,,,,,,,,,,,,,,,,,,,,,,,,,,,,,,,,,,,,
,,5f88877885e51d02acd71b12,2022-09-09_02h25.01.117,CGTgamblingSpanTasks,2022.2.1,Win32,59.54153022,,,,,,,,,,,,,,,,,,,,,,,,,,,,,,,,,,,,,,,,,,,,,,,,,,,,,,,,,,,,,,,,,,,,,,,,,,,,,,,,,,"[7,5,8,6,4,1,9]",2,0,2,0,1,,,,,,,,,,,,,,,,,,,,,,,,,,,,,,,,,,,,,,,,,,,,,,,,
,,5f88877885e51d02acd71b12,2022-09-09_02h25.01.117,CGTgamblingSpanTasks,2022.2.1,Win32,59.54153022,,,,,,,,,,,,,,,,,,,,,,,,,,,,,,,,,,,,,,,,,,,,,,,,,,,,,,,,,,,,,,,,,,,,,,,,,,,,,,,,,,"[7,5,8,6,4,1,9]",3,0,3,0,1,,,,,,,,,,,,,,,,,,,,,,,,,,,,,,,,,,,,,,,,,,,,,,,,
,,5f88877885e51d02acd71b12,2022-09-09_02h25.01.117,CGTgamblingSpanTasks,2022.2.1,Win32,59.54153022,,,,,,,,,,,,,,,,,,,,,,,,,,,,,,,,,,,,,,,,,,,,,,,,,,,,,,,,,,,,,,,,,,,,,,,,,,,,,,,,,,"[7,5,8,6,4,1,9]",4,0,4,0,1,,,,,,,,,,,,,,,,,,,,,,,,,,,,,,,,,,,,,,,,,,,,,,,,
,,5f88877885e51d02acd71b12,2022-09-09_02h25.01.117,CGTgamblingSpanTasks,2022.2.1,Win32,59.54153022,,,,,,,,,,,,,,,,,,,,,,,,,,,,,,,,,,,,,,,,,,,,,,,,,,,,,,,,,,,,,,,,,,,,,,,,,,,,,,,,,,"[7,5,8,6,4,1,9]",5,0,5,0,1,,,,,,,,,,,,,,,,,,,,,,,,,,,,,,,,,,,,,,,,,,,,,,,,
,,5f88877885e51d02acd71b12,2022-09-09_02h25.01.117,CGTgamblingSpanTasks,2022.2.1,Win32,59.54153022,,,,,,,,,,,,,,,,,,,,,,,,,,,,,,,,,,,,,,,,,,,,,,,,,,,,,,,,,,,,,,,,,,,,,,,,,,,,,,,,,,"[7,5,8,6,4,1,9]",6,0,6,0,1,,,,,,,,,,,,,,,,,,,,,,,,,,,,,,,,,,,,,,,,,,,,,,,,
,,5f88877885e51d02acd71b12,2022-09-09_02h25.01.117,CGTgamblingSpanTasks,2022.2.1,Win32,59.54153022,,,,,,,,,,,,,,,,,,,,,,,,,,,,,,,,,,,,,,,,,,,,,,,,,,,,,,,,,,,,,,,1,,,,,,,,,,,,,,,,,,,,,,,,,7586419,0.045572917,-0.416666667,1,0,0,cont_button,0,8,8,8,1,9,,,,,,,,,,,,,,,,,,,,,,,,,,,,,,,,,,,
,,5f88877885e51d02acd71b12,2022-09-09_02h25.01.117,CGTgamblingSpanTasks,2022.2.1,Win32,59.54153022,,,,,,,,,,,,,,,,,,,,,,,,,,,,,,,,,,,,,,,,,,,,,,,,,,,,,,,,,,,,,,,,,,,,,,,,,,,,,,,,,,"[7,6,8,9,2,1,5,3]",0,0,0,0,1,,,,,,,,,,,,,,,,,,,,,,,,,,,,,,,,,,,,,,,,,,,,,,,,
,,5f88877885e51d02acd71b12,2022-09-09_02h25.01.117,CGTgamblingSpanTasks,2022.2.1,Win32,59.54153022,,,,,,,,,,,,,,,,,,,,,,,,,,,,,,,,,,,,,,,,,,,,,,,,,,,,,,,,,,,,,,,,,,,,,,,,,,,,,,,,,,"[7,6,8,9,2,1,5,3]",1,0,1,0,1,,,,,,,,,,,,,,,,,,,,,,,,,,,,,,,,,,,,,,,,,,,,,,,,
,,5f88877885e51d02acd71b12,2022-09-09_02h25.01.117,CGTgamblingSpanTasks,2022.2.1,Win32,59.54153022,,,,,,,,,,,,,,,,,,,,,,,,,,,,,,,,,,,,,,,,,,,,,,,,,,,,,,,,,,,,,,,,,,,,,,,,,,,,,,,,,,"[7,6,8,9,2,1,5,3]",2,0,2,0,1,,,,,,,,,,,,,,,,,,,,,,,,,,,,,,,,,,,,,,,,,,,,,,,,
,,5f88877885e51d02acd71b12,2022-09-09_02h25.01.117,CGTgamblingSpanTasks,2022.2.1,Win32,59.54153022,,,,,,,,,,,,,,,,,,,,,,,,,,,,,,,,,,,,,,,,,,,,,,,,,,,,,,,,,,,,,,,,,,,,,,,,,,,,,,,,,,"[7,6,8,9,2,1,5,3]",3,0,3,0,1,,,,,,,,,,,,,,,,,,,,,,,,,,,,,,,,,,,,,,,,,,,,,,,,
,,5f88877885e51d02acd71b12,2022-09-09_02h25.01.117,CGTgamblingSpanTasks,2022.2.1,Win32,59.54153022,,,,,,,,,,,,,,,,,,,,,,,,,,,,,,,,,,,,,,,,,,,,,,,,,,,,,,,,,,,,,,,,,,,,,,,,,,,,,,,,,,"[7,6,8,9,2,1,5,3]",4,0,4,0,1,,,,,,,,,,,,,,,,,,,,,,,,,,,,,,,,,,,,,,,,,,,,,,,,
,,5f88877885e51d02acd71b12,2022-09-09_02h25.01.117,CGTgamblingSpanTasks,2022.2.1,Win32,59.54153022,,,,,,,,,,,,,,,,,,,,,,,,,,,,,,,,,,,,,,,,,,,,,,,,,,,,,,,,,,,,,,,,,,,,,,,,,,,,,,,,,,"[7,6,8,9,2,1,5,3]",5,0,5,0,1,,,,,,,,,,,,,,,,,,,,,,,,,,,,,,,,,,,,,,,,,,,,,,,,
,,5f88877885e51d02acd71b12,2022-09-09_02h25.01.117,CGTgamblingSpanTasks,2022.2.1,Win32,59.54153022,,,,,,,,,,,,,,,,,,,,,,,,,,,,,,,,,,,,,,,,,,,,,,,,,,,,,,,,,,,,,,,,,,,,,,,,,,,,,,,,,,"[7,6,8,9,2,1,5,3]",6,0,6,0,1,,,,,,,,,,,,,,,,,,,,,,,,,,,,,,,,,,,,,,,,,,,,,,,,
,,5f88877885e51d02acd71b12,2022-09-09_02h25.01.117,CGTgamblingSpanTasks,2022.2.1,Win32,59.54153022,,,,,,,,,,,,,,,,,,,,,,,,,,,,,,,,,,,,,,,,,,,,,,,,,,,,,,,,,,,,,,,,,,,,,,,,,,,,,,,,,,"[7,6,8,9,2,1,5,3]",7,0,7,0,1,,,,,,,,,,,,,,,,,,,,,,,,,,,,,,,,,,,,,,,,,,,,,,,,
,,5f88877885e51d02acd71b12,2022-09-09_02h25.01.117,CGTgamblingSpanTasks,2022.2.1,Win32,59.54153022,,,,,,,,,,,,,,,,,,,,,,,,,,,,,,,,,,,,,,,,,,,,,,,,,,,,,,,,,,,,,,,0,,,,,,,,,,,,,,,,,,,,,,,,,7618963,0.045572917,-0.416666667,1,0,0,cont_button,0,9,9,9,1,10,,,,,,,,,,,,,,,,,,,,,,,,,,,,,,,,,,,
,,5f88877885e51d02acd71b12,2022-09-09_02h25.01.117,CGTgamblingSpanTasks,2022.2.1,Win32,59.54153022,,,,,,,,,,,,,,,,,,,,,,,,,,,,,,,,,,,,,,,,,,,,,,,,,,,,,,,,,,,,,,,,,,,,,,,,,,,,,,,,,,"[7,3,4,2,9,1,5,6]",0,0,0,0,1,,,,,,,,,,,,,,,,,,,,,,,,,,,,,,,,,,,,,,,,,,,,,,,,
,,5f88877885e51d02acd71b12,2022-09-09_02h25.01.117,CGTgamblingSpanTasks,2022.2.1,Win32,59.54153022,,,,,,,,,,,,,,,,,,,,,,,,,,,,,,,,,,,,,,,,,,,,,,,,,,,,,,,,,,,,,,,,,,,,,,,,,,,,,,,,,,"[7,3,4,2,9,1,5,6]",1,0,1,0,1,,,,,,,,,,,,,,,,,,,,,,,,,,,,,,,,,,,,,,,,,,,,,,,,
,,5f88877885e51d02acd71b12,2022-09-09_02h25.01.117,CGTgamblingSpanTasks,2022.2.1,Win32,59.54153022,,,,,,,,,,,,,,,,,,,,,,,,,,,,,,,,,,,,,,,,,,,,,,,,,,,,,,,,,,,,,,,,,,,,,,,,,,,,,,,,,,"[7,3,4,2,9,1,5,6]",2,0,2,0,1,,,,,,,,,,,,,,,,,,,,,,,,,,,,,,,,,,,,,,,,,,,,,,,,
,,5f88877885e51d02acd71b12,2022-09-09_02h25.01.117,CGTgamblingSpanTasks,2022.2.1,Win32,59.54153022,,,,,,,,,,,,,,,,,,,,,,,,,,,,,,,,,,,,,,,,,,,,,,,,,,,,,,,,,,,,,,,,,,,,,,,,,,,,,,,,,,"[7,3,4,2,9,1,5,6]",3,0,3,0,1,,,,,,,,,,,,,,,,,,,,,,,,,,,,,,,,,,,,,,,,,,,,,,,,
,,5f88877885e51d02acd71b12,2022-09-09_02h25.01.117,CGTgamblingSpanTasks,2022.2.1,Win32,59.54153022,,,,,,,,,,,,,,,,,,,,,,,,,,,,,,,,,,,,,,,,,,,,,,,,,,,,,,,,,,,,,,,,,,,,,,,,,,,,,,,,,,"[7,3,4,2,9,1,5,6]",4,0,4,0,1,,,,,,,,,,,,,,,,,,,,,,,,,,,,,,,,,,,,,,,,,,,,,,,,
,,5f88877885e51d02acd71b12,2022-09-09_02h25.01.117,CGTgamblingSpanTasks,2022.2.1,Win32,59.54153022,,,,,,,,,,,,,,,,,,,,,,,,,,,,,,,,,,,,,,,,,,,,,,,,,,,,,,,,,,,,,,,,,,,,,,,,,,,,,,,,,,"[7,3,4,2,9,1,5,6]",5,0,5,0,1,,,,,,,,,,,,,,,,,,,,,,,,,,,,,,,,,,,,,,,,,,,,,,,,
,,5f88877885e51d02acd71b12,2022-09-09_02h25.01.117,CGTgamblingSpanTasks,2022.2.1,Win32,59.54153022,,,,,,,,,,,,,,,,,,,,,,,,,,,,,,,,,,,,,,,,,,,,,,,,,,,,,,,,,,,,,,,,,,,,,,,,,,,,,,,,,,"[7,3,4,2,9,1,5,6]",6,0,6,0,1,,,,,,,,,,,,,,,,,,,,,,,,,,,,,,,,,,,,,,,,,,,,,,,,
,,5f88877885e51d02acd71b12,2022-09-09_02h25.01.117,CGTgamblingSpanTasks,2022.2.1,Win32,59.54153022,,,,,,,,,,,,,,,,,,,,,,,,,,,,,,,,,,,,,,,,,,,,,,,,,,,,,,,,,,,,,,,,,,,,,,,,,,,,,,,,,,"[7,3,4,2,9,1,5,6]",7,0,7,0,1,,,,,,,,,,,,,,,,,,,,,,,,,,,,,,,,,,,,,,,,,,,,,,,,
,,5f88877885e51d02acd71b12,2022-09-09_02h25.01.117,CGTgamblingSpanTasks,2022.2.1,Win32,59.54153022,,,,,,,,,,,,,,,,,,,,,,,,,,,,,,,,,,,,,,,,,,,,,,,,,,,,,,,,,,,,,,,0,,,,,,,,,,,,,,,,,,,,,,,,,76542196,0.045572917,-0.416666667,1,0,0,cont_button,0,10,10,10,1,11,,,,,,,,,,,,,,,,,,,,,,,,,,,,,,,,,,,
,,5f88877885e51d02acd71b12,2022-09-09_02h25.01.117,CGTgamblingSpanTasks,2022.2.1,Win32,59.54153022,,,,,,,,,,,,,,,,,,,,,,,,,,,,,,,,,,,,,,,,,,,,,,,,,,,,,,,,,,,,,,,,,,,,,,,,,,,,,,,,,,"[6,2,9,4,1,8,5]",0,0,0,0,1,,,,,,,,,,,,,,,,,,,,,,,,,,,,,,,,,,,,,,,,,,,,,,,,
,,5f88877885e51d02acd71b12,2022-09-09_02h25.01.117,CGTgamblingSpanTasks,2022.2.1,Win32,59.54153022,,,,,,,,,,,,,,,,,,,,,,,,,,,,,,,,,,,,,,,,,,,,,,,,,,,,,,,,,,,,,,,,,,,,,,,,,,,,,,,,,,"[6,2,9,4,1,8,5]",1,0,1,0,1,,,,,,,,,,,,,,,,,,,,,,,,,,,,,,,,,,,,,,,,,,,,,,,,
,,5f88877885e51d02acd71b12,2022-09-09_02h25.01.117,CGTgamblingSpanTasks,2022.2.1,Win32,59.54153022,,,,,,,,,,,,,,,,,,,,,,,,,,,,,,,,,,,,,,,,,,,,,,,,,,,,,,,,,,,,,,,,,,,,,,,,,,,,,,,,,,"[6,2,9,4,1,8,5]",2,0,2,0,1,,,,,,,,,,,,,,,,,,,,,,,,,,,,,,,,,,,,,,,,,,,,,,,,
,,5f88877885e51d02acd71b12,2022-09-09_02h25.01.117,CGTgamblingSpanTasks,2022.2.1,Win32,59.54153022,,,,,,,,,,,,,,,,,,,,,,,,,,,,,,,,,,,,,,,,,,,,,,,,,,,,,,,,,,,,,,,,,,,,,,,,,,,,,,,,,,"[6,2,9,4,1,8,5]",3,0,3,0,1,,,,,,,,,,,,,,,,,,,,,,,,,,,,,,,,,,,,,,,,,,,,,,,,
,,5f88877885e51d02acd71b12,2022-09-09_02h25.01.117,CGTgamblingSpanTasks,2022.2.1,Win32,59.54153022,,,,,,,,,,,,,,,,,,,,,,,,,,,,,,,,,,,,,,,,,,,,,,,,,,,,,,,,,,,,,,,,,,,,,,,,,,,,,,,,,,"[6,2,9,4,1,8,5]",4,0,4,0,1,,,,,,,,,,,,,,,,,,,,,,,,,,,,,,,,,,,,,,,,,,,,,,,,
,,5f88877885e51d02acd71b12,2022-09-09_02h25.01.117,CGTgamblingSpanTasks,2022.2.1,Win32,59.54153022,,,,,,,,,,,,,,,,,,,,,,,,,,,,,,,,,,,,,,,,,,,,,,,,,,,,,,,,,,,,,,,,,,,,,,,,,,,,,,,,,,"[6,2,9,4,1,8,5]",5,0,5,0,1,,,,,,,,,,,,,,,,,,,,,,,,,,,,,,,,,,,,,,,,,,,,,,,,
,,5f88877885e51d02acd71b12,2022-09-09_02h25.01.117,CGTgamblingSpanTasks,2022.2.1,Win32,59.54153022,,,,,,,,,,,,,,,,,,,,,,,,,,,,,,,,,,,,,,,,,,,,,,,,,,,,,,,,,,,,,,,,,,,,,,,,,,,,,,,,,,"[6,2,9,4,1,8,5]",6,0,6,0,1,,,,,,,,,,,,,,,,,,,,,,,,,,,,,,,,,,,,,,,,,,,,,,,,
,,5f88877885e51d02acd71b12,2022-09-09_02h25.01.117,CGTgamblingSpanTasks,2022.2.1,Win32,59.54153022,,,,,,,,,,,,,,,,,,,,,,,,,,,,,,,,,,,,,,,,,,,,,,,,,,,,,,,,,,,,,,,0,,,,,,,,,,,,,,,,,,,,,,,,,6219489,0.045572917,-0.416666667,1,0,0,cont_button,0,11,11,11,1,12,,,,,,,,,,,,,,,,,,,,,,,,,,,,,,,,,,,
,,5f88877885e51d02acd71b12,2022-09-09_02h25.01.117,CGTgamblingSpanTasks,2022.2.1,Win32,59.54153022,,,,,,,,,,,,,,,,,,,,,,,,,,,,,,,,,,,,,,,,,,,,,,,,,,,,,,,,,,,,,,,,,,,,,,,,,,,,,,,,,,"[6,7,5,9,8,1,2]",0,0,0,0,1,,,,,,,,,,,,,,,,,,,,,,,,,,,,,,,,,,,,,,,,,,,,,,,,
,,5f88877885e51d02acd71b12,2022-09-09_02h25.01.117,CGTgamblingSpanTasks,2022.2.1,Win32,59.54153022,,,,,,,,,,,,,,,,,,,,,,,,,,,,,,,,,,,,,,,,,,,,,,,,,,,,,,,,,,,,,,,,,,,,,,,,,,,,,,,,,,"[6,7,5,9,8,1,2]",1,0,1,0,1,,,,,,,,,,,,,,,,,,,,,,,,,,,,,,,,,,,,,,,,,,,,,,,,
,,5f88877885e51d02acd71b12,2022-09-09_02h25.01.117,CGTgamblingSpanTasks,2022.2.1,Win32,59.54153022,,,,,,,,,,,,,,,,,,,,,,,,,,,,,,,,,,,,,,,,,,,,,,,,,,,,,,,,,,,,,,,,,,,,,,,,,,,,,,,,,,"[6,7,5,9,8,1,2]",2,0,2,0,1,,,,,,,,,,,,,,,,,,,,,,,,,,,,,,,,,,,,,,,,,,,,,,,,
,,5f88877885e51d02acd71b12,2022-09-09_02h25.01.117,CGTgamblingSpanTasks,2022.2.1,Win32,59.54153022,,,,,,,,,,,,,,,,,,,,,,,,,,,,,,,,,,,,,,,,,,,,,,,,,,,,,,,,,,,,,,,,,,,,,,,,,,,,,,,,,,"[6,7,5,9,8,1,2]",3,0,3,0,1,,,,,,,,,,,,,,,,,,,,,,,,,,,,,,,,,,,,,,,,,,,,,,,,
,,5f88877885e51d02acd71b12,2022-09-09_02h25.01.117,CGTgamblingSpanTasks,2022.2.1,Win32,59.54153022,,,,,,,,,,,,,,,,,,,,,,,,,,,,,,,,,,,,,,,,,,,,,,,,,,,,,,,,,,,,,,,,,,,,,,,,,,,,,,,,,,"[6,7,5,9,8,1,2]",4,0,4,0,1,,,,,,,,,,,,,,,,,,,,,,,,,,,,,,,,,,,,,,,,,,,,,,,,
,,5f88877885e51d02acd71b12,2022-09-09_02h25.01.117,CGTgamblingSpanTasks,2022.2.1,Win32,59.54153022,,,,,,,,,,,,,,,,,,,,,,,,,,,,,,,,,,,,,,,,,,,,,,,,,,,,,,,,,,,,,,,,,,,,,,,,,,,,,,,,,,"[6,7,5,9,8,1,2]",5,0,5,0,1,,,,,,,,,,,,,,,,,,,,,,,,,,,,,,,,,,,,,,,,,,,,,,,,
,,5f88877885e51d02acd71b12,2022-09-09_02h25.01.117,CGTgamblingSpanTasks,2022.2.1,Win32,59.54153022,,,,,,,,,,,,,,,,,,,,,,,,,,,,,,,,,,,,,,,,,,,,,,,,,,,,,,,,,,,,,,,,,,,,,,,,,,,,,,,,,,"[6,7,5,9,8,1,2]",6,0,6,0,1,,,,,,,,,,,,,,,,,,,,,,,,,,,,,,,,,,,,,,,,,,,,,,,,
,,5f88877885e51d02acd71b12,2022-09-09_02h25.01.117,CGTgamblingSpanTasks,2022.2.1,Win32,59.54153022,,,,,,,,,,,,,,,,,,,,,,,,,,,,,,,,,,,,,,,,,,,,,,,,,,,,,,,,,,,,,,,0,,,,,,,,,,,,,,,,,,,,,,,,,6781982,0.045572917,-0.416666667,1,0,0,cont_button,0,12,12,12,1,13,,,,,,,,,,,,,,,,,,,,,,,,,,,,,,,,,,,
,,5f88877885e51d02acd71b12,2022-09-09_02h25.01.117,CGTgamblingSpanTasks,2022.2.1,Win32,59.54153022,,,,,,,,,,,,,,,,,,,,,,,,,,,,,,,,,,,,,,,,,,,,,,,,,,,,,,,,,,,,,,,,,,,,,,,,,,,,,,,,,,"[9,7,4,5,2,6]",0,0,0,0,1,,,,,,,,,,,,,,,,,,,,,,,,,,,,,,,,,,,,,,,,,,,,,,,,
,,5f88877885e51d02acd71b12,2022-09-09_02h25.01.117,CGTgamblingSpanTasks,2022.2.1,Win32,59.54153022,,,,,,,,,,,,,,,,,,,,,,,,,,,,,,,,,,,,,,,,,,,,,,,,,,,,,,,,,,,,,,,,,,,,,,,,,,,,,,,,,,"[9,7,4,5,2,6]",1,0,1,0,1,,,,,,,,,,,,,,,,,,,,,,,,,,,,,,,,,,,,,,,,,,,,,,,,
,,5f88877885e51d02acd71b12,2022-09-09_02h25.01.117,CGTgamblingSpanTasks,2022.2.1,Win32,59.54153022,,,,,,,,,,,,,,,,,,,,,,,,,,,,,,,,,,,,,,,,,,,,,,,,,,,,,,,,,,,,,,,,,,,,,,,,,,,,,,,,,,"[9,7,4,5,2,6]",2,0,2,0,1,,,,,,,,,,,,,,,,,,,,,,,,,,,,,,,,,,,,,,,,,,,,,,,,
,,5f88877885e51d02acd71b12,2022-09-09_02h25.01.117,CGTgamblingSpanTasks,2022.2.1,Win32,59.54153022,,,,,,,,,,,,,,,,,,,,,,,,,,,,,,,,,,,,,,,,,,,,,,,,,,,,,,,,,,,,,,,,,,,,,,,,,,,,,,,,,,"[9,7,4,5,2,6]",3,0,3,0,1,,,,,,,,,,,,,,,,,,,,,,,,,,,,,,,,,,,,,,,,,,,,,,,,
,,5f88877885e51d02acd71b12,2022-09-09_02h25.01.117,CGTgamblingSpanTasks,2022.2.1,Win32,59.54153022,,,,,,,,,,,,,,,,,,,,,,,,,,,,,,,,,,,,,,,,,,,,,,,,,,,,,,,,,,,,,,,,,,,,,,,,,,,,,,,,,,"[9,7,4,5,2,6]",4,0,4,0,1,,,,,,,,,,,,,,,,,,,,,,,,,,,,,,,,,,,,,,,,,,,,,,,,
,,5f88877885e51d02acd71b12,2022-09-09_02h25.01.117,CGTgamblingSpanTasks,2022.2.1,Win32,59.54153022,,,,,,,,,,,,,,,,,,,,,,,,,,,,,,,,,,,,,,,,,,,,,,,,,,,,,,,,,,,,,,,,,,,,,,,,,,,,,,,,,,"[9,7,4,5,2,6]",5,0,5,0,1,,,,,,,,,,,,,,,,,,,,,,,,,,,,,,,,,,,,,,,,,,,,,,,,
,,5f88877885e51d02acd71b12,2022-09-09_02h25.01.117,CGTgamblingSpanTasks,2022.2.1,Win32,59.54153022,,,,,,,,,,,,,,,,,,,,,,,,,,,,,,,,,,,,,,,,,,,,,,,,,,,,,,,,,,,,,,,0,,,,,,,,,,,,,,,,,,,,,,,,,9745236,0.045572917,-0.416666667,1,0,0,cont_button,0,13,13,13,1,14,,,,,,,,,,,,,,,,,,,,,,,,,,,,,,,,,,,
,,5f88877885e51d02acd71b12,2022-09-09_02h25.01.117,CGTgamblingSpanTasks,2022.2.1,Win32,59.54153022,,,,,,,,,,,,,,,,,,,,,,,,,,,,,,,,,,,,,,,,,,,,,,,,,,,,,,,,,,,,,,,,,,,,,,,,,,,,,,,,,,,,,,,,,,,,,,,,,,,,,return,5.4276,,,,,,,,,,,,,,,,,,,,,,,,,,,,,,,,,
,,5f88877885e51d02acd71b12,2022-09-09_02h25.01.117,CGTgamblingSpanTasks,2022.2.1,Win32,59.54153022,,,,,,,,,,,,,,,,,,,,,,,,,,,,,,,,,,,,,,,,,,,,,,,,,,,,,,,,,,,,,,,,,,,,,,,,,,,,,,,,,,,,,,,,,,,,,,,,,,,,,,,return,4.1958,,,,,,,,,,,,,,,,,,,,,,,,,,,,,,,
,,5f88877885e51d02acd71b12,2022-09-09_02h25.01.117,CGTgamblingSpanTasks,2022.2.1,Win32,59.54153022,,,,,,,,,,,,,,,,,,,,,,,,,,,,,,,,,,,,,,,,,,,,,,,,,,,,,,,,,,,,,,,1,,,,,,,,,,,,3,342,24,2,42,,,,,,,,,,,,,,,,,,,,,,,,,,42,0.045572917,-0.416666667,1,0,0,cont_buttonPractice_2,0,0,0,0,1,,,,,,,,,,,,,,,,,,,
,,5f88877885e51d02acd71b12,2022-09-09_02h25.01.117,CGTgamblingSpanTasks,2022.2.1,Win32,59.54153022,,,,,,,,,,,,,,,,,,,,,,,,,,,,,,,,,,,,,,,,,,,,,,,,,,,,,,,,,,,,,,,1,,,,,,,,,,,,3,937,73,2,37,,,,,,,,,,,,,,,,,,,,,,,,,,37,0.045572917,-0.416666667,1,0,0,cont_buttonPractice_2,0,1,1,1,1,,,,,,,,,,,,,,,,,,,
,,5f88877885e51d02acd71b12,2022-09-09_02h25.01.117,CGTgamblingSpanTasks,2022.2.1,Win32,59.54153022,,,,,,,,,,,,,,,,,,,,,,,,,,,,,,,,,,,,,,,,,,,,,,,,,,,,,,,,,,,,,,,,,,,,,,,,,,,,,,,,,,,,,,,,,,,,,,,,,,,,,,,,,,,,,,,,,,,,,return,2.4459,,,,,,,,,,,,,,,,,
,,5f88877885e51d02acd71b12,2022-09-09_02h25.01.117,CGTgamblingSpanTasks,2022.2.1,Win32,59.54153022,,,,,,,,,,,,,,,,,,,,,,,,,,,,,,,,,,,,,,,,,,,,,,,,,,,,,,,,,,,,,,,,,,,,,,,,,,,,,,,,,,"[4,9]",,,,,,,,,,,,,,,,,,,,,,,,,,,,,,,,,,,,,0,0,0,0,1,,,,,,,,,,,,
,,5f88877885e51d02acd71b12,2022-09-09_02h25.01.117,CGTgamblingSpanTasks,2022.2.1,Win32,59.54153022,,,,,,,,,,,,,,,,,,,,,,,,,,,,,,,,,,,,,,,,,,,,,,,,,,,,,,,,,,,,,,,,,,,,,,,,,,,,,,,,,,"[4,9]",,,,,,,,,,,,,,,,,,,,,,,,,,,,,,,,,,,,,1,0,1,0,1,,,,,,,,,,,,
,,5f88877885e51d02acd71b12,2022-09-09_02h25.01.117,CGTgamblingSpanTasks,2022.2.1,Win32,59.54153022,,,,,,,,,,,,,,,,,,,,,,,,,,,,,,,,,,,,,,,,,,,,,,,,,,,,,,,,,,,,,,,1,,,,,,,,,,,,,,,,,,,,,,,,,,,,,,,,,,,,,1,,,,,,,,,,,,,,,,,,,,,,,,94,0.045572917,-0.416666667,1,0,0,cont_buttonBS,0,0,0,0,1
,,5f88877885e51d02acd71b12,2022-09-09_02h25.01.117,CGTgamblingSpanTasks,2022.2.1,Win32,59.54153022,,,,,,,,,,,,,,,,,,,,,,,,,,,,,,,,,,,,,,,,,,,,,,,,,,,,,,,,,,,,,,,,,,,,,,,,,,,,,,,,,,"[3,5,2]",,,,,,,,,,,,,,,,,,,,,,,,,,,,,,,,,,,,,0,0,0,0,1,,,,,,,,,,,,
,,5f88877885e51d02acd71b12,2022-09-09_02h25.01.117,CGTgamblingSpanTasks,2022.2.1,Win32,59.54153022,,,,,,,,,,,,,,,,,,,,,,,,,,,,,,,,,,,,,,,,,,,,,,,,,,,,,,,,,,,,,,,,,,,,,,,,,,,,,,,,,,"[3,5,2]",,,,,,,,,,,,,,,,,,,,,,,,,,,,,,,,,,,,,1,0,1,0,1,,,,,,,,,,,,
,,5f88877885e51d02acd71b12,2022-09-09_02h25.01.117,CGTgamblingSpanTasks,2022.2.1,Win32,59.54153022,,,,,,,,,,,,,,,,,,,,,,,,,,,,,,,,,,,,,,,,,,,,,,,,,,,,,,,,,,,,,,,,,,,,,,,,,,,,,,,,,,"[3,5,2]",,,,,,,,,,,,,,,,,,,,,,,,,,,,,,,,,,,,,2,0,2,0,1,,,,,,,,,,,,
,,5f88877885e51d02acd71b12,2022-09-09_02h25.01.117,CGTgamblingSpanTasks,2022.2.1,Win32,59.54153022,,,,,,,,,,,,,,,,,,,,,,,,,,,,,,,,,,,,,,,,,,,,,,,,,,,,,,,,,,,,,,,1,,,,,,,,,,,,,,,,,,,,,,,,,,,,,,,,,,,,,2,,,,,,,,,,,,,,,,,,,,,,,,253,0.045572917,-0.416666667,1,0,0,cont_buttonBS,0,1,1,1,1
,,5f88877885e51d02acd71b12,2022-09-09_02h25.01.117,CGTgamblingSpanTasks,2022.2.1,Win32,59.54153022,,,,,,,,,,,,,,,,,,,,,,,,,,,,,,,,,,,,,,,,,,,,,,,,,,,,,,,,,,,,,,,,,,,,,,,,,,,,,,,,,,"[9,4,2,3]",,,,,,,,,,,,,,,,,,,,,,,,,,,,,,,,,,,,,0,0,0,0,1,,,,,,,,,,,,
,,5f88877885e51d02acd71b12,2022-09-09_02h25.01.117,CGTgamblingSpanTasks,2022.2.1,Win32,59.54153022,,,,,,,,,,,,,,,,,,,,,,,,,,,,,,,,,,,,,,,,,,,,,,,,,,,,,,,,,,,,,,,,,,,,,,,,,,,,,,,,,,"[9,4,2,3]",,,,,,,,,,,,,,,,,,,,,,,,,,,,,,,,,,,,,1,0,1,0,1,,,,,,,,,,,,
,,5f88877885e51d02acd71b12,2022-09-09_02h25.01.117,CGTgamblingSpanTasks,2022.2.1,Win32,59.54153022,,,,,,,,,,,,,,,,,,,,,,,,,,,,,,,,,,,,,,,,,,,,,,,,,,,,,,,,,,,,,,,,,,,,,,,,,,,,,,,,,,"[9,4,2,3]",,,,,,,,,,,,,,,,,,,,,,,,,,,,,,,,,,,,,2,0,2,0,1,,,,,,,,,,,,
,,5f88877885e51d02acd71b12,2022-09-09_02h25.01.117,CGTgamblingSpanTasks,2022.2.1,Win32,59.54153022,,,,,,,,,,,,,,,,,,,,,,,,,,,,,,,,,,,,,,,,,,,,,,,,,,,,,,,,,,,,,,,,,,,,,,,,,,,,,,,,,,"[9,4,2,3]",,,,,,,,,,,,,,,,,,,,,,,,,,,,,,,,,,,,,3,0,3,0,1,,,,,,,,,,,,
,,5f88877885e51d02acd71b12,2022-09-09_02h25.01.117,CGTgamblingSpanTasks,2022.2.1,Win32,59.54153022,,,,,,,,,,,,,,,,,,,,,,,,,,,,,,,,,,,,,,,,,,,,,,,,,,,,,,,,,,,,,,,1,,,,,,,,,,,,,,,,,,,,,,,,,,,,,,,,,,,,,3,,,,,,,,,,,,,,,,,,,,,,,,3249,0.045572917,-0.416666667,1,0,0,cont_buttonBS,0,2,2,2,1
,,5f88877885e51d02acd71b12,2022-09-09_02h25.01.117,CGTgamblingSpanTasks,2022.2.1,Win32,59.54153022,,,,,,,,,,,,,,,,,,,,,,,,,,,,,,,,,,,,,,,,,,,,,,,,,,,,,,,,,,,,,,,,,,,,,,,,,,,,,,,,,,"[2,3,1,9,6]",,,,,,,,,,,,,,,,,,,,,,,,,,,,,,,,,,,,,0,0,0,0,1,,,,,,,,,,,,
,,5f88877885e51d02acd71b12,2022-09-09_02h25.01.117,CGTgamblingSpanTasks,2022.2.1,Win32,59.54153022,,,,,,,,,,,,,,,,,,,,,,,,,,,,,,,,,,,,,,,,,,,,,,,,,,,,,,,,,,,,,,,,,,,,,,,,,,,,,,,,,,"[2,3,1,9,6]",,,,,,,,,,,,,,,,,,,,,,,,,,,,,,,,,,,,,1,0,1,0,1,,,,,,,,,,,,
,,5f88877885e51d02acd71b12,2022-09-09_02h25.01.117,CGTgamblingSpanTasks,2022.2.1,Win32,59.54153022,,,,,,,,,,,,,,,,,,,,,,,,,,,,,,,,,,,,,,,,,,,,,,,,,,,,,,,,,,,,,,,,,,,,,,,,,,,,,,,,,,"[2,3,1,9,6]",,,,,,,,,,,,,,,,,,,,,,,,,,,,,,,,,,,,,2,0,2,0,1,,,,,,,,,,,,
,,5f88877885e51d02acd71b12,2022-09-09_02h25.01.117,CGTgamblingSpanTasks,2022.2.1,Win32,59.54153022,,,,,,,,,,,,,,,,,,,,,,,,,,,,,,,,,,,,,,,,,,,,,,,,,,,,,,,,,,,,,,,,,,,,,,,,,,,,,,,,,,"[2,3,1,9,6]",,,,,,,,,,,,,,,,,,,,,,,,,,,,,,,,,,,,,3,0,3,0,1,,,,,,,,,,,,
,,5f88877885e51d02acd71b12,2022-09-09_02h25.01.117,CGTgamblingSpanTasks,2022.2.1,Win32,59.54153022,,,,,,,,,,,,,,,,,,,,,,,,,,,,,,,,,,,,,,,,,,,,,,,,,,,,,,,,,,,,,,,,,,,,,,,,,,,,,,,,,,"[2,3,1,9,6]",,,,,,,,,,,,,,,,,,,,,,,,,,,,,,,,,,,,,4,0,4,0,1,,,,,,,,,,,,
,,5f88877885e51d02acd71b12,2022-09-09_02h25.01.117,CGTgamblingSpanTasks,2022.2.1,Win32,59.54153022,,,,,,,,,,,,,,,,,,,,,,,,,,,,,,,,,,,,,,,,,,,,,,,,,,,,,,,,,,,,,,,0,,,,,,,,,,,,,,,,,,,,,,,,,,,,,,,,,,,,,4,,,,,,,,,,,,,,,,,,,,,,,,69123,0.045572917,-0.416666667,1,0,0,cont_buttonBS,0,3,3,3,1
,,5f88877885e51d02acd71b12,2022-09-09_02h25.01.117,CGTgamblingSpanTasks,2022.2.1,Win32,59.54153022,,,,,,,,,,,,,,,,,,,,,,,,,,,,,,,,,,,,,,,,,,,,,,,,,,,,,,,,,,,,,,,,,,,,,,,,,,,,,,,,,,"[4,6,8,5,3]",,,,,,,,,,,,,,,,,,,,,,,,,,,,,,,,,,,,,0,0,0,0,1,,,,,,,,,,,,
,,5f88877885e51d02acd71b12,2022-09-09_02h25.01.117,CGTgamblingSpanTasks,2022.2.1,Win32,59.54153022,,,,,,,,,,,,,,,,,,,,,,,,,,,,,,,,,,,,,,,,,,,,,,,,,,,,,,,,,,,,,,,,,,,,,,,,,,,,,,,,,,"[4,6,8,5,3]",,,,,,,,,,,,,,,,,,,,,,,,,,,,,,,,,,,,,1,0,1,0,1,,,,,,,,,,,,
,,5f88877885e51d02acd71b12,2022-09-09_02h25.01.117,CGTgamblingSpanTasks,2022.2.1,Win32,59.54153022,,,,,,,,,,,,,,,,,,,,,,,,,,,,,,,,,,,,,,,,,,,,,,,,,,,,,,,,,,,,,,,,,,,,,,,,,,,,,,,,,,"[4,6,8,5,3]",,,,,,,,,,,,,,,,,,,,,,,,,,,,,,,,,,,,,2,0,2,0,1,,,,,,,,,,,,
,,5f88877885e51d02acd71b12,2022-09-09_02h25.01.117,CGTgamblingSpanTasks,2022.2.1,Win32,59.54153022,,,,,,,,,,,,,,,,,,,,,,,,,,,,,,,,,,,,,,,,,,,,,,,,,,,,,,,,,,,,,,,,,,,,,,,,,,,,,,,,,,"[4,6,8,5,3]",,,,,,,,,,,,,,,,,,,,,,,,,,,,,,,,,,,,,3,0,3,0,1,,,,,,,,,,,,
,,5f88877885e51d02acd71b12,2022-09-09_02h25.01.117,CGTgamblingSpanTasks,2022.2.1,Win32,59.54153022,,,,,,,,,,,,,,,,,,,,,,,,,,,,,,,,,,,,,,,,,,,,,,,,,,,,,,,,,,,,,,,,,,,,,,,,,,,,,,,,,,"[4,6,8,5,3]",,,,,,,,,,,,,,,,,,,,,,,,,,,,,,,,,,,,,4,0,4,0,1,,,,,,,,,,,,
,,5f88877885e51d02acd71b12,2022-09-09_02h25.01.117,CGTgamblingSpanTasks,2022.2.1,Win32,59.54153022,,,,,,,,,,,,,,,,,,,,,,,,,,,,,,,,,,,,,,,,,,,,,,,,,,,,,,,,,,,,,,,0,,,,,,,,,,,,,,,,,,,,,,,,,,,,,,,,,,,,,5,,,,,,,,,,,,,,,,,,,,,,,,346895,0.045572917,-0.416666667,1,0,0,cont_buttonBS,0,4,4,4,1
,,5f88877885e51d02acd71b12,2022-09-09_02h25.01.117,CGTgamblingSpanTasks,2022.2.1,Win32,59.54153022,,,,,,,,,,,,,,,,,,,,,,,,,,,,,,,,,,,,,,,,,,,,,,,,,,,,,,,,,,,,,,,,,,,,,,,,,,,,,,,,,,"[4,9,7,1]",,,,,,,,,,,,,,,,,,,,,,,,,,,,,,,,,,,,,0,0,0,0,1,,,,,,,,,,,,
,,5f88877885e51d02acd71b12,2022-09-09_02h25.01.117,CGTgamblingSpanTasks,2022.2.1,Win32,59.54153022,,,,,,,,,,,,,,,,,,,,,,,,,,,,,,,,,,,,,,,,,,,,,,,,,,,,,,,,,,,,,,,,,,,,,,,,,,,,,,,,,,"[4,9,7,1]",,,,,,,,,,,,,,,,,,,,,,,,,,,,,,,,,,,,,1,0,1,0,1,,,,,,,,,,,,
,,5f88877885e51d02acd71b12,2022-09-09_02h25.01.117,CGTgamblingSpanTasks,2022.2.1,Win32,59.54153022,,,,,,,,,,,,,,,,,,,,,,,,,,,,,,,,,,,,,,,,,,,,,,,,,,,,,,,,,,,,,,,,,,,,,,,,,,,,,,,,,,"[4,9,7,1]",,,,,,,,,,,,,,,,,,,,,,,,,,,,,,,,,,,,,2,0,2,0,1,,,,,,,,,,,,
,,5f88877885e51d02acd71b12,2022-09-09_02h25.01.117,CGTgamblingSpanTasks,2022.2.1,Win32,59.54153022,,,,,,,,,,,,,,,,,,,,,,,,,,,,,,,,,,,,,,,,,,,,,,,,,,,,,,,,,,,,,,,,,,,,,,,,,,,,,,,,,,"[4,9,7,1]",,,,,,,,,,,,,,,,,,,,,,,,,,,,,,,,,,,,,3,0,3,0,1,,,,,,,,,,,,
,,5f88877885e51d02acd71b12,2022-09-09_02h25.01.117,CGTgamblingSpanTasks,2022.2.1,Win32,59.54153022,,,,,,,,,,,,,,,,,,,,,,,,,,,,,,,,,,,,,,,,,,,,,,,,,,,,,,,,,,,,,,,0,,,,,,,,,,,,,,,,,,,,,,,,,,,,,,,,,,,,,6,,,,,,,,,,,,,,,,,,,,,,,,1974,0.045572917,-0.416666667,1,0,0,cont_buttonBS,0,5,5,5,1
,,5f88877885e51d02acd71b12,2022-09-09_02h25.01.117,CGTgamblingSpanTasks,2022.2.1,Win32,59.54153022,,,,,,,,,,,,,,,,,,,,,,,,,,,,,,,,,,,,,,,,,,,,,,,,,,,,,,,,,,,,,,,,,,,,,,,,,,,,,,,,,,"[4,7,2,1]",,,,,,,,,,,,,,,,,,,,,,,,,,,,,,,,,,,,,0,0,0,0,1,,,,,,,,,,,,
,,5f88877885e51d02acd71b12,2022-09-09_02h25.01.117,CGTgamblingSpanTasks,2022.2.1,Win32,59.54153022,,,,,,,,,,,,,,,,,,,,,,,,,,,,,,,,,,,,,,,,,,,,,,,,,,,,,,,,,,,,,,,,,,,,,,,,,,,,,,,,,,"[4,7,2,1]",,,,,,,,,,,,,,,,,,,,,,,,,,,,,,,,,,,,,1,0,1,0,1,,,,,,,,,,,,
,,5f88877885e51d02acd71b12,2022-09-09_02h25.01.117,CGTgamblingSpanTasks,2022.2.1,Win32,59.54153022,,,,,,,,,,,,,,,,,,,,,,,,,,,,,,,,,,,,,,,,,,,,,,,,,,,,,,,,,,,,,,,,,,,,,,,,,,,,,,,,,,"[4,7,2,1]",,,,,,,,,,,,,,,,,,,,,,,,,,,,,,,,,,,,,2,0,2,0,1,,,,,,,,,,,,
,,5f88877885e51d02acd71b12,2022-09-09_02h25.01.117,CGTgamblingSpanTasks,2022.2.1,Win32,59.54153022,,,,,,,,,,,,,,,,,,,,,,,,,,,,,,,,,,,,,,,,,,,,,,,,,,,,,,,,,,,,,,,,,,,,,,,,,,,,,,,,,,"[4,7,2,1]",,,,,,,,,,,,,,,,,,,,,,,,,,,,,,,,,,,,,3,0,3,0,1,,,,,,,,,,,,
,,5f88877885e51d02acd71b12,2022-09-09_02h25.01.117,CGTgamblingSpanTasks,2022.2.1,Win32,59.54153022,,,,,,,,,,,,,,,,,,,,,,,,,,,,,,,,,,,,,,,,,,,,,,,,,,,,,,,,,,,,,,,1,,,,,,,,,,,,,,,,,,,,,,,,,,,,,,,,,,,,,7,,,,,,,,,,,,,,,,,,,,,,,,1274,0.045572917,-0.416666667,1,0,0,cont_buttonBS,0,6,6,6,1
,,5f88877885e51d02acd71b12,2022-09-09_02h25.01.117,CGTgamblingSpanTasks,2022.2.1,Win32,59.54153022,,,,,,,,,,,,,,,,,,,,,,,,,,,,,,,,,,,,,,,,,,,,,,,,,,,,,,,,,,,,,,,,,,,,,,,,,,,,,,,,,,"[9,2,4,8,5]",,,,,,,,,,,,,,,,,,,,,,,,,,,,,,,,,,,,,0,0,0,0,1,,,,,,,,,,,,
,,5f88877885e51d02acd71b12,2022-09-09_02h25.01.117,CGTgamblingSpanTasks,2022.2.1,Win32,59.54153022,,,,,,,,,,,,,,,,,,,,,,,,,,,,,,,,,,,,,,,,,,,,,,,,,,,,,,,,,,,,,,,,,,,,,,,,,,,,,,,,,,"[9,2,4,8,5]",,,,,,,,,,,,,,,,,,,,,,,,,,,,,,,,,,,,,1,0,1,0,1,,,,,,,,,,,,
,,5f88877885e51d02acd71b12,2022-09-09_02h25.01.117,CGTgamblingSpanTasks,2022.2.1,Win32,59.54153022,,,,,,,,,,,,,,,,,,,,,,,,,,,,,,,,,,,,,,,,,,,,,,,,,,,,,,,,,,,,,,,,,,,,,,,,,,,,,,,,,,"[9,2,4,8,5]",,,,,,,,,,,,,,,,,,,,,,,,,,,,,,,,,,,,,2,0,2,0,1,,,,,,,,,,,,
,,5f88877885e51d02acd71b12,2022-09-09_02h25.01.117,CGTgamblingSpanTasks,2022.2.1,Win32,59.54153022,,,,,,,,,,,,,,,,,,,,,,,,,,,,,,,,,,,,,,,,,,,,,,,,,,,,,,,,,,,,,,,,,,,,,,,,,,,,,,,,,,"[9,2,4,8,5]",,,,,,,,,,,,,,,,,,,,,,,,,,,,,,,,,,,,,3,0,3,0,1,,,,,,,,,,,,
,,5f88877885e51d02acd71b12,2022-09-09_02h25.01.117,CGTgamblingSpanTasks,2022.2.1,Win32,59.54153022,,,,,,,,,,,,,,,,,,,,,,,,,,,,,,,,,,,,,,,,,,,,,,,,,,,,,,,,,,,,,,,,,,,,,,,,,,,,,,,,,,"[9,2,4,8,5]",,,,,,,,,,,,,,,,,,,,,,,,,,,,,,,,,,,,,4,0,4,0,1,,,,,,,,,,,,
,,5f88877885e51d02acd71b12,2022-09-09_02h25.01.117,CGTgamblingSpanTasks,2022.2.1,Win32,59.54153022,,,,,,,,,,,,,,,,,,,,,,,,,,,,,,,,,,,,,,,,,,,,,,,,,,,,,,,,,,,,,,,0,,,,,,,,,,,,,,,,,,,,,,,,,,,,,,,,,,,,,8,,,,,,,,,,,,,,,,,,,,,,,,58294,0.045572917,-0.416666667,1,0,0,cont_buttonBS,0,7,7,7,1
,,5f88877885e51d02acd71b12,2022-09-09_02h25.01.117,CGTgamblingSpanTasks,2022.2.1,Win32,59.54153022,,,,,,,,,,,,,,,,,,,,,,,,,,,,,,,,,,,,,,,,,,,,,,,,,,,,,,,,,,,,,,,,,,,,,,,,,,,,,,,,,,"[1,8,6,7,9]",,,,,,,,,,,,,,,,,,,,,,,,,,,,,,,,,,,,,0,0,0,0,1,,,,,,,,,,,,
,,5f88877885e51d02acd71b12,2022-09-09_02h25.01.117,CGTgamblingSpanTasks,2022.2.1,Win32,59.54153022,,,,,,,,,,,,,,,,,,,,,,,,,,,,,,,,,,,,,,,,,,,,,,,,,,,,,,,,,,,,,,,,,,,,,,,,,,,,,,,,,,"[1,8,6,7,9]",,,,,,,,,,,,,,,,,,,,,,,,,,,,,,,,,,,,,1,0,1,0,1,,,,,,,,,,,,
,,5f88877885e51d02acd71b12,2022-09-09_02h25.01.117,CGTgamblingSpanTasks,2022.2.1,Win32,59.54153022,,,,,,,,,,,,,,,,,,,,,,,,,,,,,,,,,,,,,,,,,,,,,,,,,,,,,,,,,,,,,,,,,,,,,,,,,,,,,,,,,,"[1,8,6,7,9]",,,,,,,,,,,,,,,,,,,,,,,,,,,,,,,,,,,,,2,0,2,0,1,,,,,,,,,,,,
,,5f88877885e51d02acd71b12,2022-09-09_02h25.01.117,CGTgamblingSpanTasks,2022.2.1,Win32,59.54153022,,,,,,,,,,,,,,,,,,,,,,,,,,,,,,,,,,,,,,,,,,,,,,,,,,,,,,,,,,,,,,,,,,,,,,,,,,,,,,,,,,"[1,8,6,7,9]",,,,,,,,,,,,,,,,,,,,,,,,,,,,,,,,,,,,,3,0,3,0,1,,,,,,,,,,,,
,,5f88877885e51d02acd71b12,2022-09-09_02h25.01.117,CGTgamblingSpanTasks,2022.2.1,Win32,59.54153022,,,,,,,,,,,,,,,,,,,,,,,,,,,,,,,,,,,,,,,,,,,,,,,,,,,,,,,,,,,,,,,,,,,,,,,,,,,,,,,,,,"[1,8,6,7,9]",,,,,,,,,,,,,,,,,,,,,,,,,,,,,,,,,,,,,4,0,4,0,1,,,,,,,,,,,,
,,5f88877885e51d02acd71b12,2022-09-09_02h25.01.117,CGTgamblingSpanTasks,2022.2.1,Win32,59.54153022,,,,,,,,,,,,,,,,,,,,,,,,,,,,,,,,,,,,,,,,,,,,,,,,,,,,,,,,,,,,,,,0,,,,,,,,,,,,,,,,,,,,,,,,,,,,,,,,,,,,,9,,,,,,,,,,,,,,,,,,,,,,,,97854,0.045572917,-0.416666667,1,0,0,cont_buttonBS,0,8,8,8,1
,,5f88877885e51d02acd71b12,2022-09-09_02h25.01.117,CGTgamblingSpanTasks,2022.2.1,Win32,59.54153022,,,,,,,,,,,,,,,,,,,,,,,,,,,,,,,,,,,,,,,,,,,,,,,,,,,,,,,,,,,,,,,,,,,,,,,,,,,,,,,,,,"[8,3,1,5]",,,,,,,,,,,,,,,,,,,,,,,,,,,,,,,,,,,,,0,0,0,0,1,,,,,,,,,,,,
,,5f88877885e51d02acd71b12,2022-09-09_02h25.01.117,CGTgamblingSpanTasks,2022.2.1,Win32,59.54153022,,,,,,,,,,,,,,,,,,,,,,,,,,,,,,,,,,,,,,,,,,,,,,,,,,,,,,,,,,,,,,,,,,,,,,,,,,,,,,,,,,"[8,3,1,5]",,,,,,,,,,,,,,,,,,,,,,,,,,,,,,,,,,,,,1,0,1,0,1,,,,,,,,,,,,
,,5f88877885e51d02acd71b12,2022-09-09_02h25.01.117,CGTgamblingSpanTasks,2022.2.1,Win32,59.54153022,,,,,,,,,,,,,,,,,,,,,,,,,,,,,,,,,,,,,,,,,,,,,,,,,,,,,,,,,,,,,,,,,,,,,,,,,,,,,,,,,,"[8,3,1,5]",,,,,,,,,,,,,,,,,,,,,,,,,,,,,,,,,,,,,2,0,2,0,1,,,,,,,,,,,,
