initITIstatic,initITIdynamic,participant,date,expName,psychopyVersion,OS,frameRate,inst1.keys,inst1.rt,startPracResp.keys,startPracResp.rt,choice1.keys,choice1.rt,outcome,extraITI,trials.thisRepN,trials.thisTrialN,trials.thisN,trials.thisIndex,trials.ran,riskyGain,riskyLoss,alternative,isi,iti,loc,postPractResp.keys,postPractResp.rt,realloc,realChoice.keys,realChoice.rt,outcomes,choices,actualITI,init ITI,staticRDM.thisRepN,staticRDM.thisTrialN,staticRDM.thisN,staticRDM.thisIndex,staticRDM.ran,riskyoption1,riskyoption2,safeoption,ischecktrial,dynamicChoiceSetName,dynamicChoiceSetPath,bestRho,bestMu,trials_2.thisRepN,trials_2.thisTrialN,trials_2.thisN,trials_2.thisIndex,trials_2.ran,key_resp.keys,key_resp.rt,dynamicRDM.thisRepN,dynamicRDM.thisTrialN,dynamicRDM.thisN,dynamicRDM.thisIndex,dynamicRDM.ran,choiceP,easy0difficult1,stopBreak.keys,stopBreak.rt,movealong.keys,movealong.rt,startPractice.keys,startPractice.rt,textboxPractice.text,correct,mousePractice.x,mousePractice.y,mousePractice.leftButton,mousePractice.midButton,mousePractice.rightButton,mousePractice.clicked_name,trialFSPractice.thisRepN,trialFSPractice.thisTrialN,trialFSPractice.thisN,trialFSPractice.thisIndex,trialFSPractice.ran,digitSpanForward,digits,digitsReverse,digitSpanReverse,digitsReverseCorrAnswer,startFSreal.keys,startFSreal.rt,digitsForTrial,digitLoop.thisRepN,digitLoop.thisTrialN,digitLoop.thisN,digitLoop.thisIndex,digitLoop.ran,textbox.text,mouse_3.x,mouse_3.y,mouse_3.leftButton,mouse_3.midButton,mouse_3.rightButton,mouse_3.clicked_name,trialsFS.thisRepN,trialsFS.thisTrialN,trialsFS.thisN,trialsFS.thisIndex,trialsFS.ran,trialNumber,moveToBS.keys,moveToBS.rt,startBSprac.keys,startBSprac.rt,textboxPractice_2.text,mousePractice_2.x,mousePractice_2.y,mousePractice_2.leftButton,mousePractice_2.midButton,mousePractice_2.rightButton,mousePractice_2.clicked_name,trialsPracticeBS.thisRepN,trialsPracticeBS.thisTrialN,trialsPracticeBS.thisN,trialsPracticeBS.thisIndex,trialsPracticeBS.ran,startBSreal.keys,startBSreal.rt,digitLoopBS.thisRepN,digitLoopBS.thisTrialN,digitLoopBS.thisN,digitLoopBS.thisIndex,digitLoopBS.ran,textboxBS.text,mouseBS.x,mouseBS.y,mouseBS.leftButton,mouseBS.midButton,mouseBS.rightButton,mouseBS.clicked_name,trialsBS.thisRepN,trialsBS.thisTrialN,trialsBS.thisN,trialsBS.thisIndex,trialsBS.ran
"[1.5,1.5,1,1,1.5,1.5,1.5,1.5,1,1,1,1.5,1,1,1.5,1,1.5,1,1.5,1,1.5,1.5,1.5,1.5,1.5,1,1,1,1.5,1,1.5,1.5,1,1.5,1,1,1.5,1.5,1,1,1,1,1.5,1,1.5,1.5,1.5,1,1,1]","[1,1,1,1.5,1,1,1.5,1.5,1,1.5,1.5,1,1.5,1,1.5,1,1.5,1.5,1,1.5,1,1.5,1.5,1,1,1,1,1.5,1,1,1.5,1,1.5,1,1.5,1,1,1.5,1.5,1,1,1.5,1,1.5,1,1,1.5,1.5,1.5,1,1.5,1,1,1.5,1.5,1.5,1,1,1,1,1,1,1.5,1,1,1.5,1,1,1.5,1.5,1.5,1.5,1.5,1,1.5,1.5,1,1,1.5,1.5,1,1,1,1.5,1.5,1.5,1.5,1,1.5,1.5,1.5,1,1.5,1.5,1.5,1,1.5,1,1.5,1.5,1,1.5,1,1.5,1,1,1,1.5,1,1,1.5,1.5,1,1.5,1.5,1,1.5,1,1.5,1]",6150b927614a4f154f311f9d,2022-09-08_14h36.39.712,CGTgamblingSpanTasks,2022.2.1,Win32,59.93766483,,,,,,,,,,,,,,,,,,,,,,,,,,,,,,,,,,,,,,,,,,,,,,,,,,,,,,,,,,,,,,,,,,,,,,,,,,,,,,,,,,,,,,,,,,,,,,,,,,,,,,,,,,,,,,,,,,,,,,,,,,,,,,,,,,,,,,,
,,6150b927614a4f154f311f9d,2022-09-08_14h36.39.712,CGTgamblingSpanTasks,2022.2.1,Win32,59.93766483,return,1015.2788,,,,,,,,,,,,,,,,,,,,,,,,,,,,,,,,,,,,,,,,,,,,,,,,,,,,,,,,,,,,,,,,,,,,,,,,,,,,,,,,,,,,,,,,,,,,,,,,,,,,,,,,,,,,,,,,,,,,,,,,,,,,,,,,,,,,,
,,6150b927614a4f154f311f9d,2022-09-08_14h36.39.712,CGTgamblingSpanTasks,2022.2.1,Win32,59.93766483,,,v,10.6848,,,,,,,,,,,,,,,,,,,,,,,,,,,,,,,,,,,,,,,,,,,,,,,,,,,,,,,,,,,,,,,,,,,,,,,,,,,,,,,,,,,,,,,,,,,,,,,,,,,,,,,,,,,,,,,,,,,,,,,,,,,,,,,,,,,
,,6150b927614a4f154f311f9d,2022-09-08_14h36.39.712,CGTgamblingSpanTasks,2022.2.1,Win32,59.93766483,,,,,v,2.6666,18.23,1.3334,0,0,0,0,1,18.23,0,9.45,2,1,1,,,,,,,,,,,,,,,,,,,,,,,,,,,,,,,,,,,,,,,,,,,,,,,,,,,,,,,,,,,,,,,,,,,,,,,,,,,,,,,,,,,,,,,,,,,,,,,,,,,,,,,,,,,,,,,,,,,,
,,6150b927614a4f154f311f9d,2022-09-08_14h36.39.712,CGTgamblingSpanTasks,2022.2.1,Win32,59.93766483,,,,,,, ,0,0,1,1,1,1,53.27,0,35.16,1,1.5,1,,,,,,,,,,,,,,,,,,,,,,,,,,,,,,,,,,,,,,,,,,,,,,,,,,,,,,,,,,,,,,,,,,,,,,,,,,,,,,,,,,,,,,,,,,,,,,,,,,,,,,,,,,,,,,,,,,,,
,,6150b927614a4f154f311f9d,2022-09-08_14h36.39.712,CGTgamblingSpanTasks,2022.2.1,Win32,59.93766483,,,,,n,2.0858,0,1.9142,0,2,2,2,1,8.27,0,1.15,1,1.5,2,,,,,,,,,,,,,,,,,,,,,,,,,,,,,,,,,,,,,,,,,,,,,,,,,,,,,,,,,,,,,,,,,,,,,,,,,,,,,,,,,,,,,,,,,,,,,,,,,,,,,,,,,,,,,,,,,,,,
,,6150b927614a4f154f311f9d,2022-09-08_14h36.39.712,CGTgamblingSpanTasks,2022.2.1,Win32,59.93766483,,,,,v,1.9234,45.88,2.0766,0,3,3,3,1,45.88,0,40.41,3,1,1,,,,,,,,,,,,,,,,,,,,,,,,,,,,,,,,,,,,,,,,,,,,,,,,,,,,,,,,,,,,,,,,,,,,,,,,,,,,,,,,,,,,,,,,,,,,,,,,,,,,,,,,,,,,,,,,,,,,
,,6150b927614a4f154f311f9d,2022-09-08_14h36.39.712,CGTgamblingSpanTasks,2022.2.1,Win32,59.93766483,,,,,n,1.9038,0,2.0962,0,4,4,4,1,21.56,0,11.96,1,1.5,2,,,,,,,,,,,,,,,,,,,,,,,,,,,,,,,,,,,,,,,,,,,,,,,,,,,,,,,,,,,,,,,,,,,,,,,,,,,,,,,,,,,,,,,,,,,,,,,,,,,,,,,,,,,,,,,,,,,,
,,6150b927614a4f154f311f9d,2022-09-08_14h36.39.712,CGTgamblingSpanTasks,2022.2.1,Win32,59.93766483,,,,,,,,,,,,,,,,,,,,v,68.6068,,,,,,,,,,,,,,,,,,,,,,,,,,,,,,,,,,,,,,,,,,,,,,,,,,,,,,,,,,,,,,,,,,,,,,,,,,,,,,,,,,,,,,,,,,,,,,,,,,,,,,,,,,,,,,,,,,
,,6150b927614a4f154f311f9d,2022-09-08_14h36.39.712,CGTgamblingSpanTasks,2022.2.1,Win32,59.93766483,,,,,,,,1.6261,,,,,,,,,,,,,,1,n,2.3739,7.73,0,3.1261,1.5,0,0,0,9,1,20.53,0,7.73,0,,,,,,,,,,,,,,,,,,,,,,,,,,,,,,,,,,,,,,,,,,,,,,,,,,,,,,,,,,,,,,,,,,,,,,,,,,,,,,,,,,,,,,,,,,,,,,,,,,
,,6150b927614a4f154f311f9d,2022-09-08_14h36.39.712,CGTgamblingSpanTasks,2022.2.1,Win32,59.93766483,,,,,,,,2.6464,,,,,,,,,,,,,,2,n,1.3536,0,1,4.1464,1.5,0,1,1,11,1,19.86,0,8.07,0,,,,,,,,,,,,,,,,,,,,,,,,,,,,,,,,,,,,,,,,,,,,,,,,,,,,,,,,,,,,,,,,,,,,,,,,,,,,,,,,,,,,,,,,,,,,,,,,,,
,,6150b927614a4f154f311f9d,2022-09-08_14h36.39.712,CGTgamblingSpanTasks,2022.2.1,Win32,59.93766483,,,,,,,,2.0222,,,,,,,,,,,,,,1,n,1.9778,4.64,0,3.0222,1,0,2,2,6,1,14.72,0,4.64,0,,,,,,,,,,,,,,,,,,,,,,,,,,,,,,,,,,,,,,,,,,,,,,,,,,,,,,,,,,,,,,,,,,,,,,,,,,,,,,,,,,,,,,,,,,,,,,,,,,
,,6150b927614a4f154f311f9d,2022-09-08_14h36.39.712,CGTgamblingSpanTasks,2022.2.1,Win32,59.93766483,,,,,,,,1.7137,,,,,,,,,,,,,,1,n,2.2863,10.15,0,2.7137,1,0,3,3,33,1,15.7,0,10.15,0,,,,,,,,,,,,,,,,,,,,,,,,,,,,,,,,,,,,,,,,,,,,,,,,,,,,,,,,,,,,,,,,,,,,,,,,,,,,,,,,,,,,,,,,,,,,,,,,,,
,,6150b927614a4f154f311f9d,2022-09-08_14h36.39.712,CGTgamblingSpanTasks,2022.2.1,Win32,59.93766483,,,,,,,,1.6487,,,,,,,,,,,,,,1,v,2.3513,0,1,3.1487,1.5,0,4,4,23,1,17.28,0,9.36,0,,,,,,,,,,,,,,,,,,,,,,,,,,,,,,,,,,,,,,,,,,,,,,,,,,,,,,,,,,,,,,,,,,,,,,,,,,,,,,,,,,,,,,,,,,,,,,,,,,
,,6150b927614a4f154f311f9d,2022-09-08_14h36.39.712,CGTgamblingSpanTasks,2022.2.1,Win32,59.93766483,,,,,,,,2.1444,,,,,,,,,,,,,,1,v,1.8556,28.21,1,3.6444,1.5,0,5,5,1,1,28.21,0,3.89,0,,,,,,,,,,,,,,,,,,,,,,,,,,,,,,,,,,,,,,,,,,,,,,,,,,,,,,,,,,,,,,,,,,,,,,,,,,,,,,,,,,,,,,,,,,,,,,,,,,
,,6150b927614a4f154f311f9d,2022-09-08_14h36.39.712,CGTgamblingSpanTasks,2022.2.1,Win32,59.93766483,,,,,,,,1.997,,,,,,,,,,,,,,2,n,2.003,0,1,3.497,1.5,0,6,6,2,1,17.73,0,3.13,0,,,,,,,,,,,,,,,,,,,,,,,,,,,,,,,,,,,,,,,,,,,,,,,,,,,,,,,,,,,,,,,,,,,,,,,,,,,,,,,,,,,,,,,,,,,,,,,,,,
,,6150b927614a4f154f311f9d,2022-09-08_14h36.39.712,CGTgamblingSpanTasks,2022.2.1,Win32,59.93766483,,,,,,,,1.1933,,,,,,,,,,,,,,2,v,2.8067,6.53,0,2.6933,1.5,0,7,7,28,1,10.95,0,6.53,0,,,,,,,,,,,,,,,,,,,,,,,,,,,,,,,,,,,,,,,,,,,,,,,,,,,,,,,,,,,,,,,,,,,,,,,,,,,,,,,,,,,,,,,,,,,,,,,,,,
,,6150b927614a4f154f311f9d,2022-09-08_14h36.39.712,CGTgamblingSpanTasks,2022.2.1,Win32,59.93766483,,,,,,,,0.2613,,,,,,,,,,,,,,2,v,3.7387,5.96,0,1.2613,1,0,8,8,18,1,12.08,0,5.96,0,,,,,,,,,,,,,,,,,,,,,,,,,,,,,,,,,,,,,,,,,,,,,,,,,,,,,,,,,,,,,,,,,,,,,,,,,,,,,,,,,,,,,,,,,,,,,,,,,,
,,6150b927614a4f154f311f9d,2022-09-08_14h36.39.712,CGTgamblingSpanTasks,2022.2.1,Win32,59.93766483,,,,,,,,2.1537,,,,,,,,,,,,,,1,v,1.8463,20.03,1,3.1537,1,0,9,9,0,1,20.03,0,1.99,0,,,,,,,,,,,,,,,,,,,,,,,,,,,,,,,,,,,,,,,,,,,,,,,,,,,,,,,,,,,,,,,,,,,,,,,,,,,,,,,,,,,,,,,,,,,,,,,,,,
,,6150b927614a4f154f311f9d,2022-09-08_14h36.39.712,CGTgamblingSpanTasks,2022.2.1,Win32,59.93766483,,,,,,,,0.9971,,,,,,,,,,,,,,1,v,3.0029,0,1,1.9971,1,0,10,10,10,1,13.45,0,5.27,0,,,,,,,,,,,,,,,,,,,,,,,,,,,,,,,,,,,,,,,,,,,,,,,,,,,,,,,,,,,,,,,,,,,,,,,,,,,,,,,,,,,,,,,,,,,,,,,,,,
,,6150b927614a4f154f311f9d,2022-09-08_14h36.39.712,CGTgamblingSpanTasks,2022.2.1,Win32,59.93766483,,,,,,,,2.0805,,,,,,,,,,,,,,1,v,1.9195,13.94,1,3.5805,1.5,0,11,11,8,1,13.94,0,5.03,0,,,,,,,,,,,,,,,,,,,,,,,,,,,,,,,,,,,,,,,,,,,,,,,,,,,,,,,,,,,,,,,,,,,,,,,,,,,,,,,,,,,,,,,,,,,,,,,,,,
,,6150b927614a4f154f311f9d,2022-09-08_14h36.39.712,CGTgamblingSpanTasks,2022.2.1,Win32,59.93766483,,,,,,,,2.2792,,,,,,,,,,,,,,1,n,1.7208,3.13,0,3.2792,1,0,12,12,47,1,0,0,3.13,1,,,,,,,,,,,,,,,,,,,,,,,,,,,,,,,,,,,,,,,,,,,,,,,,,,,,,,,,,,,,,,,,,,,,,,,,,,,,,,,,,,,,,,,,,,,,,,,,,,
,,6150b927614a4f154f311f9d,2022-09-08_14h36.39.712,CGTgamblingSpanTasks,2022.2.1,Win32,59.93766483,,,,,,,,2.5804,,,,,,,,,,,,,,1,v,1.4196,0,1,3.5804,1,0,13,13,39,1,15.09,0,10.46,0,,,,,,,,,,,,,,,,,,,,,,,,,,,,,,,,,,,,,,,,,,,,,,,,,,,,,,,,,,,,,,,,,,,,,,,,,,,,,,,,,,,,,,,,,,,,,,,,,,
,,6150b927614a4f154f311f9d,2022-09-08_14h36.39.712,CGTgamblingSpanTasks,2022.2.1,Win32,59.93766483,,,,,,,,1.5279,,,,,,,,,,,,,,1,n,2.4721,6.08,0,3.0279,1.5,0,14,14,20,1,11.84,0,6.08,0,,,,,,,,,,,,,,,,,,,,,,,,,,,,,,,,,,,,,,,,,,,,,,,,,,,,,,,,,,,,,,,,,,,,,,,,,,,,,,,,,,,,,,,,,,,,,,,,,,
,,6150b927614a4f154f311f9d,2022-09-08_14h36.39.712,CGTgamblingSpanTasks,2022.2.1,Win32,59.93766483,,,,,,,,2.7293,,,,,,,,,,,,,,1,n,1.2707,9.92,0,3.7293,1,0,15,15,49,1,6.79,0,9.92,1,,,,,,,,,,,,,,,,,,,,,,,,,,,,,,,,,,,,,,,,,,,,,,,,,,,,,,,,,,,,,,,,,,,,,,,,,,,,,,,,,,,,,,,,,,,,,,,,,,
,,6150b927614a4f154f311f9d,2022-09-08_14h36.39.712,CGTgamblingSpanTasks,2022.2.1,Win32,59.93766483,,,,,,,,2.9268,,,,,,,,,,,,,,2,n,1.0732,15.96,1,4.4268,1.5,0,16,16,31,1,15.96,0,10.02,0,,,,,,,,,,,,,,,,,,,,,,,,,,,,,,,,,,,,,,,,,,,,,,,,,,,,,,,,,,,,,,,,,,,,,,,,,,,,,,,,,,,,,,,,,,,,,,,,,,
,,6150b927614a4f154f311f9d,2022-09-08_14h36.39.712,CGTgamblingSpanTasks,2022.2.1,Win32,59.93766483,,,,,,,,2.9775,,,,,,,,,,,,,,1,v,1.0225,0,1,3.9775,1,0,17,17,17,1,18.33,0,8.84,0,,,,,,,,,,,,,,,,,,,,,,,,,,,,,,,,,,,,,,,,,,,,,,,,,,,,,,,,,,,,,,,,,,,,,,,,,,,,,,,,,,,,,,,,,,,,,,,,,,
,,6150b927614a4f154f311f9d,2022-09-08_14h36.39.712,CGTgamblingSpanTasks,2022.2.1,Win32,59.93766483,,,,,,,,0.8103,,,,,,,,,,,,,,1,n,3.1897,6.4,0,2.3103,1.5,0,18,18,26,1,11.2,0,6.4,0,,,,,,,,,,,,,,,,,,,,,,,,,,,,,,,,,,,,,,,,,,,,,,,,,,,,,,,,,,,,,,,,,,,,,,,,,,,,,,,,,,,,,,,,,,,,,,,,,,
,,6150b927614a4f154f311f9d,2022-09-08_14h36.39.712,CGTgamblingSpanTasks,2022.2.1,Win32,59.93766483,,,,,,,,2.9141,,,,,,,,,,,,,,2,n,1.0859,16.26,1,3.9141,1,0,19,19,29,1,16.26,0,9.87,0,,,,,,,,,,,,,,,,,,,,,,,,,,,,,,,,,,,,,,,,,,,,,,,,,,,,,,,,,,,,,,,,,,,,,,,,,,,,,,,,,,,,,,,,,,,,,,,,,,
,,6150b927614a4f154f311f9d,2022-09-08_14h36.39.712,CGTgamblingSpanTasks,2022.2.1,Win32,59.93766483,,,,,,,,2.594,,,,,,,,,,,,,,2,v,1.406,6.88,0,4.094,1.5,0,20,20,36,1,10.24,0,6.88,0,,,,,,,,,,,,,,,,,,,,,,,,,,,,,,,,,,,,,,,,,,,,,,,,,,,,,,,,,,,,,,,,,,,,,,,,,,,,,,,,,,,,,,,,,,,,,,,,,,
,,6150b927614a4f154f311f9d,2022-09-08_14h36.39.712,CGTgamblingSpanTasks,2022.2.1,Win32,59.93766483,,,,,,,,2.2636,,,,,,,,,,,,,,2,n,1.7364,0,1,3.7636,1.5,0,21,21,41,1,14.26,0,0,1,,,,,,,,,,,,,,,,,,,,,,,,,,,,,,,,,,,,,,,,,,,,,,,,,,,,,,,,,,,,,,,,,,,,,,,,,,,,,,,,,,,,,,,,,,,,,,,,,,
,,6150b927614a4f154f311f9d,2022-09-08_14h36.39.712,CGTgamblingSpanTasks,2022.2.1,Win32,59.93766483,,,,,,,,0,,,,,,,,,,,,,,1,,,,,1.5,1.5,0,22,22,22,1,11.62,0,6.19,0,,,,,,,,,,,,,,,,,,,,,,,,,,,,,,,,,,,,,,,,,,,,,,,,,,,,,,,,,,,,,,,,,,,,,,,,,,,,,,,,,,,,,,,,,,,,,,,,,,
,,6150b927614a4f154f311f9d,2022-09-08_14h36.39.712,CGTgamblingSpanTasks,2022.2.1,Win32,59.93766483,,,,,,,,1.6833,,,,,,,,,,,,,,1,v,2.3167,0,1,3.1833,1.5,0,23,23,7,1,21.32,0,7.34,0,,,,,,,,,,,,,,,,,,,,,,,,,,,,,,,,,,,,,,,,,,,,,,,,,,,,,,,,,,,,,,,,,,,,,,,,,,,,,,,,,,,,,,,,,,,,,,,,,,
,,6150b927614a4f154f311f9d,2022-09-08_14h36.39.712,CGTgamblingSpanTasks,2022.2.1,Win32,59.93766483,,,,,,,,2.2283,,,,,,,,,,,,,,1,v,1.7717,0,1,3.7283,1.5,0,24,24,37,1,15.27,0,10.37,0,,,,,,,,,,,,,,,,,,,,,,,,,,,,,,,,,,,,,,,,,,,,,,,,,,,,,,,,,,,,,,,,,,,,,,,,,,,,,,,,,,,,,,,,,,,,,,,,,,
,,6150b927614a4f154f311f9d,2022-09-08_14h36.39.712,CGTgamblingSpanTasks,2022.2.1,Win32,59.93766483,,,,,,,,1.4619,,,,,,,,,,,,,,1,n,2.5381,6.63,0,2.4619,1,0,25,25,30,1,10.73,0,6.63,0,,,,,,,,,,,,,,,,,,,,,,,,,,,,,,,,,,,,,,,,,,,,,,,,,,,,,,,,,,,,,,,,,,,,,,,,,,,,,,,,,,,,,,,,,,,,,,,,,,
,,6150b927614a4f154f311f9d,2022-09-08_14h36.39.712,CGTgamblingSpanTasks,2022.2.1,Win32,59.93766483,,,,,,,,1.7173,,,,,,,,,,,,,,1,v,2.2827,0,1,2.7173,1,0,26,26,40,1,10.35,0,0,1,,,,,,,,,,,,,,,,,,,,,,,,,,,,,,,,,,,,,,,,,,,,,,,,,,,,,,,,,,,,,,,,,,,,,,,,,,,,,,,,,,,,,,,,,,,,,,,,,,
,,6150b927614a4f154f311f9d,2022-09-08_14h36.39.712,CGTgamblingSpanTasks,2022.2.1,Win32,59.93766483,,,,,,,,1.9287,,,,,,,,,,,,,,2,v,2.0713,6.94,0,2.9287,1,0,27,27,38,1,10.12,0,6.94,0,,,,,,,,,,,,,,,,,,,,,,,,,,,,,,,,,,,,,,,,,,,,,,,,,,,,,,,,,,,,,,,,,,,,,,,,,,,,,,,,,,,,,,,,,,,,,,,,,,
,,6150b927614a4f154f311f9d,2022-09-08_14h36.39.712,CGTgamblingSpanTasks,2022.2.1,Win32,59.93766483,,,,,,,,1.7836,,,,,,,,,,,,,,1,v,2.2164,0,1,3.2836,1.5,0,28,28,15,1,18.77,0,8.61,0,,,,,,,,,,,,,,,,,,,,,,,,,,,,,,,,,,,,,,,,,,,,,,,,,,,,,,,,,,,,,,,,,,,,,,,,,,,,,,,,,,,,,,,,,,,,,,,,,,
,,6150b927614a4f154f311f9d,2022-09-08_14h36.39.712,CGTgamblingSpanTasks,2022.2.1,Win32,59.93766483,,,,,,,,0.89,,,,,,,,,,,,,,1,v,3.11,7.73,1,1.89,1,0,29,29,44,1,13.1,7.73,4.68,1,,,,,,,,,,,,,,,,,,,,,,,,,,,,,,,,,,,,,,,,,,,,,,,,,,,,,,,,,,,,,,,,,,,,,,,,,,,,,,,,,,,,,,,,,,,,,,,,,,
,,6150b927614a4f154f311f9d,2022-09-08_14h36.39.712,CGTgamblingSpanTasks,2022.2.1,Win32,59.93766483,,,,,,,,1.2045,,,,,,,,,,,,,,1,n,2.7955,6.29,0,2.7045,1.5,0,30,30,24,1,11.43,0,6.29,0,,,,,,,,,,,,,,,,,,,,,,,,,,,,,,,,,,,,,,,,,,,,,,,,,,,,,,,,,,,,,,,,,,,,,,,,,,,,,,,,,,,,,,,,,,,,,,,,,,
,,6150b927614a4f154f311f9d,2022-09-08_14h36.39.712,CGTgamblingSpanTasks,2022.2.1,Win32,59.93766483,,,,,,,,2.262,,,,,,,,,,,,,,2,n,1.738,0,1,3.762,1.5,0,31,31,5,1,22.97,0,6.51,0,,,,,,,,,,,,,,,,,,,,,,,,,,,,,,,,,,,,,,,,,,,,,,,,,,,,,,,,,,,,,,,,,,,,,,,,,,,,,,,,,,,,,,,,,,,,,,,,,,
,,6150b927614a4f154f311f9d,2022-09-08_14h36.39.712,CGTgamblingSpanTasks,2022.2.1,Win32,59.93766483,,,,,,,,2.0587,,,,,,,,,,,,,,1,v,1.9413,0,1,3.0587,1,0,32,32,42,1,19.86,0,0,1,,,,,,,,,,,,,,,,,,,,,,,,,,,,,,,,,,,,,,,,,,,,,,,,,,,,,,,,,,,,,,,,,,,,,,,,,,,,,,,,,,,,,,,,,,,,,,,,,,
,,6150b927614a4f154f311f9d,2022-09-08_14h36.39.712,CGTgamblingSpanTasks,2022.2.1,Win32,59.93766483,,,,,,,,1.8109,,,,,,,,,,,,,,1,v,2.1891,0,1,3.3109,1.5,0,33,33,25,1,17,0,9.5,0,,,,,,,,,,,,,,,,,,,,,,,,,,,,,,,,,,,,,,,,,,,,,,,,,,,,,,,,,,,,,,,,,,,,,,,,,,,,,,,,,,,,,,,,,,,,,,,,,,
,,6150b927614a4f154f311f9d,2022-09-08_14h36.39.712,CGTgamblingSpanTasks,2022.2.1,Win32,59.93766483,,,,,,,,2.7792,,,,,,,,,,,,,,1,v,1.2208,13.04,1,3.7792,1,0,34,34,12,1,13.04,0,5.48,0,,,,,,,,,,,,,,,,,,,,,,,,,,,,,,,,,,,,,,,,,,,,,,,,,,,,,,,,,,,,,,,,,,,,,,,,,,,,,,,,,,,,,,,,,,,,,,,,,,
,,6150b927614a4f154f311f9d,2022-09-08_14h36.39.712,CGTgamblingSpanTasks,2022.2.1,Win32,59.93766483,,,,,,,,3.0119,,,,,,,,,,,,,,1,v,0.9881,17.94,1,4.0119,1,0,35,35,19,1,17.94,0,9.03,0,,,,,,,,,,,,,,,,,,,,,,,,,,,,,,,,,,,,,,,,,,,,,,,,,,,,,,,,,,,,,,,,,,,,,,,,,,,,,,,,,,,,,,,,,,,,,,,,,,
,,6150b927614a4f154f311f9d,2022-09-08_14h36.39.712,CGTgamblingSpanTasks,2022.2.1,Win32,59.93766483,,,,,,,,2.3623,,,,,,,,,,,,,,2,n,1.6377,6.99,1,3.8623,1.5,0,36,36,43,1,16.11,6.99,6.99,1,,,,,,,,,,,,,,,,,,,,,,,,,,,,,,,,,,,,,,,,,,,,,,,,,,,,,,,,,,,,,,,,,,,,,,,,,,,,,,,,,,,,,,,,,,,,,,,,,,
,,6150b927614a4f154f311f9d,2022-09-08_14h36.39.712,CGTgamblingSpanTasks,2022.2.1,Win32,59.93766483,,,,,,,,1.9206,,,,,,,,,,,,,,1,n,2.0794,6.73,0,3.4206,1.5,0,37,37,32,1,10.55,0,6.73,0,,,,,,,,,,,,,,,,,,,,,,,,,,,,,,,,,,,,,,,,,,,,,,,,,,,,,,,,,,,,,,,,,,,,,,,,,,,,,,,,,,,,,,,,,,,,,,,,,,
,,6150b927614a4f154f311f9d,2022-09-08_14h36.39.712,CGTgamblingSpanTasks,2022.2.1,Win32,59.93766483,,,,,,,,2.4799,,,,,,,,,,,,,,1,v,1.5201,17.59,1,3.4799,1,0,38,38,21,1,17.59,0,9.2,0,,,,,,,,,,,,,,,,,,,,,,,,,,,,,,,,,,,,,,,,,,,,,,,,,,,,,,,,,,,,,,,,,,,,,,,,,,,,,,,,,,,,,,,,,,,,,,,,,,
,,6150b927614a4f154f311f9d,2022-09-08_14h36.39.712,CGTgamblingSpanTasks,2022.2.1,Win32,59.93766483,,,,,,,,2.5964,,,,,,,,,,,,,,2,v,1.4036,6.81,0,3.5964,1,0,39,39,34,1,10.39,0,6.81,0,,,,,,,,,,,,,,,,,,,,,,,,,,,,,,,,,,,,,,,,,,,,,,,,,,,,,,,,,,,,,,,,,,,,,,,,,,,,,,,,,,,,,,,,,,,,,,,,,,
,,6150b927614a4f154f311f9d,2022-09-08_14h36.39.712,CGTgamblingSpanTasks,2022.2.1,Win32,59.93766483,,,,,,,,1.5133,,,,,,,,,,,,,,1,n,2.4867,10.68,0,2.5133,1,0,40,40,48,1,10.68,0,10.68,1,,,,,,,,,,,,,,,,,,,,,,,,,,,,,,,,,,,,,,,,,,,,,,,,,,,,,,,,,,,,,,,,,,,,,,,,,,,,,,,,,,,,,,,,,,,,,,,,,,
,,6150b927614a4f154f311f9d,2022-09-08_14h36.39.712,CGTgamblingSpanTasks,2022.2.1,Win32,59.93766483,,,,,,,,1.1648,,,,,,,,,,,,,,2,v,2.8352,10.25,0,2.1648,1,0,41,41,46,1,0,0,10.25,1,,,,,,,,,,,,,,,,,,,,,,,,,,,,,,,,,,,,,,,,,,,,,,,,,,,,,,,,,,,,,,,,,,,,,,,,,,,,,,,,,,,,,,,,,,,,,,,,,,
,,6150b927614a4f154f311f9d,2022-09-08_14h36.39.712,CGTgamblingSpanTasks,2022.2.1,Win32,59.93766483,,,,,,,,3.0625,,,,,,,,,,,,,,1,v,0.9375,19.28,1,4.5625,1.5,0,42,42,13,1,19.28,0,8.36,0,,,,,,,,,,,,,,,,,,,,,,,,,,,,,,,,,,,,,,,,,,,,,,,,,,,,,,,,,,,,,,,,,,,,,,,,,,,,,,,,,,,,,,,,,,,,,,,,,,
,,6150b927614a4f154f311f9d,2022-09-08_14h36.39.712,CGTgamblingSpanTasks,2022.2.1,Win32,59.93766483,,,,,,,,2.7829,,,,,,,,,,,,,,1,v,1.2171,25.2,1,3.7829,1,0,43,43,3,1,25.2,0,5.4,0,,,,,,,,,,,,,,,,,,,,,,,,,,,,,,,,,,,,,,,,,,,,,,,,,,,,,,,,,,,,,,,,,,,,,,,,,,,,,,,,,,,,,,,,,,,,,,,,,,
,,6150b927614a4f154f311f9d,2022-09-08_14h36.39.712,CGTgamblingSpanTasks,2022.2.1,Win32,59.93766483,,,,,,,,2.7938,,,,,,,,,,,,,,1,v,1.2062,0,1,4.2938,1.5,0,44,44,35,1,15.47,0,10.27,0,,,,,,,,,,,,,,,,,,,,,,,,,,,,,,,,,,,,,,,,,,,,,,,,,,,,,,,,,,,,,,,,,,,,,,,,,,,,,,,,,,,,,,,,,,,,,,,,,,
,,6150b927614a4f154f311f9d,2022-09-08_14h36.39.712,CGTgamblingSpanTasks,2022.2.1,Win32,59.93766483,,,,,,,,2.6971,,,,,,,,,,,,,,1,v,1.3029,0,1,4.1971,1.5,0,45,45,27,1,16.6,0,9.7,0,,,,,,,,,,,,,,,,,,,,,,,,,,,,,,,,,,,,,,,,,,,,,,,,,,,,,,,,,,,,,,,,,,,,,,,,,,,,,,,,,,,,,,,,,,,,,,,,,,
,,6150b927614a4f154f311f9d,2022-09-08_14h36.39.712,CGTgamblingSpanTasks,2022.2.1,Win32,59.93766483,,,,,,,,2.229,,,,,,,,,,,,,,2,v,1.771,5.82,0,3.729,1.5,0,46,46,16,1,12.36,0,5.82,0,,,,,,,,,,,,,,,,,,,,,,,,,,,,,,,,,,,,,,,,,,,,,,,,,,,,,,,,,,,,,,,,,,,,,,,,,,,,,,,,,,,,,,,,,,,,,,,,,,
,,6150b927614a4f154f311f9d,2022-09-08_14h36.39.712,CGTgamblingSpanTasks,2022.2.1,Win32,59.93766483,,,,,,,,2.7949,,,,,,,,,,,,,,2,n,1.2051,0,1,3.7949,1,0,47,47,4,1,16,0,4,0,,,,,,,,,,,,,,,,,,,,,,,,,,,,,,,,,,,,,,,,,,,,,,,,,,,,,,,,,,,,,,,,,,,,,,,,,,,,,,,,,,,,,,,,,,,,,,,,,,
,,6150b927614a4f154f311f9d,2022-09-08_14h36.39.712,CGTgamblingSpanTasks,2022.2.1,Win32,59.93766483,,,,,,,,3.1988,,,,,,,,,,,,,,1,n,0.8012,7.55,0,4.1988,1,0,48,48,45,1,0,0,7.55,1,,,,,,,,,,,,,,,,,,,,,,,,,,,,,,,,,,,,,,,,,,,,,,,,,,,,,,,,,,,,,,,,,,,,,,,,,,,,,,,,,,,,,,,,,,,,,,,,,,
,,6150b927614a4f154f311f9d,2022-09-08_14h36.39.712,CGTgamblingSpanTasks,2022.2.1,Win32,59.93766483,,,,,,,,0,,,,,,,,,,,,,,2,,,,,1,1,0,49,49,14,1,12.68,0,5.66,0,,,,,,,,,,,,,,,,,,,,,,,,,,,,,,,,,,,,,,,,,,,,,,,,,,,,,,,,,,,,,,,,,,,,,,,,,,,,,,,,,,,,,,,,,,,,,,,,,,
,,6150b927614a4f154f311f9d,2022-09-08_14h36.39.712,CGTgamblingSpanTasks,2022.2.1,Win32,59.93766483,,,,,,,,,,,,,,,,,,,,,,,,,,,,,,,,,,,,,,bespoke_choiceset_rhoInd120_muInd022.csv,bespoke_choicesets/bespoke_choiceset_rhoInd120_muInd022.csv,120,22,0,0,0,0,1,,,,,,,,,,,,,,,,,,,,,,,,,,,,,,,,,,,,,,,,,,,,,,,,,,,,,,,,,,,,,,,,,,,,,,,,,,,,,,,,,,,,,,,,,
,,6150b927614a4f154f311f9d,2022-09-08_14h36.39.712,CGTgamblingSpanTasks,2022.2.1,Win32,59.93766483,,,,,,,,,,,,,,,,,,,,,,,,,,,,,,,,,,,,,,,,,,,,,,,,,,,,,,,,,,,,,,,,,,,,,,,,,,,,,,,,,,,,,,,,,,,,,,,,,,,,,,,,,,,,,,,,,,,,,,,,,,,,,,,,,,,,,,,
,,6150b927614a4f154f311f9d,2022-09-08_14h36.39.712,CGTgamblingSpanTasks,2022.2.1,Win32,59.93766483,,,,,,,,,,,,,,,,,,,,,,,,,,,,,,,,,,,,,,,,,,,,,,,v,1.6658,,,,,,,,,,,,,,,,,,,,,,,,,,,,,,,,,,,,,,,,,,,,,,,,,,,,,,,,,,,,,,,,,,,,,,,,,,,,,,,,,,,,,,,
,,6150b927614a4f154f311f9d,2022-09-08_14h36.39.712,CGTgamblingSpanTasks,2022.2.1,Win32,59.93766483,,,,,,,,2.7026,,,,,,,,,,,,,,1,v,1.2974,0,1,3.7026,1,,,,,,19.3050342,0,2.030232342,,,,,,,,,,,,,0,0,0,73,1,0.484573227,1,,,,,,,,,,,,,,,,,,,,,,,,,,,,,,,,,,,,,,,,,,,,,,,,,,,,,,,,,,,,,,,,,,,,,,,,,,,,,,,,
,,6150b927614a4f154f311f9d,2022-09-08_14h36.39.712,CGTgamblingSpanTasks,2022.2.1,Win32,59.93766483,,,,,,,,1.4102,,,,,,,,,,,,,,1,v,2.5898,0,1,2.4102,1,,,,,,10.05300841,0,8.512335864,,,,,,,,,,,,,0,1,1,74,1,0.040729225,0,,,,,,,,,,,,,,,,,,,,,,,,,,,,,,,,,,,,,,,,,,,,,,,,,,,,,,,,,,,,,,,,,,,,,,,,,,,,,,,,
,,6150b927614a4f154f311f9d,2022-09-08_14h36.39.712,CGTgamblingSpanTasks,2022.2.1,Win32,59.93766483,,,,,,,,2.9086,,,,,,,,,,,,,,2,n,1.0914,0,1,3.9086,1,,,,,,27.76752685,0,0.083968035,,,,,,,,,,,,,0,2,2,13,1,0.906513967,0,,,,,,,,,,,,,,,,,,,,,,,,,,,,,,,,,,,,,,,,,,,,,,,,,,,,,,,,,,,,,,,,,,,,,,,,,,,,,,,,
,,6150b927614a4f154f311f9d,2022-09-08_14h36.39.712,CGTgamblingSpanTasks,2022.2.1,Win32,59.93766483,,,,,,,,3.0402,,,,,,,,,,,,,,2,n,0.9598,27.12325385,1,4.5402,1.5,,,,,,27.12325385,0,0.080932047,,,,,,,,,,,,,0,3,3,14,1,0.906929184,0,,,,,,,,,,,,,,,,,,,,,,,,,,,,,,,,,,,,,,,,,,,,,,,,,,,,,,,,,,,,,,,,,,,,,,,,,,,,,,,,
,,6150b927614a4f154f311f9d,2022-09-08_14h36.39.712,CGTgamblingSpanTasks,2022.2.1,Win32,59.93766483,,,,,,,,3.0068,,,,,,,,,,,,,,2,n,0.9932,0,1,4.0068,1,,,,,,21.39646914,0,0.072474078,,,,,,,,,,,,,0,4,4,3,1,0.902848133,0,,,,,,,,,,,,,,,,,,,,,,,,,,,,,,,,,,,,,,,,,,,,,,,,,,,,,,,,,,,,,,,,,,,,,,,,,,,,,,,,
,,6150b927614a4f154f311f9d,2022-09-08_14h36.39.712,CGTgamblingSpanTasks,2022.2.1,Win32,59.93766483,,,,,,,,2.6249,,,,,,,,,,,,,,2,n,1.3751,28.14876717,1,3.6249,1,,,,,,28.14876717,0,3.117906378,,,,,,,,,,,,,0,5,5,76,1,0.470636736,1,,,,,,,,,,,,,,,,,,,,,,,,,,,,,,,,,,,,,,,,,,,,,,,,,,,,,,,,,,,,,,,,,,,,,,,,,,,,,,,,
,,6150b927614a4f154f311f9d,2022-09-08_14h36.39.712,CGTgamblingSpanTasks,2022.2.1,Win32,59.93766483,,,,,,,,3.1459,,,,,,,,,,,,,,1,v,0.8541,21.2188881,1,4.6459,1.5,,,,,,21.2188881,0,2.067660742,,,,,,,,,,,,,0,6,6,107,1,0.50470775,1,,,,,,,,,,,,,,,,,,,,,,,,,,,,,,,,,,,,,,,,,,,,,,,,,,,,,,,,,,,,,,,,,,,,,,,,,,,,,,,,
,,6150b927614a4f154f311f9d,2022-09-08_14h36.39.712,CGTgamblingSpanTasks,2022.2.1,Win32,59.93766483,,,,,,,,2.5795,,,,,,,,,,,,,,2,n,1.4205,23.24777057,1,4.0795,1.5,,,,,,23.24777057,0,2.003482335,,,,,,,,,,,,,0,7,7,59,1,0.536135174,1,,,,,,,,,,,,,,,,,,,,,,,,,,,,,,,,,,,,,,,,,,,,,,,,,,,,,,,,,,,,,,,,,,,,,,,,,,,,,,,,
,,6150b927614a4f154f311f9d,2022-09-08_14h36.39.712,CGTgamblingSpanTasks,2022.2.1,Win32,59.93766483,,,,,,,,3.0625,,,,,,,,,,,,,,1,v,0.9375,0,1,4.0625,1,,,,,,22.25959835,0,0.065383587,,,,,,,,,,,,,0,8,8,97,1,0.907413875,0,,,,,,,,,,,,,,,,,,,,,,,,,,,,,,,,,,,,,,,,,,,,,,,,,,,,,,,,,,,,,,,,,,,,,,,,,,,,,,,,
,,6150b927614a4f154f311f9d,2022-09-08_14h36.39.712,CGTgamblingSpanTasks,2022.2.1,Win32,59.93766483,,,,,,,,1.445,,,,,,,,,,,,,,2,v,2.555,8.579385201,0,2.945,1.5,,,,,,14.11762686,0,8.579385201,,,,,,,,,,,,,0,9,9,60,1,0.073886959,0,,,,,,,,,,,,,,,,,,,,,,,,,,,,,,,,,,,,,,,,,,,,,,,,,,,,,,,,,,,,,,,,,,,,,,,,,,,,,,,,
,,6150b927614a4f154f311f9d,2022-09-08_14h36.39.712,CGTgamblingSpanTasks,2022.2.1,Win32,59.93766483,,,,,,,,1.5284,,,,,,,,,,,,,,1,v,2.4716,0,1,3.0284,1.5,,,,,,27.77179191,0,0.074524436,,,,,,,,,,,,,0,10,10,99,1,0.910114387,0,,,,,,,,,,,,,,,,,,,,,,,,,,,,,,,,,,,,,,,,,,,,,,,,,,,,,,,,,,,,,,,,,,,,,,,,,,,,,,,,
,,6150b927614a4f154f311f9d,2022-09-08_14h36.39.712,CGTgamblingSpanTasks,2022.2.1,Win32,59.93766483,,,,,,,,1.4454,,,,,,,,,,,,,,2,n,2.5546,0,1,2.4454,1,,,,,,21.46599803,0,0.059789256,,,,,,,,,,,,,0,11,11,8,1,0.909019081,0,,,,,,,,,,,,,,,,,,,,,,,,,,,,,,,,,,,,,,,,,,,,,,,,,,,,,,,,,,,,,,,,,,,,,,,,,,,,,,,,
,,6150b927614a4f154f311f9d,2022-09-08_14h36.39.712,CGTgamblingSpanTasks,2022.2.1,Win32,59.93766483,,,,,,,,2.127,,,,,,,,,,,,,,1,v,1.873,28.9381277,1,3.627,1.5,,,,,,28.9381277,0,2.663622024,,,,,,,,,,,,,0,12,12,103,1,0.519453367,1,,,,,,,,,,,,,,,,,,,,,,,,,,,,,,,,,,,,,,,,,,,,,,,,,,,,,,,,,,,,,,,,,,,,,,,,,,,,,,,,
,,6150b927614a4f154f311f9d,2022-09-08_14h36.39.712,CGTgamblingSpanTasks,2022.2.1,Win32,59.93766483,,,,,,,,2.2617,,,,,,,,,,,,,,1,v,1.7383,0,1,3.2617,1,,,,,,24.479109,0,0.089582697,,,,,,,,,,,,,0,13,13,89,1,0.900200232,0,,,,,,,,,,,,,,,,,,,,,,,,,,,,,,,,,,,,,,,,,,,,,,,,,,,,,,,,,,,,,,,,,,,,,,,,,,,,,,,,
,,6150b927614a4f154f311f9d,2022-09-08_14h36.39.712,CGTgamblingSpanTasks,2022.2.1,Win32,59.93766483,,,,,,,,1.8845,,,,,,,,,,,,,,2,v,2.1155,7.850775577,0,3.3845,1.5,,,,,,4.622707531,0,7.850775577,,,,,,,,,,,,,0,14,14,6,1,0.017737407,0,,,,,,,,,,,,,,,,,,,,,,,,,,,,,,,,,,,,,,,,,,,,,,,,,,,,,,,,,,,,,,,,,,,,,,,,,,,,,,,,
,,6150b927614a4f154f311f9d,2022-09-08_14h36.39.712,CGTgamblingSpanTasks,2022.2.1,Win32,59.93766483,,,,,,,,2.2602,,,,,,,,,,,,,,1,v,1.7398,0,1,3.2602,1,,,,,,26.16821818,0,0.093528069,,,,,,,,,,,,,0,15,15,42,1,0.901022427,0,,,,,,,,,,,,,,,,,,,,,,,,,,,,,,,,,,,,,,,,,,,,,,,,,,,,,,,,,,,,,,,,,,,,,,,,,,,,,,,,
,,6150b927614a4f154f311f9d,2022-09-08_14h36.39.712,CGTgamblingSpanTasks,2022.2.1,Win32,59.93766483,,,,,,,,2.2579,,,,,,,,,,,,,,2,n,1.7421,0,1,3.7579,1.5,,,,,,23.0613391,0,2.387726776,,,,,,,,,,,,,0,16,16,69,1,0.488727763,1,,,,,,,,,,,,,,,,,,,,,,,,,,,,,,,,,,,,,,,,,,,,,,,,,,,,,,,,,,,,,,,,,,,,,,,,,,,,,,,,
,,6150b927614a4f154f311f9d,2022-09-08_14h36.39.712,CGTgamblingSpanTasks,2022.2.1,Win32,59.93766483,,,,,,,,1.9954,,,,,,,,,,,,,,2,n,2.0046,0,1,3.4954,1.5,,,,,,8.670591867,0,1.025847652,,,,,,,,,,,,,0,17,17,18,1,0.452680459,1,,,,,,,,,,,,,,,,,,,,,,,,,,,,,,,,,,,,,,,,,,,,,,,,,,,,,,,,,,,,,,,,,,,,,,,,,,,,,,,,
,,6150b927614a4f154f311f9d,2022-09-08_14h36.39.712,CGTgamblingSpanTasks,2022.2.1,Win32,59.93766483,,,,,,,,2.8956,,,,,,,,,,,,,,2,n,1.1044,29.30724159,1,3.8956,1,,,,,,29.30724159,0,3.247012935,,,,,,,,,,,,,0,18,18,71,1,0.470571125,1,,,,,,,,,,,,,,,,,,,,,,,,,,,,,,,,,,,,,,,,,,,,,,,,,,,,,,,,,,,,,,,,,,,,,,,,,,,,,,,,
,,6150b927614a4f154f311f9d,2022-09-08_14h36.39.712,CGTgamblingSpanTasks,2022.2.1,Win32,59.93766483,,,,,,,,3.21,,,,,,,,,,,,,,1,v,0.79,0,1,4.71,1.5,,,,,,20.31034258,0,1.870404296,,,,,,,,,,,,,0,19,19,85,1,0.519325853,1,,,,,,,,,,,,,,,,,,,,,,,,,,,,,,,,,,,,,,,,,,,,,,,,,,,,,,,,,,,,,,,,,,,,,,,,,,,,,,,,
,,6150b927614a4f154f311f9d,2022-09-08_14h36.39.712,CGTgamblingSpanTasks,2022.2.1,Win32,59.93766483,,,,,,,,1.675,,,,,,,,,,,,,,2,v,2.325,4.462262453,0,2.675,1,,,,,,0.192759042,0,4.462262453,,,,,,,,,,,,,0,20,20,52,1,0.003553223,0,,,,,,,,,,,,,,,,,,,,,,,,,,,,,,,,,,,,,,,,,,,,,,,,,,,,,,,,,,,,,,,,,,,,,,,,,,,,,,,,
,,6150b927614a4f154f311f9d,2022-09-08_14h36.39.712,CGTgamblingSpanTasks,2022.2.1,Win32,59.93766483,,,,,,,,2.5453,,,,,,,,,,,,,,2,n,1.4547,25.26994993,1,4.0453,1.5,,,,,,25.26994993,0,2.78925142,,,,,,,,,,,,,0,21,21,108,1,0.471582922,1,,,,,,,,,,,,,,,,,,,,,,,,,,,,,,,,,,,,,,,,,,,,,,,,,,,,,,,,,,,,,,,,,,,,,,,,,,,,,,,,
,,6150b927614a4f154f311f9d,2022-09-08_14h36.39.712,CGTgamblingSpanTasks,2022.2.1,Win32,59.93766483,,,,,,,,2.4615,,,,,,,,,,,,,,2,n,1.5385,26.4985979,1,3.9615,1.5,,,,,,26.4985979,0,0.051324376,,,,,,,,,,,,,0,22,22,106,1,0.918747215,0,,,,,,,,,,,,,,,,,,,,,,,,,,,,,,,,,,,,,,,,,,,,,,,,,,,,,,,,,,,,,,,,,,,,,,,,,,,,,,,,
,,6150b927614a4f154f311f9d,2022-09-08_14h36.39.712,CGTgamblingSpanTasks,2022.2.1,Win32,59.93766483,,,,,,,,2.3339,,,,,,,,,,,,,,2,n,1.6661,0,1,3.3339,1,,,,,,18.20422443,0,1.635040165,,,,,,,,,,,,,0,23,23,82,1,0.525708991,1,,,,,,,,,,,,,,,,,,,,,,,,,,,,,,,,,,,,,,,,,,,,,,,,,,,,,,,,,,,,,,,,,,,,,,,,,,,,,,,,
,,6150b927614a4f154f311f9d,2022-09-08_14h36.39.712,CGTgamblingSpanTasks,2022.2.1,Win32,59.93766483,,,,,,,,1.5294,,,,,,,,,,,,,,2,n,2.4706,29.76099779,1,2.5294,1,,,,,,29.76099779,0,0.095763086,,,,,,,,,,,,,0,24,24,35,1,0.904537896,0,,,,,,,,,,,,,,,,,,,,,,,,,,,,,,,,,,,,,,,,,,,,,,,,,,,,,,,,,,,,,,,,,,,,,,,,,,,,,,,,
,,6150b927614a4f154f311f9d,2022-09-08_14h36.39.712,CGTgamblingSpanTasks,2022.2.1,Win32,59.93766483,,,,,,,,1.6955,,,,,,,,,,,,,,2,n,2.3045,0,1,2.6955,1,,,,,,27.93093084,0,0.050207531,,,,,,,,,,,,,0,25,25,83,1,0.920505936,0,,,,,,,,,,,,,,,,,,,,,,,,,,,,,,,,,,,,,,,,,,,,,,,,,,,,,,,,,,,,,,,,,,,,,,,,,,,,,,,,
,,6150b927614a4f154f311f9d,2022-09-08_14h36.39.712,CGTgamblingSpanTasks,2022.2.1,Win32,59.93766483,,,,,,,,2.8114,,,,,,,,,,,,,,2,n,1.1886,7.066129113,1,3.8114,1,,,,,,7.066129113,0,0.585581699,,,,,,,,,,,,,0,26,26,19,1,0.545860632,1,,,,,,,,,,,,,,,,,,,,,,,,,,,,,,,,,,,,,,,,,,,,,,,,,,,,,,,,,,,,,,,,,,,,,,,,,,,,,,,,
,,6150b927614a4f154f311f9d,2022-09-08_14h36.39.712,CGTgamblingSpanTasks,2022.2.1,Win32,59.93766483,,,,,,,,2.8963,,,,,,,,,,,,,,2,n,1.1037,0,1,4.3963,1.5,,,,,,11.08143071,0,1.207538756,,,,,,,,,,,,,0,27,27,84,1,0.475047453,1,,,,,,,,,,,,,,,,,,,,,,,,,,,,,,,,,,,,,,,,,,,,,,,,,,,,,,,,,,,,,,,,,,,,,,,,,,,,,,,,
,,6150b927614a4f154f311f9d,2022-09-08_14h36.39.712,CGTgamblingSpanTasks,2022.2.1,Win32,59.93766483,,,,,,,,2.7448,,,,,,,,,,,,,,1,n,1.2552,11.61882862,0,3.7448,1,,,,,,4.022743614,0,11.61882862,,,,,,,,,,,,,0,28,28,38,1,0.011499376,0,,,,,,,,,,,,,,,,,,,,,,,,,,,,,,,,,,,,,,,,,,,,,,,,,,,,,,,,,,,,,,,,,,,,,,,,,,,,,,,,
,,6150b927614a4f154f311f9d,2022-09-08_14h36.39.712,CGTgamblingSpanTasks,2022.2.1,Win32,59.93766483,,,,,,,,2.9155,,,,,,,,,,,,,,1,v,1.0845,0,1,3.9155,1,,,,,,22.72923833,0,0.067170781,,,,,,,,,,,,,0,29,29,86,1,0.907226703,0,,,,,,,,,,,,,,,,,,,,,,,,,,,,,,,,,,,,,,,,,,,,,,,,,,,,,,,,,,,,,,,,,,,,,,,,,,,,,,,,
,,6150b927614a4f154f311f9d,2022-09-08_14h36.39.712,CGTgamblingSpanTasks,2022.2.1,Win32,59.93766483,,,,,,,,2.9129,,,,,,,,,,,,,,2,n,1.0871,0,1,4.4129,1.5,,,,,,9.012590634,0,1.002188111,,,,,,,,,,,,,0,30,30,12,1,0.46958041,1,,,,,,,,,,,,,,,,,,,,,,,,,,,,,,,,,,,,,,,,,,,,,,,,,,,,,,,,,,,,,,,,,,,,,,,,,,,,,,,,
,,6150b927614a4f154f311f9d,2022-09-08_14h36.39.712,CGTgamblingSpanTasks,2022.2.1,Win32,59.93766483,,,,,,,,1.4457,,,,,,,,,,,,,,1,n,2.5543,6.781500919,0,2.4457,1,,,,,,8.363821911,0,6.781500919,,,,,,,,,,,,,0,31,31,61,1,0.044227959,0,,,,,,,,,,,,,,,,,,,,,,,,,,,,,,,,,,,,,,,,,,,,,,,,,,,,,,,,,,,,,,,,,,,,,,,,,,,,,,,,
,,6150b927614a4f154f311f9d,2022-09-08_14h36.39.712,CGTgamblingSpanTasks,2022.2.1,Win32,59.93766483,,,,,,,,3.0434,,,,,,,,,,,,,,2,n,0.9566,19.58698544,1,4.5434,1.5,,,,,,19.58698544,0,9.936178001,,,,,,,,,,,,,0,32,32,77,1,0.098812204,0,,,,,,,,,,,,,,,,,,,,,,,,,,,,,,,,,,,,,,,,,,,,,,,,,,,,,,,,,,,,,,,,,,,,,,,,,,,,,,,,
,,6150b927614a4f154f311f9d,2022-09-08_14h36.39.712,CGTgamblingSpanTasks,2022.2.1,Win32,59.93766483,,,,,,,,2.8072,,,,,,,,,,,,,,1,v,1.1928,0,1,3.8072,1,,,,,,20.97851654,0,11.39288827,,,,,,,,,,,,,0,33,33,2,1,0.088791079,0,,,,,,,,,,,,,,,,,,,,,,,,,,,,,,,,,,,,,,,,,,,,,,,,,,,,,,,,,,,,,,,,,,,,,,,,,,,,,,,,
,,6150b927614a4f154f311f9d,2022-09-08_14h36.39.712,CGTgamblingSpanTasks,2022.2.1,Win32,59.93766483,,,,,,,,3.1575,,,,,,,,,,,,,,2,n,0.8425,0,1,4.6575,1.5,,,,,,27.38828234,0,0.0639233,,,,,,,,,,,,,0,34,34,43,1,0.914010176,0,,,,,,,,,,,,,,,,,,,,,,,,,,,,,,,,,,,,,,,,,,,,,,,,,,,,,,,,,,,,,,,,,,,,,,,,,,,,,,,,
,,6150b927614a4f154f311f9d,2022-09-08_14h36.39.712,CGTgamblingSpanTasks,2022.2.1,Win32,59.93766483,,,,,,,,2.9138,,,,,,,,,,,,,,2,v,1.0862,5.683635938,0,3.9138,1,,,,,,4.941039335,0,5.683635938,,,,,,,,,,,,,0,35,35,9,1,0.025481984,0,,,,,,,,,,,,,,,,,,,,,,,,,,,,,,,,,,,,,,,,,,,,,,,,,,,,,,,,,,,,,,,,,,,,,,,,,,,,,,,,
,,6150b927614a4f154f311f9d,2022-09-08_14h36.39.712,CGTgamblingSpanTasks,2022.2.1,Win32,59.93766483,,,,,,,,3.0803,,,,,,,,,,,,,,2,n,0.9197,19.5450126,1,4.0803,1,,,,,,19.5450126,0,2.123581464,,,,,,,,,,,,,0,36,36,65,1,0.475836144,1,,,,,,,,,,,,,,,,,,,,,,,,,,,,,,,,,,,,,,,,,,,,,,,,,,,,,,,,,,,,,,,,,,,,,,,,,,,,,,,,
,,6150b927614a4f154f311f9d,2022-09-08_14h36.39.712,CGTgamblingSpanTasks,2022.2.1,Win32,59.93766483,,,,,,,,2.9444,,,,,,,,,,,,,,1,v,1.0556,0,1,4.4444,1.5,,,,,,21.03408097,0,2.208275162,,,,,,,,,,,,,0,37,37,0,1,0.485031246,1,,,,,,,,,,,,,,,,,,,,,,,,,,,,,,,,,,,,,,,,,,,,,,,,,,,,,,,,,,,,,,,,,,,,,,,,,,,,,,,,
,,6150b927614a4f154f311f9d,2022-09-08_14h36.39.712,CGTgamblingSpanTasks,2022.2.1,Win32,59.93766483,,,,,,,,3.3156,,,,,,,,,,,,,,1,v,0.6844,19.30622782,1,4.8156,1.5,,,,,,19.30622782,0,10.31611309,,,,,,,,,,,,,0,38,38,1,1,0.091105656,0,,,,,,,,,,,,,,,,,,,,,,,,,,,,,,,,,,,,,,,,,,,,,,,,,,,,,,,,,,,,,,,,,,,,,,,,,,,,,,,,
,,6150b927614a4f154f311f9d,2022-09-08_14h36.39.712,CGTgamblingSpanTasks,2022.2.1,Win32,59.93766483,,,,,,,,2.9911,,,,,,,,,,,,,,2,n,1.0089,11.16819157,1,3.9911,1,,,,,,11.16819157,0,0.941456753,,,,,,,,,,,,,0,39,39,45,1,0.54163803,1,,,,,,,,,,,,,,,,,,,,,,,,,,,,,,,,,,,,,,,,,,,,,,,,,,,,,,,,,,,,,,,,,,,,,,,,,,,,,,,,
,,6150b927614a4f154f311f9d,2022-09-08_14h36.39.712,CGTgamblingSpanTasks,2022.2.1,Win32,59.93766483,,,,,,,,3.1828,,,,,,,,,,,,,,2,n,0.8172,25.54604005,1,4.1828,1,,,,,,25.54604005,0,0.088845411,,,,,,,,,,,,,0,40,40,79,1,0.901957831,0,,,,,,,,,,,,,,,,,,,,,,,,,,,,,,,,,,,,,,,,,,,,,,,,,,,,,,,,,,,,,,,,,,,,,,,,,,,,,,,,
,,6150b927614a4f154f311f9d,2022-09-08_14h36.39.712,CGTgamblingSpanTasks,2022.2.1,Win32,59.93766483,,,,,,,,1.6464,,,,,,,,,,,,,,2,v,2.3536,11.19311486,0,3.1464,1.5,,,,,,8.17598802,0,11.19311486,,,,,,,,,,,,,0,41,41,110,1,0.021568003,0,,,,,,,,,,,,,,,,,,,,,,,,,,,,,,,,,,,,,,,,,,,,,,,,,,,,,,,,,,,,,,,,,,,,,,,,,,,,,,,,
,,6150b927614a4f154f311f9d,2022-09-08_14h36.39.712,CGTgamblingSpanTasks,2022.2.1,Win32,59.93766483,,,,,,,,3.2637,,,,,,,,,,,,,,1,v,0.7363,15.73000491,1,4.2637,1,,,,,,15.73000491,0,8.830252162,,,,,,,,,,,,,0,42,42,95,1,0.084193143,0,,,,,,,,,,,,,,,,,,,,,,,,,,,,,,,,,,,,,,,,,,,,,,,,,,,,,,,,,,,,,,,,,,,,,,,,,,,,,,,,
,,6150b927614a4f154f311f9d,2022-09-08_14h36.39.712,CGTgamblingSpanTasks,2022.2.1,Win32,59.93766483,,,,,,,,3.2354,,,,,,,,,,,,,,2,n,0.7646,0,1,4.7354,1.5,,,,,,27.60724521,0,0.088432325,,,,,,,,,,,,,0,43,43,17,1,0.904684186,0,,,,,,,,,,,,,,,,,,,,,,,,,,,,,,,,,,,,,,,,,,,,,,,,,,,,,,,,,,,,,,,,,,,,,,,,,,,,,,,,
,,6150b927614a4f154f311f9d,2022-09-08_14h36.39.712,CGTgamblingSpanTasks,2022.2.1,Win32,59.93766483,,,,,,,,3.0654,,,,,,,,,,,,,,1,v,0.9346,29.77342428,1,4.0654,1,,,,,,29.77342428,0,2.838865588,,,,,,,,,,,,,0,44,44,57,1,0.510363415,1,,,,,,,,,,,,,,,,,,,,,,,,,,,,,,,,,,,,,,,,,,,,,,,,,,,,,,,,,,,,,,,,,,,,,,,,,,,,,,,,
,,6150b927614a4f154f311f9d,2022-09-08_14h36.39.712,CGTgamblingSpanTasks,2022.2.1,Win32,59.93766483,,,,,,,,2.0805,,,,,,,,,,,,,,1,v,1.9195,0,1,3.0805,1,,,,,,17.64114152,0,10.68505773,,,,,,,,,,,,,0,45,45,98,1,0.074299362,0,,,,,,,,,,,,,,,,,,,,,,,,,,,,,,,,,,,,,,,,,,,,,,,,,,,,,,,,,,,,,,,,,,,,,,,,,,,,,,,,
,,6150b927614a4f154f311f9d,2022-09-08_14h36.39.712,CGTgamblingSpanTasks,2022.2.1,Win32,59.93766483,,,,,,,,3.0984,,,,,,,,,,,,,,2,n,0.9016,14.3363647,1,4.5984,1.5,,,,,,14.3363647,0,1.396635362,,,,,,,,,,,,,0,46,46,78,1,0.504775474,1,,,,,,,,,,,,,,,,,,,,,,,,,,,,,,,,,,,,,,,,,,,,,,,,,,,,,,,,,,,,,,,,,,,,,,,,,,,,,,,,
,,6150b927614a4f154f311f9d,2022-09-08_14h36.39.712,CGTgamblingSpanTasks,2022.2.1,Win32,59.93766483,,,,,,,,1.8119,,,,,,,,,,,,,,1,v,2.1881,0,1,3.3119,1.5,,,,,,17.5608285,0,1.825111303,,,,,,,,,,,,,0,47,47,104,1,0.487721116,1,,,,,,,,,,,,,,,,,,,,,,,,,,,,,,,,,,,,,,,,,,,,,,,,,,,,,,,,,,,,,,,,,,,,,,,,,,,,,,,,
,,6150b927614a4f154f311f9d,2022-09-08_14h36.39.712,CGTgamblingSpanTasks,2022.2.1,Win32,59.93766483,,,,,,,,2.8608,,,,,,,,,,,,,,1,v,1.1392,0,1,4.3608,1.5,,,,,,29.75778644,0,2.810531415,,,,,,,,,,,,,0,48,48,113,1,0.512824233,1,,,,,,,,,,,,,,,,,,,,,,,,,,,,,,,,,,,,,,,,,,,,,,,,,,,,,,,,,,,,,,,,,,,,,,,,,,,,,,,,
,,6150b927614a4f154f311f9d,2022-09-08_14h36.39.712,CGTgamblingSpanTasks,2022.2.1,Win32,59.93766483,,,,,,,,1.4469,,,,,,,,,,,,,,1,v,2.5531,22.86604061,1,2.4469,1,,,,,,22.86604061,0,2.293289792,,,,,,,,,,,,,0,49,49,51,1,0.49715382,1,,,,,,,,,,,,,,,,,,,,,,,,,,,,,,,,,,,,,,,,,,,,,,,,,,,,,,,,,,,,,,,,,,,,,,,,,,,,,,,,
,,6150b927614a4f154f311f9d,2022-09-08_14h36.39.712,CGTgamblingSpanTasks,2022.2.1,Win32,59.93766483,,,,,,,,2.9809,,,,,,,,,,,,,,1,v,1.0191,0,1,4.4809,1.5,,,,,,25.21882231,0,0.085746782,,,,,,,,,,,,,0,50,50,64,1,0.90272076,0,,,,,,,,,,,,,,,,,,,,,,,,,,,,,,,,,,,,,,,,,,,,,,,,,,,,,,,,,,,,,,,,,,,,,,,,,,,,,,,,
,,6150b927614a4f154f311f9d,2022-09-08_14h36.39.712,CGTgamblingSpanTasks,2022.2.1,Win32,59.93766483,,,,,,,,2.4788,,,,,,,,,,,,,,2,v,1.5212,3.877530383,0,3.4788,1,,,,,,3.471484939,0,3.877530383,,,,,,,,,,,,,0,51,51,40,1,0.02623078,0,,,,,,,,,,,,,,,,,,,,,,,,,,,,,,,,,,,,,,,,,,,,,,,,,,,,,,,,,,,,,,,,,,,,,,,,,,,,,,,,
,,6150b927614a4f154f311f9d,2022-09-08_14h36.39.712,CGTgamblingSpanTasks,2022.2.1,Win32,59.93766483,,,,,,,,3.0804,,,,,,,,,,,,,,1,v,0.9196,0,1,4.0804,1,,,,,,26.36733703,0,2.201057101,,,,,,,,,,,,,0,52,52,90,1,0.544064207,1,,,,,,,,,,,,,,,,,,,,,,,,,,,,,,,,,,,,,,,,,,,,,,,,,,,,,,,,,,,,,,,,,,,,,,,,,,,,,,,,
,,6150b927614a4f154f311f9d,2022-09-08_14h36.39.712,CGTgamblingSpanTasks,2022.2.1,Win32,59.93766483,,,,,,,,3.3578,,,,,,,,,,,,,,1,v,0.6422,0,1,4.8578,1.5,,,,,,23.4214135,0,2.485985001,,,,,,,,,,,,,0,53,53,81,1,0.482105905,1,,,,,,,,,,,,,,,,,,,,,,,,,,,,,,,,,,,,,,,,,,,,,,,,,,,,,,,,,,,,,,,,,,,,,,,,,,,,,,,,
,,6150b927614a4f154f311f9d,2022-09-08_14h36.39.712,CGTgamblingSpanTasks,2022.2.1,Win32,59.93766483,,,,,,,,1.5762,,,,,,,,,,,,,,2,v,2.4238,6.833409611,0,3.0762,1.5,,,,,,6.325091157,0,6.833409611,,,,,,,,,,,,,0,54,54,58,1,0.027113638,0,,,,,,,,,,,,,,,,,,,,,,,,,,,,,,,,,,,,,,,,,,,,,,,,,,,,,,,,,,,,,,,,,,,,,,,,,,,,,,,,
,,6150b927614a4f154f311f9d,2022-09-08_14h36.39.712,CGTgamblingSpanTasks,2022.2.1,Win32,59.93766483,,,,,,,,1.5112,,,,,,,,,,,,,,2,n,2.4888,15.21435748,1,3.0112,1.5,,,,,,15.21435748,0,10.3417501,,,,,,,,,,,,,0,55,55,72,1,0.060969226,0,,,,,,,,,,,,,,,,,,,,,,,,,,,,,,,,,,,,,,,,,,,,,,,,,,,,,,,,,,,,,,,,,,,,,,,,,,,,,,,,
,,6150b927614a4f154f311f9d,2022-09-08_14h36.39.712,CGTgamblingSpanTasks,2022.2.1,Win32,59.93766483,,,,,,,,2.1633,,,,,,,,,,,,,,1,v,1.8367,27.2532142,1,3.1633,1,,,,,,27.2532142,0,0.08089327,,,,,,,,,,,,,0,56,56,119,1,0.907091845,0,,,,,,,,,,,,,,,,,,,,,,,,,,,,,,,,,,,,,,,,,,,,,,,,,,,,,,,,,,,,,,,,,,,,,,,,,,,,,,,,
,,6150b927614a4f154f311f9d,2022-09-08_14h36.39.712,CGTgamblingSpanTasks,2022.2.1,Win32,59.93766483,,,,,,,,1.0582,,,,,,,,,,,,,,1,v,2.9418,21.48443242,1,2.0582,1,,,,,,21.48443242,0,2.229247341,,,,,,,,,,,,,0,57,57,63,1,0.488155912,1,,,,,,,,,,,,,,,,,,,,,,,,,,,,,,,,,,,,,,,,,,,,,,,,,,,,,,,,,,,,,,,,,,,,,,,,,,,,,,,,
,,6150b927614a4f154f311f9d,2022-09-08_14h36.39.712,CGTgamblingSpanTasks,2022.2.1,Win32,59.93766483,,,,,,,,2.1803,,,,,,,,,,,,,,1,v,1.8197,19.36415485,1,3.1803,1,,,,,,19.36415485,0,1.966229494,,,,,,,,,,,,,0,58,58,96,1,0.493893111,1,,,,,,,,,,,,,,,,,,,,,,,,,,,,,,,,,,,,,,,,,,,,,,,,,,,,,,,,,,,,,,,,,,,,,,,,,,,,,,,,
,,6150b927614a4f154f311f9d,2022-09-08_14h36.39.712,CGTgamblingSpanTasks,2022.2.1,Win32,59.93766483,,,,,,,,2.3116,,,,,,,,,,,,,,1,n,1.6884,4.251676631,0,3.3116,1,,,,,,3.395192929,0,4.251676631,,,,,,,,,,,,,0,59,59,7,1,0.023467153,0,,,,,,,,,,,,,,,,,,,,,,,,,,,,,,,,,,,,,,,,,,,,,,,,,,,,,,,,,,,,,,,,,,,,,,,,,,,,,,,,
,,6150b927614a4f154f311f9d,2022-09-08_14h36.39.712,CGTgamblingSpanTasks,2022.2.1,Win32,59.93766483,,,,,,,,2.3626,,,,,,,,,,,,,,1,v,1.6374,25.65316415,1,3.3626,1,,,,,,25.65316415,0,0.079652925,,,,,,,,,,,,,0,60,60,109,1,0.90568168,0,,,,,,,,,,,,,,,,,,,,,,,,,,,,,,,,,,,,,,,,,,,,,,,,,,,,,,,,,,,,,,,,,,,,,,,,,,,,,,,,
,,6150b927614a4f154f311f9d,2022-09-08_14h36.39.712,CGTgamblingSpanTasks,2022.2.1,Win32,59.93766483,,,,,,,,1.6293,,,,,,,,,,,,,,2,n,2.3707,0,1,2.6293,1,,,,,,6.662965216,0,6.091504705,,,,,,,,,,,,,0,61,61,102,1,0.035087099,0,,,,,,,,,,,,,,,,,,,,,,,,,,,,,,,,,,,,,,,,,,,,,,,,,,,,,,,,,,,,,,,,,,,,,,,,,,,,,,,,
,,6150b927614a4f154f311f9d,2022-09-08_14h36.39.712,CGTgamblingSpanTasks,2022.2.1,Win32,59.93766483,,,,,,,,2.2456,,,,,,,,,,,,,,2,n,1.7544,0,1,3.7456,1.5,,,,,,19.68065872,0,1.843597162,,,,,,,,,,,,,0,62,62,80,1,0.514941058,1,,,,,,,,,,,,,,,,,,,,,,,,,,,,,,,,,,,,,,,,,,,,,,,,,,,,,,,,,,,,,,,,,,,,,,,,,,,,,,,,
,,6150b927614a4f154f311f9d,2022-09-08_14h36.39.712,CGTgamblingSpanTasks,2022.2.1,Win32,59.93766483,,,,,,,,2.4217,,,,,,,,,,,,,,1,v,1.5783,17.67865084,1,3.4217,1,,,,,,17.67865084,0,11.35147481,,,,,,,,,,,,,0,63,63,91,1,0.067304606,0,,,,,,,,,,,,,,,,,,,,,,,,,,,,,,,,,,,,,,,,,,,,,,,,,,,,,,,,,,,,,,,,,,,,,,,,,,,,,,,,
,,6150b927614a4f154f311f9d,2022-09-08_14h36.39.712,CGTgamblingSpanTasks,2022.2.1,Win32,59.93766483,,,,,,,,2.5611,,,,,,,,,,,,,,2,n,1.4389,20.5726842,1,3.5611,1,,,,,,20.5726842,0,0.073558523,,,,,,,,,,,,,0,64,64,26,1,0.901008565,0,,,,,,,,,,,,,,,,,,,,,,,,,,,,,,,,,,,,,,,,,,,,,,,,,,,,,,,,,,,,,,,,,,,,,,,,,,,,,,,,
,,6150b927614a4f154f311f9d,2022-09-08_14h36.39.712,CGTgamblingSpanTasks,2022.2.1,Win32,59.93766483,,,,,,,,2.5637,,,,,,,,,,,,,,2,n,1.4363,0,1,4.0637,1.5,,,,,,28.18900855,0,0.05384276,,,,,,,,,,,,,0,65,65,55,1,0.919081308,0,,,,,,,,,,,,,,,,,,,,,,,,,,,,,,,,,,,,,,,,,,,,,,,,,,,,,,,,,,,,,,,,,,,,,,,,,,,,,,,,
,,6150b927614a4f154f311f9d,2022-09-08_14h36.39.712,CGTgamblingSpanTasks,2022.2.1,Win32,59.93766483,,,,,,,,0.4275,,,,,,,,,,,,,,2,n,3.5725,0,1,1.4275,1,,,,,,13.84410806,0,1.535873964,,,,,,,,,,,,,0,66,66,88,1,0.470209002,1,,,,,,,,,,,,,,,,,,,,,,,,,,,,,,,,,,,,,,,,,,,,,,,,,,,,,,,,,,,,,,,,,,,,,,,,,,,,,,,,
,,6150b927614a4f154f311f9d,2022-09-08_14h36.39.712,CGTgamblingSpanTasks,2022.2.1,Win32,59.93766483,,,,,,,,2.3352,,,,,,,,,,,,,,1,v,1.6648,0,1,3.3352,1,,,,,,24.66627941,0,2.765426402,,,,,,,,,,,,,0,67,67,24,1,0.467360588,1,,,,,,,,,,,,,,,,,,,,,,,,,,,,,,,,,,,,,,,,,,,,,,,,,,,,,,,,,,,,,,,,,,,,,,,,,,,,,,,,
,,6150b927614a4f154f311f9d,2022-09-08_14h36.39.712,CGTgamblingSpanTasks,2022.2.1,Win32,59.93766483,,,,,,,,1.8658,,,,,,,,,,,,,,1,v,2.1342,0,1,3.3658,1.5,,,,,,18.50662664,0,0.052546026,,,,,,,,,,,,,0,68,68,112,1,0.908444837,0,,,,,,,,,,,,,,,,,,,,,,,,,,,,,,,,,,,,,,,,,,,,,,,,,,,,,,,,,,,,,,,,,,,,,,,,,,,,,,,,
,,6150b927614a4f154f311f9d,2022-09-08_14h36.39.712,CGTgamblingSpanTasks,2022.2.1,Win32,59.93766483,,,,,,,,3.2812,,,,,,,,,,,,,,1,v,0.7188,0,1,4.7812,1.5,,,,,,27.57491653,0,2.99133314,,,,,,,,,,,,,0,69,69,10,1,0.47625893,1,,,,,,,,,,,,,,,,,,,,,,,,,,,,,,,,,,,,,,,,,,,,,,,,,,,,,,,,,,,,,,,,,,,,,,,,,,,,,,,,
,,6150b927614a4f154f311f9d,2022-09-08_14h36.39.712,CGTgamblingSpanTasks,2022.2.1,Win32,59.93766483,,,,,,,,2.4276,,,,,,,,,,,,,,2,v,1.5724,10.41201161,0,3.9276,1.5,,,,,,6.307062696,0,10.41201161,,,,,,,,,,,,,0,70,70,23,1,0.018187109,0,,,,,,,,,,,,,,,,,,,,,,,,,,,,,,,,,,,,,,,,,,,,,,,,,,,,,,,,,,,,,,,,,,,,,,,,,,,,,,,,
,,6150b927614a4f154f311f9d,2022-09-08_14h36.39.712,CGTgamblingSpanTasks,2022.2.1,Win32,59.93766483,,,,,,,,3.0307,,,,,,,,,,,,,,2,n,0.9693,7.534278541,1,4.5307,1.5,,,,,,7.534278541,0,0.747140182,,,,,,,,,,,,,0,71,71,37,1,0.50012466,1,,,,,,,,,,,,,,,,,,,,,,,,,,,,,,,,,,,,,,,,,,,,,,,,,,,,,,,,,,,,,,,,,,,,,,,,,,,,,,,,
,,6150b927614a4f154f311f9d,2022-09-08_14h36.39.712,CGTgamblingSpanTasks,2022.2.1,Win32,59.93766483,,,,,,,,3.2956,,,,,,,,,,,,,,1,v,0.7044,0,1,4.7956,1.5,,,,,,22.87092517,0,0.059276504,,,,,,,,,,,,,0,72,72,27,1,0.911114935,0,,,,,,,,,,,,,,,,,,,,,,,,,,,,,,,,,,,,,,,,,,,,,,,,,,,,,,,,,,,,,,,,,,,,,,,,,,,,,,,,
,,6150b927614a4f154f311f9d,2022-09-08_14h36.39.712,CGTgamblingSpanTasks,2022.2.1,Win32,59.93766483,,,,,,,,3.0597,,,,,,,,,,,,,,2,n,0.9403,0,1,4.0597,1,,,,,,21.16780451,0,2.469465385,,,,,,,,,,,,,0,73,73,32,1,0.456531699,1,,,,,,,,,,,,,,,,,,,,,,,,,,,,,,,,,,,,,,,,,,,,,,,,,,,,,,,,,,,,,,,,,,,,,,,,,,,,,,,,
,,6150b927614a4f154f311f9d,2022-09-08_14h36.39.712,CGTgamblingSpanTasks,2022.2.1,Win32,59.93766483,,,,,,,,3.1959,,,,,,,,,,,,,,2,n,0.8041,24.8002852,1,4.6959,1.5,,,,,,24.8002852,0,0.071848086,,,,,,,,,,,,,0,74,74,16,1,0.90783559,0,,,,,,,,,,,,,,,,,,,,,,,,,,,,,,,,,,,,,,,,,,,,,,,,,,,,,,,,,,,,,,,,,,,,,,,,,,,,,,,,
,,6150b927614a4f154f311f9d,2022-09-08_14h36.39.712,CGTgamblingSpanTasks,2022.2.1,Win32,59.93766483,,,,,,,,2.9827,,,,,,,,,,,,,,2,v,1.0173,7.50753835,0,4.4827,1.5,,,,,,2.231316635,0,7.50753835,,,,,,,,,,,,,0,75,75,29,1,0.010273427,0,,,,,,,,,,,,,,,,,,,,,,,,,,,,,,,,,,,,,,,,,,,,,,,,,,,,,,,,,,,,,,,,,,,,,,,,,,,,,,,,
,,6150b927614a4f154f311f9d,2022-09-08_14h36.39.712,CGTgamblingSpanTasks,2022.2.1,Win32,59.93766483,,,,,,,,1.8783,,,,,,,,,,,,,,1,v,2.1217,0,1,2.8783,1,,,,,,9.725876653,0,5.526483034,,,,,,,,,,,,,0,76,76,44,1,0.082550696,0,,,,,,,,,,,,,,,,,,,,,,,,,,,,,,,,,,,,,,,,,,,,,,,,,,,,,,,,,,,,,,,,,,,,,,,,,,,,,,,,
,,6150b927614a4f154f311f9d,2022-09-08_14h36.39.712,CGTgamblingSpanTasks,2022.2.1,Win32,59.93766483,,,,,,,,2.3105,,,,,,,,,,,,,,2,n,1.6895,13.4287264,1,3.3105,1,,,,,,13.4287264,0,1.317368801,,,,,,,,,,,,,0,77,77,100,1,0.502953125,1,,,,,,,,,,,,,,,,,,,,,,,,,,,,,,,,,,,,,,,,,,,,,,,,,,,,,,,,,,,,,,,,,,,,,,,,,,,,,,,,
,,6150b927614a4f154f311f9d,2022-09-08_14h36.39.712,CGTgamblingSpanTasks,2022.2.1,Win32,59.93766483,,,,,,,,2.6296,,,,,,,,,,,,,,2,n,1.3704,27.39221343,1,4.1296,1.5,,,,,,27.39221343,0,2.743407746,,,,,,,,,,,,,0,78,78,47,1,0.49752044,1,,,,,,,,,,,,,,,,,,,,,,,,,,,,,,,,,,,,,,,,,,,,,,,,,,,,,,,,,,,,,,,,,,,,,,,,,,,,,,,,
,,6150b927614a4f154f311f9d,2022-09-08_14h36.39.712,CGTgamblingSpanTasks,2022.2.1,Win32,59.93766483,,,,,,,,3.0414,,,,,,,,,,,,,,2,n,0.9586,0,1,4.5414,1.5,,,,,,15.43649625,0,1.65459324,,,,,,,,,,,,,0,79,79,33,1,0.479480163,1,,,,,,,,,,,,,,,,,,,,,,,,,,,,,,,,,,,,,,,,,,,,,,,,,,,,,,,,,,,,,,,,,,,,,,,,,,,,,,,,
,,6150b927614a4f154f311f9d,2022-09-08_14h36.39.712,CGTgamblingSpanTasks,2022.2.1,Win32,59.93766483,,,,,,,,2.7404,,,,,,,,,,,,,,2,n,1.2596,0,1,3.7404,1,,,,,,28.33977875,0,2.768313633,,,,,,,,,,,,,0,80,80,116,1,0.50406901,1,,,,,,,,,,,,,,,,,,,,,,,,,,,,,,,,,,,,,,,,,,,,,,,,,,,,,,,,,,,,,,,,,,,,,,,,,,,,,,,,
,,6150b927614a4f154f311f9d,2022-09-08_14h36.39.712,CGTgamblingSpanTasks,2022.2.1,Win32,59.93766483,,,,,,,,1.4927,,,,,,,,,,,,,,1,n,2.5073,11.42134125,0,2.4927,1,,,,,,12.9904115,0,11.42134125,,,,,,,,,,,,,0,81,81,118,1,0.037876033,0,,,,,,,,,,,,,,,,,,,,,,,,,,,,,,,,,,,,,,,,,,,,,,,,,,,,,,,,,,,,,,,,,,,,,,,,,,,,,,,,
,,6150b927614a4f154f311f9d,2022-09-08_14h36.39.712,CGTgamblingSpanTasks,2022.2.1,Win32,59.93766483,,,,,,,,2.8951,,,,,,,,,,,,,,2,n,1.1049,0,1,3.8951,1,,,,,,17.30137174,0,1.716380842,,,,,,,,,,,,,0,82,82,20,1,0.500020285,1,,,,,,,,,,,,,,,,,,,,,,,,,,,,,,,,,,,,,,,,,,,,,,,,,,,,,,,,,,,,,,,,,,,,,,,,,,,,,,,,
,,6150b927614a4f154f311f9d,2022-09-08_14h36.39.712,CGTgamblingSpanTasks,2022.2.1,Win32,59.93766483,,,,,,,,2.2121,,,,,,,,,,,,,,1,v,1.7879,18.16238569,1,3.7121,1.5,,,,,,18.16238569,0,1.540604093,,,,,,,,,,,,,0,83,83,34,1,0.540092491,1,,,,,,,,,,,,,,,,,,,,,,,,,,,,,,,,,,,,,,,,,,,,,,,,,,,,,,,,,,,,,,,,,,,,,,,,,,,,,,,,
,,6150b927614a4f154f311f9d,2022-09-08_14h36.39.712,CGTgamblingSpanTasks,2022.2.1,Win32,59.93766483,,,,,,,,1.163,,,,,,,,,,,,,,2,n,2.837,22.62475578,1,2.663,1.5,,,,,,22.62475578,0,2.397643354,,,,,,,,,,,,,0,84,84,93,1,0.482527609,1,,,,,,,,,,,,,,,,,,,,,,,,,,,,,,,,,,,,,,,,,,,,,,,,,,,,,,,,,,,,,,,,,,,,,,,,,,,,,,,,
,,6150b927614a4f154f311f9d,2022-09-08_14h36.39.712,CGTgamblingSpanTasks,2022.2.1,Win32,59.93766483,,,,,,,,2.1753,,,,,,,,,,,,,,2,n,1.8247,24.35708027,1,3.6753,1.5,,,,,,24.35708027,0,2.738695417,,,,,,,,,,,,,0,85,85,114,1,0.466573634,1,,,,,,,,,,,,,,,,,,,,,,,,,,,,,,,,,,,,,,,,,,,,,,,,,,,,,,,,,,,,,,,,,,,,,,,,,,,,,,,,
,,6150b927614a4f154f311f9d,2022-09-08_14h36.39.712,CGTgamblingSpanTasks,2022.2.1,Win32,59.93766483,,,,,,,,2.5131,,,,,,,,,,,,,,1,v,1.4869,0,1,4.0131,1.5,,,,,,21.7711579,0,2.502728921,,,,,,,,,,,,,0,86,86,101,1,0.460552621,1,,,,,,,,,,,,,,,,,,,,,,,,,,,,,,,,,,,,,,,,,,,,,,,,,,,,,,,,,,,,,,,,,,,,,,,,,,,,,,,,
,,6150b927614a4f154f311f9d,2022-09-08_14h36.39.712,CGTgamblingSpanTasks,2022.2.1,Win32,59.93766483,,,,,,,,1.8638,,,,,,,,,,,,,,1,v,2.1362,8.217594828,1,2.8638,1,,,,,,8.217594828,0,0.951019374,,,,,,,,,,,,,0,87,87,87,1,0.458722936,1,,,,,,,,,,,,,,,,,,,,,,,,,,,,,,,,,,,,,,,,,,,,,,,,,,,,,,,,,,,,,,,,,,,,,,,,,,,,,,,,
,,6150b927614a4f154f311f9d,2022-09-08_14h36.39.712,CGTgamblingSpanTasks,2022.2.1,Win32,59.93766483,,,,,,,,0,,,,,,,,,,,,,,1,,,,,1.5,1.5,,,,,,28.94627214,0,2.701896413,,,,,,,,,,,,,0,88,88,111,1,0.515860759,1,,,,,,,,,,,,,,,,,,,,,,,,,,,,,,,,,,,,,,,,,,,,,,,,,,,,,,,,,,,,,,,,,,,,,,,,,,,,,,,,
,,6150b927614a4f154f311f9d,2022-09-08_14h36.39.712,CGTgamblingSpanTasks,2022.2.1,Win32,59.93766483,,,,,,,,2.8345,,,,,,,,,,,,,,2,n,1.1655,22.0050376,1,4.3345,1.5,,,,,,22.0050376,0,2.257683666,,,,,,,,,,,,,0,89,89,4,1,0.491147312,1,,,,,,,,,,,,,,,,,,,,,,,,,,,,,,,,,,,,,,,,,,,,,,,,,,,,,,,,,,,,,,,,,,,,,,,,,,,,,,,,
,,6150b927614a4f154f311f9d,2022-09-08_14h36.39.712,CGTgamblingSpanTasks,2022.2.1,Win32,59.93766483,,,,,,,,2.4474,,,,,,,,,,,,,,2,n,1.5526,0,1,3.9474,1.5,,,,,,27.53810185,0,0.097022401,,,,,,,,,,,,,0,90,90,50,1,0.901515865,0,,,,,,,,,,,,,,,,,,,,,,,,,,,,,,,,,,,,,,,,,,,,,,,,,,,,,,,,,,,,,,,,,,,,,,,,,,,,,,,,
,,6150b927614a4f154f311f9d,2022-09-08_14h36.39.712,CGTgamblingSpanTasks,2022.2.1,Win32,59.93766483,,,,,,,,2.7423,,,,,,,,,,,,,,1,v,1.2577,0,1,3.7423,1,,,,,,27.4965044,0,2.461467004,,,,,,,,,,,,,0,91,91,36,1,0.526550878,1,,,,,,,,,,,,,,,,,,,,,,,,,,,,,,,,,,,,,,,,,,,,,,,,,,,,,,,,,,,,,,,,,,,,,,,,,,,,,,,,
,,6150b927614a4f154f311f9d,2022-09-08_14h36.39.712,CGTgamblingSpanTasks,2022.2.1,Win32,59.93766483,,,,,,,,3.1958,,,,,,,,,,,,,,2,n,0.8042,24.57684014,1,4.6958,1.5,,,,,,24.57684014,0,0.061756244,,,,,,,,,,,,,0,92,92,68,1,0.911988903,0,,,,,,,,,,,,,,,,,,,,,,,,,,,,,,,,,,,,,,,,,,,,,,,,,,,,,,,,,,,,,,,,,,,,,,,,,,,,,,,,
,,6150b927614a4f154f311f9d,2022-09-08_14h36.39.712,CGTgamblingSpanTasks,2022.2.1,Win32,59.93766483,,,,,,,,3.2451,,,,,,,,,,,,,,1,v,0.7549,27.37527992,1,4.7451,1.5,,,,,,27.37527992,0,2.860319095,,,,,,,,,,,,,0,93,93,39,1,0.486304156,1,,,,,,,,,,,,,,,,,,,,,,,,,,,,,,,,,,,,,,,,,,,,,,,,,,,,,,,,,,,,,,,,,,,,,,,,,,,,,,,,
,,6150b927614a4f154f311f9d,2022-09-08_14h36.39.712,CGTgamblingSpanTasks,2022.2.1,Win32,59.93766483,,,,,,,,1.8089,,,,,,,,,,,,,,1,v,2.1911,21.17800335,1,3.3089,1.5,,,,,,21.17800335,0,0.059830985,,,,,,,,,,,,,0,94,94,67,1,0.908594974,0,,,,,,,,,,,,,,,,,,,,,,,,,,,,,,,,,,,,,,,,,,,,,,,,,,,,,,,,,,,,,,,,,,,,,,,,,,,,,,,,
,,6150b927614a4f154f311f9d,2022-09-08_14h36.39.712,CGTgamblingSpanTasks,2022.2.1,Win32,59.93766483,,,,,,,,0.6076,,,,,,,,,,,,,,1,v,3.3924,18.11029021,1,1.6076,1,,,,,,18.11029021,0,11.41737518,,,,,,,,,,,,,0,95,95,48,1,0.069445859,0,,,,,,,,,,,,,,,,,,,,,,,,,,,,,,,,,,,,,,,,,,,,,,,,,,,,,,,,,,,,,,,,,,,,,,,,,,,,,,,,
,,6150b927614a4f154f311f9d,2022-09-08_14h36.39.712,CGTgamblingSpanTasks,2022.2.1,Win32,59.93766483,,,,,,,,1.5815,,,,,,,,,,,,,,1,v,2.4185,0,1,3.0815,1.5,,,,,,27.7711693,0,2.320849632,,,,,,,,,,,,,0,96,96,94,1,0.543786368,1,,,,,,,,,,,,,,,,,,,,,,,,,,,,,,,,,,,,,,,,,,,,,,,,,,,,,,,,,,,,,,,,,,,,,,,,,,,,,,,,
,,6150b927614a4f154f311f9d,2022-09-08_14h36.39.712,CGTgamblingSpanTasks,2022.2.1,Win32,59.93766483,,,,,,,,2.8762,,,,,,,,,,,,,,2,v,1.1238,7.646213173,0,3.8762,1,,,,,,2.042350179,0,7.646213173,,,,,,,,,,,,,0,97,97,53,1,0.009522273,0,,,,,,,,,,,,,,,,,,,,,,,,,,,,,,,,,,,,,,,,,,,,,,,,,,,,,,,,,,,,,,,,,,,,,,,,,,,,,,,,
,,6150b927614a4f154f311f9d,2022-09-08_14h36.39.712,CGTgamblingSpanTasks,2022.2.1,Win32,59.93766483,,,,,,,,2.1289,,,,,,,,,,,,,,1,v,1.8711,17.85020524,1,3.6289,1.5,,,,,,17.85020524,0,2.058701084,,,,,,,,,,,,,0,98,98,25,1,0.459662216,1,,,,,,,,,,,,,,,,,,,,,,,,,,,,,,,,,,,,,,,,,,,,,,,,,,,,,,,,,,,,,,,,,,,,,,,,,,,,,,,,
,,6150b927614a4f154f311f9d,2022-09-08_14h36.39.712,CGTgamblingSpanTasks,2022.2.1,Win32,59.93766483,,,,,,,,3.2122,,,,,,,,,,,,,,1,v,0.7878,0,1,4.7122,1.5,,,,,,25.56803059,0,2.543951743,,,,,,,,,,,,,0,99,99,41,1,0.499247217,1,,,,,,,,,,,,,,,,,,,,,,,,,,,,,,,,,,,,,,,,,,,,,,,,,,,,,,,,,,,,,,,,,,,,,,,,,,,,,,,,
,,6150b927614a4f154f311f9d,2022-09-08_14h36.39.712,CGTgamblingSpanTasks,2022.2.1,Win32,59.93766483,,,,,,,,3.3305,,,,,,,,,,,,,,1,v,0.6695,25.76582409,1,4.3305,1,,,,,,25.76582409,0,2.393193076,,,,,,,,,,,,,0,100,100,46,1,0.517129855,1,,,,,,,,,,,,,,,,,,,,,,,,,,,,,,,,,,,,,,,,,,,,,,,,,,,,,,,,,,,,,,,,,,,,,,,,,,,,,,,,
,,6150b927614a4f154f311f9d,2022-09-08_14h36.39.712,CGTgamblingSpanTasks,2022.2.1,Win32,59.93766483,,,,,,,,3.3589,,,,,,,,,,,,,,1,v,0.6411,28.68598705,1,4.8589,1.5,,,,,,28.68598705,0,0.050674956,,,,,,,,,,,,,0,101,101,62,1,0.920905497,0,,,,,,,,,,,,,,,,,,,,,,,,,,,,,,,,,,,,,,,,,,,,,,,,,,,,,,,,,,,,,,,,,,,,,,,,,,,,,,,,
,,6150b927614a4f154f311f9d,2022-09-08_14h36.39.712,CGTgamblingSpanTasks,2022.2.1,Win32,59.93766483,,,,,,,,0.542,,,,,,,,,,,,,,1,v,3.458,0,1,1.542,1,,,,,,17.23907308,0,2.055848574,,,,,,,,,,,,,0,102,102,66,1,0.450504458,1,,,,,,,,,,,,,,,,,,,,,,,,,,,,,,,,,,,,,,,,,,,,,,,,,,,,,,,,,,,,,,,,,,,,,,,,,,,,,,,,
,,6150b927614a4f154f311f9d,2022-09-08_14h36.39.712,CGTgamblingSpanTasks,2022.2.1,Win32,59.93766483,,,,,,,,0,,,,,,,,,,,,,,2,,,,,1.5,1.5,,,,,,14.20587264,0,11.93550497,,,,,,,,,,,,,0,103,103,21,1,0.041340301,0,,,,,,,,,,,,,,,,,,,,,,,,,,,,,,,,,,,,,,,,,,,,,,,,,,,,,,,,,,,,,,,,,,,,,,,,,,,,,,,,
,,6150b927614a4f154f311f9d,2022-09-08_14h36.39.712,CGTgamblingSpanTasks,2022.2.1,Win32,59.93766483,,,,,,,,2.719,,,,,,,,,,,,,,2,n,1.281,17.4320197,1,3.719,1,,,,,,17.4320197,0,1.448620949,,,,,,,,,,,,,0,104,104,30,1,0.545178213,1,,,,,,,,,,,,,,,,,,,,,,,,,,,,,,,,,,,,,,,,,,,,,,,,,,,,,,,,,,,,,,,,,,,,,,,,,,,,,,,,
,,6150b927614a4f154f311f9d,2022-09-08_14h36.39.712,CGTgamblingSpanTasks,2022.2.1,Win32,59.93766483,,,,,,,,2.489,,,,,,,,,,,,,,2,n,1.511,0,1,3.489,1,,,,,,15.87668502,0,8.42547829,,,,,,,,,,,,,0,105,105,56,1,0.092099462,0,,,,,,,,,,,,,,,,,,,,,,,,,,,,,,,,,,,,,,,,,,,,,,,,,,,,,,,,,,,,,,,,,,,,,,,,,,,,,,,,
,,6150b927614a4f154f311f9d,2022-09-08_14h36.39.712,CGTgamblingSpanTasks,2022.2.1,Win32,59.93766483,,,,,,,,2.13,,,,,,,,,,,,,,1,n,1.87,4.904872644,0,3.13,1,,,,,,4.698775357,0,4.904872644,,,,,,,,,,,,,0,106,106,75,1,0.028064484,0,,,,,,,,,,,,,,,,,,,,,,,,,,,,,,,,,,,,,,,,,,,,,,,,,,,,,,,,,,,,,,,,,,,,,,,,,,,,,,,,
,,6150b927614a4f154f311f9d,2022-09-08_14h36.39.712,CGTgamblingSpanTasks,2022.2.1,Win32,59.93766483,,,,,,,,1.477,,,,,,,,,,,,,,1,n,2.523,11.6744431,0,2.977,1.5,,,,,,10.43004651,0,11.6744431,,,,,,,,,,,,,0,107,107,15,1,0.026176489,0,,,,,,,,,,,,,,,,,,,,,,,,,,,,,,,,,,,,,,,,,,,,,,,,,,,,,,,,,,,,,,,,,,,,,,,,,,,,,,,,
,,6150b927614a4f154f311f9d,2022-09-08_14h36.39.712,CGTgamblingSpanTasks,2022.2.1,Win32,59.93766483,,,,,,,,2.304,,,,,,,,,,,,,,2,n,1.696,0,1,3.304,1,,,,,,15.13999312,0,8.653432553,,,,,,,,,,,,,0,108,108,54,1,0.081767484,0,,,,,,,,,,,,,,,,,,,,,,,,,,,,,,,,,,,,,,,,,,,,,,,,,,,,,,,,,,,,,,,,,,,,,,,,,,,,,,,,
,,6150b927614a4f154f311f9d,2022-09-08_14h36.39.712,CGTgamblingSpanTasks,2022.2.1,Win32,59.93766483,,,,,,,,3.3095,,,,,,,,,,,,,,2,n,0.6905,0,1,4.3095,1,,,,,,27.94544945,0,2.32030209,,,,,,,,,,,,,0,109,109,115,1,0.545390564,1,,,,,,,,,,,,,,,,,,,,,,,,,,,,,,,,,,,,,,,,,,,,,,,,,,,,,,,,,,,,,,,,,,,,,,,,,,,,,,,,
,,6150b927614a4f154f311f9d,2022-09-08_14h36.39.712,CGTgamblingSpanTasks,2022.2.1,Win32,59.93766483,,,,,,,,2.7141,,,,,,,,,,,,,,1,v,1.2859,13.96521039,1,4.2141,1.5,,,,,,13.96521039,0,1.591282699,,,,,,,,,,,,,0,110,110,49,1,0.462956344,1,,,,,,,,,,,,,,,,,,,,,,,,,,,,,,,,,,,,,,,,,,,,,,,,,,,,,,,,,,,,,,,,,,,,,,,,,,,,,,,,
,,6150b927614a4f154f311f9d,2022-09-08_14h36.39.712,CGTgamblingSpanTasks,2022.2.1,Win32,59.93766483,,,,,,,,3.0801,,,,,,,,,,,,,,2,n,0.9199,21.00799273,1,4.5801,1.5,,,,,,21.00799273,0,0.067969053,,,,,,,,,,,,,0,111,111,92,1,0.904360262,0,,,,,,,,,,,,,,,,,,,,,,,,,,,,,,,,,,,,,,,,,,,,,,,,,,,,,,,,,,,,,,,,,,,,,,,,,,,,,,,,
,,6150b927614a4f154f311f9d,2022-09-08_14h36.39.712,CGTgamblingSpanTasks,2022.2.1,Win32,59.93766483,,,,,,,,2.3423,,,,,,,,,,,,,,1,v,1.6577,0,1,3.3423,1,,,,,,26.11188619,0,0.081942421,,,,,,,,,,,,,0,112,112,105,1,0.905343856,0,,,,,,,,,,,,,,,,,,,,,,,,,,,,,,,,,,,,,,,,,,,,,,,,,,,,,,,,,,,,,,,,,,,,,,,,,,,,,,,,
,,6150b927614a4f154f311f9d,2022-09-08_14h36.39.712,CGTgamblingSpanTasks,2022.2.1,Win32,59.93766483,,,,,,,,3.3456,,,,,,,,,,,,,,2,n,0.6544,28.9323758,1,4.8456,1.5,,,,,,28.9323758,0,2.893007023,,,,,,,,,,,,,0,113,113,11,1,0.497943321,1,,,,,,,,,,,,,,,,,,,,,,,,,,,,,,,,,,,,,,,,,,,,,,,,,,,,,,,,,,,,,,,,,,,,,,,,,,,,,,,,
,,6150b927614a4f154f311f9d,2022-09-08_14h36.39.712,CGTgamblingSpanTasks,2022.2.1,Win32,59.93766483,,,,,,,,3.2542,,,,,,,,,,,,,,1,v,0.7458,23.59556381,1,4.7542,1.5,,,,,,23.59556381,0,2.464662219,,,,,,,,,,,,,0,114,114,22,1,0.486383205,1,,,,,,,,,,,,,,,,,,,,,,,,,,,,,,,,,,,,,,,,,,,,,,,,,,,,,,,,,,,,,,,,,,,,,,,,,,,,,,,,
,,6150b927614a4f154f311f9d,2022-09-08_14h36.39.712,CGTgamblingSpanTasks,2022.2.1,Win32,59.93766483,,,,,,,,3.1597,,,,,,,,,,,,,,2,n,0.8403,17.92584289,1,4.1597,1,,,,,,17.92584289,0,1.878232496,,,,,,,,,,,,,0,115,115,5,1,0.485559263,1,,,,,,,,,,,,,,,,,,,,,,,,,,,,,,,,,,,,,,,,,,,,,,,,,,,,,,,,,,,,,,,,,,,,,,,,,,,,,,,,
,,6150b927614a4f154f311f9d,2022-09-08_14h36.39.712,CGTgamblingSpanTasks,2022.2.1,Win32,59.93766483,,,,,,,,3.1118,,,,,,,,,,,,,,1,v,0.8882,25.0707644,1,4.6118,1.5,,,,,,25.0707644,0,0.067651625,,,,,,,,,,,,,0,116,116,70,1,0.909952349,0,,,,,,,,,,,,,,,,,,,,,,,,,,,,,,,,,,,,,,,,,,,,,,,,,,,,,,,,,,,,,,,,,,,,,,,,,,,,,,,,
,,6150b927614a4f154f311f9d,2022-09-08_14h36.39.712,CGTgamblingSpanTasks,2022.2.1,Win32,59.93766483,,,,,,,,2.2592,,,,,,,,,,,,,,2,n,1.7408,18.51345298,1,3.2592,1,,,,,,18.51345298,0,1.932334278,,,,,,,,,,,,,0,117,117,31,1,0.48658696,1,,,,,,,,,,,,,,,,,,,,,,,,,,,,,,,,,,,,,,,,,,,,,,,,,,,,,,,,,,,,,,,,,,,,,,,,,,,,,,,,
,,6150b927614a4f154f311f9d,2022-09-08_14h36.39.712,CGTgamblingSpanTasks,2022.2.1,Win32,59.93766483,,,,,,,,1.7523,,,,,,,,,,,,,,2,n,2.2477,27.88092897,1,3.2523,1.5,,,,,,27.88092897,0,2.771762788,,,,,,,,,,,,,0,118,118,117,1,0.499466648,1,,,,,,,,,,,,,,,,,,,,,,,,,,,,,,,,,,,,,,,,,,,,,,,,,,,,,,,,,,,,,,,,,,,,,,,,,,,,,,,,
,,6150b927614a4f154f311f9d,2022-09-08_14h36.39.712,CGTgamblingSpanTasks,2022.2.1,Win32,59.93766483,,,,,,,,2.2794,,,,,,,,,,,,,,2,n,1.7206,28.13634754,1,3.2794,1,,,,,,28.13634754,0,2.532806323,,,,,,,,,,,,,0,119,119,28,1,0.525136524,1,,,,,,,,,,,,,,,,,,,,,,,,,,,,,,,,,,,,,,,,,,,,,,,,,,,,,,,,,,,,,,,,,,,,,,,,,,,,,,,,
,,6150b927614a4f154f311f9d,2022-09-08_14h36.39.712,CGTgamblingSpanTasks,2022.2.1,Win32,59.93766483,,,,,,,,,,,,,,,,,,,,,,,,,,,,,,,,,,,,,,,,,,,,,,,,,,,,,,,,return,216.4816,,,,,,,,,,,,,,,,,,,,,,,,,,,,,,,,,,,,,,,,,,,,,,,,,,,,,,,,,,,,,,,,,,,,,,,,,,,,,,
,,6150b927614a4f154f311f9d,2022-09-08_14h36.39.712,CGTgamblingSpanTasks,2022.2.1,Win32,59.93766483,,,,,,,,,,,,,,,,,,,,,,,,,,,,,,,,,,,,,,,,,,,,,,,,,,,,,,,,,,return,19.7081,,,,,,,,,,,,,,,,,,,,,,,,,,,,,,,,,,,,,,,,,,,,,,,,,,,,,,,,,,,,,,,,,,,,,,,,,,,,
,,6150b927614a4f154f311f9d,2022-09-08_14h36.39.712,CGTgamblingSpanTasks,2022.2.1,Win32,59.93766483,,,,,,,,,,,,,,,,,,,,,,,,,,,,,,,,,,,,,,,,,,,,,,,,,,,,,,,,,,,,return,22.7765,,,,,,,,,,,,,,,,,,,,,,,,,,,,,,,,,,,,,,,,,,,,,,,,,,,,,,,,,,,,,,,,,,,,,,,,,,
,,6150b927614a4f154f311f9d,2022-09-08_14h36.39.712,CGTgamblingSpanTasks,2022.2.1,Win32,59.93766483,,,,,,,,,,,,,,,,,,,,,,,,,,,,,,,,,,,,,,,,,,,,,,,,,,,,,,,,,,,,,,342,1,-0.062037037,-0.400925926,1,0,0,cont_buttonPractice,0,0,0,0,1,3,342,24,2,42,,,,,,,,,,,,,,,,,,,,,,,,,,,,,,,,,,,,,,,,,,,,,,,,,,,,,,,,
,,6150b927614a4f154f311f9d,2022-09-08_14h36.39.712,CGTgamblingSpanTasks,2022.2.1,Win32,59.93766483,,,,,,,,,,,,,,,,,,,,,,,,,,,,,,,,,,,,,,,,,,,,,,,,,,,,,,,,,,,,,,937,1,0.013888889,-0.403703704,1,0,0,cont_buttonPractice,0,1,1,1,1,3,937,73,2,37,,,,,,,,,,,,,,,,,,,,,,,,,,,,,,,,,,,,,,,,,,,,,,,,,,,,,,,,
,,6150b927614a4f154f311f9d,2022-09-08_14h36.39.712,CGTgamblingSpanTasks,2022.2.1,Win32,59.93766483,,,,,,,,,,,,,,,,,,,,,,,,,,,,,,,,,,,,,,,,,,,,,,,,,,,,,,,,,,,,,,,,,,,,,,,,,,,,,,,,return,3.9555,,,,,,,,,,,,,,,,,,,,,,,,,,,,,,,,,,,,,,,,,,,,,,,,,,,,,,
,,6150b927614a4f154f311f9d,2022-09-08_14h36.39.712,CGTgamblingSpanTasks,2022.2.1,Win32,59.93766483,,,,,,,,,,,,,,,,,,,,,,,,,,,,,,,,,,,,,,,,,,,,,,,,,,,,,,,,,,,,,,,,,,,,,,,,,,,,,,,,,,"[3,2,5]",0,0,0,0,1,,,,,,,,,,,,,,,,,,,,,,,,,,,,,,,,,,,,,,,,,,,,,,,,
,,6150b927614a4f154f311f9d,2022-09-08_14h36.39.712,CGTgamblingSpanTasks,2022.2.1,Win32,59.93766483,,,,,,,,,,,,,,,,,,,,,,,,,,,,,,,,,,,,,,,,,,,,,,,,,,,,,,,,,,,,,,,,,,,,,,,,,,,,,,,,,,"[3,2,5]",1,0,1,0,1,,,,,,,,,,,,,,,,,,,,,,,,,,,,,,,,,,,,,,,,,,,,,,,,
,,6150b927614a4f154f311f9d,2022-09-08_14h36.39.712,CGTgamblingSpanTasks,2022.2.1,Win32,59.93766483,,,,,,,,,,,,,,,,,,,,,,,,,,,,,,,,,,,,,,,,,,,,,,,,,,,,,,,,,,,,,,,,,,,,,,,,,,,,,,,,,,"[3,2,5]",2,0,2,0,1,,,,,,,,,,,,,,,,,,,,,,,,,,,,,,,,,,,,,,,,,,,,,,,,
,,6150b927614a4f154f311f9d,2022-09-08_14h36.39.712,CGTgamblingSpanTasks,2022.2.1,Win32,59.93766483,,,,,,,,,,,,,,,,,,,,,,,,,,,,,,,,,,,,,,,,,,,,,,,,,,,,,,,,,,,,,,,1,,,,,,,,,,,,,,,,,,,,,,,,,325,0.030555556,-0.408333333,1,0,0,cont_button,0,0,0,0,1,1,,,,,,,,,,,,,,,,,,,,,,,,,,,,,,,,,,,
,,6150b927614a4f154f311f9d,2022-09-08_14h36.39.712,CGTgamblingSpanTasks,2022.2.1,Win32,59.93766483,,,,,,,,,,,,,,,,,,,,,,,,,,,,,,,,,,,,,,,,,,,,,,,,,,,,,,,,,,,,,,,,,,,,,,,,,,,,,,,,,,"[9,6,4,7]",0,0,0,0,1,,,,,,,,,,,,,,,,,,,,,,,,,,,,,,,,,,,,,,,,,,,,,,,,
,,6150b927614a4f154f311f9d,2022-09-08_14h36.39.712,CGTgamblingSpanTasks,2022.2.1,Win32,59.93766483,,,,,,,,,,,,,,,,,,,,,,,,,,,,,,,,,,,,,,,,,,,,,,,,,,,,,,,,,,,,,,,,,,,,,,,,,,,,,,,,,,"[9,6,4,7]",1,0,1,0,1,,,,,,,,,,,,,,,,,,,,,,,,,,,,,,,,,,,,,,,,,,,,,,,,
,,6150b927614a4f154f311f9d,2022-09-08_14h36.39.712,CGTgamblingSpanTasks,2022.2.1,Win32,59.93766483,,,,,,,,,,,,,,,,,,,,,,,,,,,,,,,,,,,,,,,,,,,,,,,,,,,,,,,,,,,,,,,,,,,,,,,,,,,,,,,,,,"[9,6,4,7]",2,0,2,0,1,,,,,,,,,,,,,,,,,,,,,,,,,,,,,,,,,,,,,,,,,,,,,,,,
,,6150b927614a4f154f311f9d,2022-09-08_14h36.39.712,CGTgamblingSpanTasks,2022.2.1,Win32,59.93766483,,,,,,,,,,,,,,,,,,,,,,,,,,,,,,,,,,,,,,,,,,,,,,,,,,,,,,,,,,,,,,,,,,,,,,,,,,,,,,,,,,"[9,6,4,7]",3,0,3,0,1,,,,,,,,,,,,,,,,,,,,,,,,,,,,,,,,,,,,,,,,,,,,,,,,
,,6150b927614a4f154f311f9d,2022-09-08_14h36.39.712,CGTgamblingSpanTasks,2022.2.1,Win32,59.93766483,,,,,,,,,,,,,,,,,,,,,,,,,,,,,,,,,,,,,,,,,,,,,,,,,,,,,,,,,,,,,,,1,,,,,,,,,,,,,,,,,,,,,,,,,9647,0.017592593,-0.381481481,1,0,0,cont_button,0,1,1,1,1,2,,,,,,,,,,,,,,,,,,,,,,,,,,,,,,,,,,,
,,6150b927614a4f154f311f9d,2022-09-08_14h36.39.712,CGTgamblingSpanTasks,2022.2.1,Win32,59.93766483,,,,,,,,,,,,,,,,,,,,,,,,,,,,,,,,,,,,,,,,,,,,,,,,,,,,,,,,,,,,,,,,,,,,,,,,,,,,,,,,,,"[7,4,9,2,6]",0,0,0,0,1,,,,,,,,,,,,,,,,,,,,,,,,,,,,,,,,,,,,,,,,,,,,,,,,
,,6150b927614a4f154f311f9d,2022-09-08_14h36.39.712,CGTgamblingSpanTasks,2022.2.1,Win32,59.93766483,,,,,,,,,,,,,,,,,,,,,,,,,,,,,,,,,,,,,,,,,,,,,,,,,,,,,,,,,,,,,,,,,,,,,,,,,,,,,,,,,,"[7,4,9,2,6]",1,0,1,0,1,,,,,,,,,,,,,,,,,,,,,,,,,,,,,,,,,,,,,,,,,,,,,,,,
,,6150b927614a4f154f311f9d,2022-09-08_14h36.39.712,CGTgamblingSpanTasks,2022.2.1,Win32,59.93766483,,,,,,,,,,,,,,,,,,,,,,,,,,,,,,,,,,,,,,,,,,,,,,,,,,,,,,,,,,,,,,,,,,,,,,,,,,,,,,,,,,"[7,4,9,2,6]",2,0,2,0,1,,,,,,,,,,,,,,,,,,,,,,,,,,,,,,,,,,,,,,,,,,,,,,,,
,,6150b927614a4f154f311f9d,2022-09-08_14h36.39.712,CGTgamblingSpanTasks,2022.2.1,Win32,59.93766483,,,,,,,,,,,,,,,,,,,,,,,,,,,,,,,,,,,,,,,,,,,,,,,,,,,,,,,,,,,,,,,,,,,,,,,,,,,,,,,,,,"[7,4,9,2,6]",3,0,3,0,1,,,,,,,,,,,,,,,,,,,,,,,,,,,,,,,,,,,,,,,,,,,,,,,,
,,6150b927614a4f154f311f9d,2022-09-08_14h36.39.712,CGTgamblingSpanTasks,2022.2.1,Win32,59.93766483,,,,,,,,,,,,,,,,,,,,,,,,,,,,,,,,,,,,,,,,,,,,,,,,,,,,,,,,,,,,,,,,,,,,,,,,,,,,,,,,,,"[7,4,9,2,6]",4,0,4,0,1,,,,,,,,,,,,,,,,,,,,,,,,,,,,,,,,,,,,,,,,,,,,,,,,
,,6150b927614a4f154f311f9d,2022-09-08_14h36.39.712,CGTgamblingSpanTasks,2022.2.1,Win32,59.93766483,,,,,,,,,,,,,,,,,,,,,,,,,,,,,,,,,,,,,,,,,,,,,,,,,,,,,,,,,,,,,,,1,,,,,,,,,,,,,,,,,,,,,,,,,74926,0.017592593,-0.383333333,1,0,0,cont_button,0,2,2,2,1,3,,,,,,,,,,,,,,,,,,,,,,,,,,,,,,,,,,,
,,6150b927614a4f154f311f9d,2022-09-08_14h36.39.712,CGTgamblingSpanTasks,2022.2.1,Win32,59.93766483,,,,,,,,,,,,,,,,,,,,,,,,,,,,,,,,,,,,,,,,,,,,,,,,,,,,,,,,,,,,,,,,,,,,,,,,,,,,,,,,,,"[1,8,3,4,9,7]",0,0,0,0,1,,,,,,,,,,,,,,,,,,,,,,,,,,,,,,,,,,,,,,,,,,,,,,,,
,,6150b927614a4f154f311f9d,2022-09-08_14h36.39.712,CGTgamblingSpanTasks,2022.2.1,Win32,59.93766483,,,,,,,,,,,,,,,,,,,,,,,,,,,,,,,,,,,,,,,,,,,,,,,,,,,,,,,,,,,,,,,,,,,,,,,,,,,,,,,,,,"[1,8,3,4,9,7]",1,0,1,0,1,,,,,,,,,,,,,,,,,,,,,,,,,,,,,,,,,,,,,,,,,,,,,,,,
,,6150b927614a4f154f311f9d,2022-09-08_14h36.39.712,CGTgamblingSpanTasks,2022.2.1,Win32,59.93766483,,,,,,,,,,,,,,,,,,,,,,,,,,,,,,,,,,,,,,,,,,,,,,,,,,,,,,,,,,,,,,,,,,,,,,,,,,,,,,,,,,"[1,8,3,4,9,7]",2,0,2,0,1,,,,,,,,,,,,,,,,,,,,,,,,,,,,,,,,,,,,,,,,,,,,,,,,
,,6150b927614a4f154f311f9d,2022-09-08_14h36.39.712,CGTgamblingSpanTasks,2022.2.1,Win32,59.93766483,,,,,,,,,,,,,,,,,,,,,,,,,,,,,,,,,,,,,,,,,,,,,,,,,,,,,,,,,,,,,,,,,,,,,,,,,,,,,,,,,,"[1,8,3,4,9,7]",3,0,3,0,1,,,,,,,,,,,,,,,,,,,,,,,,,,,,,,,,,,,,,,,,,,,,,,,,
,,6150b927614a4f154f311f9d,2022-09-08_14h36.39.712,CGTgamblingSpanTasks,2022.2.1,Win32,59.93766483,,,,,,,,,,,,,,,,,,,,,,,,,,,,,,,,,,,,,,,,,,,,,,,,,,,,,,,,,,,,,,,,,,,,,,,,,,,,,,,,,,"[1,8,3,4,9,7]",4,0,4,0,1,,,,,,,,,,,,,,,,,,,,,,,,,,,,,,,,,,,,,,,,,,,,,,,,
,,6150b927614a4f154f311f9d,2022-09-08_14h36.39.712,CGTgamblingSpanTasks,2022.2.1,Win32,59.93766483,,,,,,,,,,,,,,,,,,,,,,,,,,,,,,,,,,,,,,,,,,,,,,,,,,,,,,,,,,,,,,,,,,,,,,,,,,,,,,,,,,"[1,8,3,4,9,7]",5,0,5,0,1,,,,,,,,,,,,,,,,,,,,,,,,,,,,,,,,,,,,,,,,,,,,,,,,
,,6150b927614a4f154f311f9d,2022-09-08_14h36.39.712,CGTgamblingSpanTasks,2022.2.1,Win32,59.93766483,,,,,,,,,,,,,,,,,,,,,,,,,,,,,,,,,,,,,,,,,,,,,,,,,,,,,,,,,,,,,,,1,,,,,,,,,,,,,,,,,,,,,,,,,183497,0.017592593,-0.383333333,1,0,0,cont_button,0,3,3,3,1,4,,,,,,,,,,,,,,,,,,,,,,,,,,,,,,,,,,,
,,6150b927614a4f154f311f9d,2022-09-08_14h36.39.712,CGTgamblingSpanTasks,2022.2.1,Win32,59.93766483,,,,,,,,,,,,,,,,,,,,,,,,,,,,,,,,,,,,,,,,,,,,,,,,,,,,,,,,,,,,,,,,,,,,,,,,,,,,,,,,,,"[3,8,4,2,5,1,7]",0,0,0,0,1,,,,,,,,,,,,,,,,,,,,,,,,,,,,,,,,,,,,,,,,,,,,,,,,
,,6150b927614a4f154f311f9d,2022-09-08_14h36.39.712,CGTgamblingSpanTasks,2022.2.1,Win32,59.93766483,,,,,,,,,,,,,,,,,,,,,,,,,,,,,,,,,,,,,,,,,,,,,,,,,,,,,,,,,,,,,,,,,,,,,,,,,,,,,,,,,,"[3,8,4,2,5,1,7]",1,0,1,0,1,,,,,,,,,,,,,,,,,,,,,,,,,,,,,,,,,,,,,,,,,,,,,,,,
,,6150b927614a4f154f311f9d,2022-09-08_14h36.39.712,CGTgamblingSpanTasks,2022.2.1,Win32,59.93766483,,,,,,,,,,,,,,,,,,,,,,,,,,,,,,,,,,,,,,,,,,,,,,,,,,,,,,,,,,,,,,,,,,,,,,,,,,,,,,,,,,"[3,8,4,2,5,1,7]",2,0,2,0,1,,,,,,,,,,,,,,,,,,,,,,,,,,,,,,,,,,,,,,,,,,,,,,,,
,,6150b927614a4f154f311f9d,2022-09-08_14h36.39.712,CGTgamblingSpanTasks,2022.2.1,Win32,59.93766483,,,,,,,,,,,,,,,,,,,,,,,,,,,,,,,,,,,,,,,,,,,,,,,,,,,,,,,,,,,,,,,,,,,,,,,,,,,,,,,,,,"[3,8,4,2,5,1,7]",3,0,3,0,1,,,,,,,,,,,,,,,,,,,,,,,,,,,,,,,,,,,,,,,,,,,,,,,,
,,6150b927614a4f154f311f9d,2022-09-08_14h36.39.712,CGTgamblingSpanTasks,2022.2.1,Win32,59.93766483,,,,,,,,,,,,,,,,,,,,,,,,,,,,,,,,,,,,,,,,,,,,,,,,,,,,,,,,,,,,,,,,,,,,,,,,,,,,,,,,,,"[3,8,4,2,5,1,7]",4,0,4,0,1,,,,,,,,,,,,,,,,,,,,,,,,,,,,,,,,,,,,,,,,,,,,,,,,
,,6150b927614a4f154f311f9d,2022-09-08_14h36.39.712,CGTgamblingSpanTasks,2022.2.1,Win32,59.93766483,,,,,,,,,,,,,,,,,,,,,,,,,,,,,,,,,,,,,,,,,,,,,,,,,,,,,,,,,,,,,,,,,,,,,,,,,,,,,,,,,,"[3,8,4,2,5,1,7]",5,0,5,0,1,,,,,,,,,,,,,,,,,,,,,,,,,,,,,,,,,,,,,,,,,,,,,,,,
,,6150b927614a4f154f311f9d,2022-09-08_14h36.39.712,CGTgamblingSpanTasks,2022.2.1,Win32,59.93766483,,,,,,,,,,,,,,,,,,,,,,,,,,,,,,,,,,,,,,,,,,,,,,,,,,,,,,,,,,,,,,,,,,,,,,,,,,,,,,,,,,"[3,8,4,2,5,1,7]",6,0,6,0,1,,,,,,,,,,,,,,,,,,,,,,,,,,,,,,,,,,,,,,,,,,,,,,,,
,,6150b927614a4f154f311f9d,2022-09-08_14h36.39.712,CGTgamblingSpanTasks,2022.2.1,Win32,59.93766483,,,,,,,,,,,,,,,,,,,,,,,,,,,,,,,,,,,,,,,,,,,,,,,,,,,,,,,,,,,,,,,1,,,,,,,,,,,,,,,,,,,,,,,,,3842517,0.017592593,-0.383333333,1,0,0,cont_button,0,4,4,4,1,5,,,,,,,,,,,,,,,,,,,,,,,,,,,,,,,,,,,
,,6150b927614a4f154f311f9d,2022-09-08_14h36.39.712,CGTgamblingSpanTasks,2022.2.1,Win32,59.93766483,,,,,,,,,,,,,,,,,,,,,,,,,,,,,,,,,,,,,,,,,,,,,,,,,,,,,,,,,,,,,,,,,,,,,,,,,,,,,,,,,,"[4,7,9,8,5,2,3,1]",0,0,0,0,1,,,,,,,,,,,,,,,,,,,,,,,,,,,,,,,,,,,,,,,,,,,,,,,,
,,6150b927614a4f154f311f9d,2022-09-08_14h36.39.712,CGTgamblingSpanTasks,2022.2.1,Win32,59.93766483,,,,,,,,,,,,,,,,,,,,,,,,,,,,,,,,,,,,,,,,,,,,,,,,,,,,,,,,,,,,,,,,,,,,,,,,,,,,,,,,,,"[4,7,9,8,5,2,3,1]",1,0,1,0,1,,,,,,,,,,,,,,,,,,,,,,,,,,,,,,,,,,,,,,,,,,,,,,,,
,,6150b927614a4f154f311f9d,2022-09-08_14h36.39.712,CGTgamblingSpanTasks,2022.2.1,Win32,59.93766483,,,,,,,,,,,,,,,,,,,,,,,,,,,,,,,,,,,,,,,,,,,,,,,,,,,,,,,,,,,,,,,,,,,,,,,,,,,,,,,,,,"[4,7,9,8,5,2,3,1]",2,0,2,0,1,,,,,,,,,,,,,,,,,,,,,,,,,,,,,,,,,,,,,,,,,,,,,,,,
,,6150b927614a4f154f311f9d,2022-09-08_14h36.39.712,CGTgamblingSpanTasks,2022.2.1,Win32,59.93766483,,,,,,,,,,,,,,,,,,,,,,,,,,,,,,,,,,,,,,,,,,,,,,,,,,,,,,,,,,,,,,,,,,,,,,,,,,,,,,,,,,"[4,7,9,8,5,2,3,1]",3,0,3,0,1,,,,,,,,,,,,,,,,,,,,,,,,,,,,,,,,,,,,,,,,,,,,,,,,
,,6150b927614a4f154f311f9d,2022-09-08_14h36.39.712,CGTgamblingSpanTasks,2022.2.1,Win32,59.93766483,,,,,,,,,,,,,,,,,,,,,,,,,,,,,,,,,,,,,,,,,,,,,,,,,,,,,,,,,,,,,,,,,,,,,,,,,,,,,,,,,,"[4,7,9,8,5,2,3,1]",4,0,4,0,1,,,,,,,,,,,,,,,,,,,,,,,,,,,,,,,,,,,,,,,,,,,,,,,,
,,6150b927614a4f154f311f9d,2022-09-08_14h36.39.712,CGTgamblingSpanTasks,2022.2.1,Win32,59.93766483,,,,,,,,,,,,,,,,,,,,,,,,,,,,,,,,,,,,,,,,,,,,,,,,,,,,,,,,,,,,,,,,,,,,,,,,,,,,,,,,,,"[4,7,9,8,5,2,3,1]",5,0,5,0,1,,,,,,,,,,,,,,,,,,,,,,,,,,,,,,,,,,,,,,,,,,,,,,,,
,,6150b927614a4f154f311f9d,2022-09-08_14h36.39.712,CGTgamblingSpanTasks,2022.2.1,Win32,59.93766483,,,,,,,,,,,,,,,,,,,,,,,,,,,,,,,,,,,,,,,,,,,,,,,,,,,,,,,,,,,,,,,,,,,,,,,,,,,,,,,,,,"[4,7,9,8,5,2,3,1]",6,0,6,0,1,,,,,,,,,,,,,,,,,,,,,,,,,,,,,,,,,,,,,,,,,,,,,,,,
,,6150b927614a4f154f311f9d,2022-09-08_14h36.39.712,CGTgamblingSpanTasks,2022.2.1,Win32,59.93766483,,,,,,,,,,,,,,,,,,,,,,,,,,,,,,,,,,,,,,,,,,,,,,,,,,,,,,,,,,,,,,,,,,,,,,,,,,,,,,,,,,"[4,7,9,8,5,2,3,1]",7,0,7,0,1,,,,,,,,,,,,,,,,,,,,,,,,,,,,,,,,,,,,,,,,,,,,,,,,
,,6150b927614a4f154f311f9d,2022-09-08_14h36.39.712,CGTgamblingSpanTasks,2022.2.1,Win32,59.93766483,,,,,,,,,,,,,,,,,,,,,,,,,,,,,,,,,,,,,,,,,,,,,,,,,,,,,,,,,,,,,,,0,,,,,,,,,,,,,,,,,,,,,,,,,7985231,0.017592593,-0.383333333,1,0,0,cont_button,0,5,5,5,1,6,,,,,,,,,,,,,,,,,,,,,,,,,,,,,,,,,,,
,,6150b927614a4f154f311f9d,2022-09-08_14h36.39.712,CGTgamblingSpanTasks,2022.2.1,Win32,59.93766483,,,,,,,,,,,,,,,,,,,,,,,,,,,,,,,,,,,,,,,,,,,,,,,,,,,,,,,,,,,,,,,,,,,,,,,,,,,,,,,,,,"[7,5,8,2,6,9,1,4]",0,0,0,0,1,,,,,,,,,,,,,,,,,,,,,,,,,,,,,,,,,,,,,,,,,,,,,,,,
,,6150b927614a4f154f311f9d,2022-09-08_14h36.39.712,CGTgamblingSpanTasks,2022.2.1,Win32,59.93766483,,,,,,,,,,,,,,,,,,,,,,,,,,,,,,,,,,,,,,,,,,,,,,,,,,,,,,,,,,,,,,,,,,,,,,,,,,,,,,,,,,"[7,5,8,2,6,9,1,4]",1,0,1,0,1,,,,,,,,,,,,,,,,,,,,,,,,,,,,,,,,,,,,,,,,,,,,,,,,
,,6150b927614a4f154f311f9d,2022-09-08_14h36.39.712,CGTgamblingSpanTasks,2022.2.1,Win32,59.93766483,,,,,,,,,,,,,,,,,,,,,,,,,,,,,,,,,,,,,,,,,,,,,,,,,,,,,,,,,,,,,,,,,,,,,,,,,,,,,,,,,,"[7,5,8,2,6,9,1,4]",2,0,2,0,1,,,,,,,,,,,,,,,,,,,,,,,,,,,,,,,,,,,,,,,,,,,,,,,,
,,6150b927614a4f154f311f9d,2022-09-08_14h36.39.712,CGTgamblingSpanTasks,2022.2.1,Win32,59.93766483,,,,,,,,,,,,,,,,,,,,,,,,,,,,,,,,,,,,,,,,,,,,,,,,,,,,,,,,,,,,,,,,,,,,,,,,,,,,,,,,,,"[7,5,8,2,6,9,1,4]",3,0,3,0,1,,,,,,,,,,,,,,,,,,,,,,,,,,,,,,,,,,,,,,,,,,,,,,,,
,,6150b927614a4f154f311f9d,2022-09-08_14h36.39.712,CGTgamblingSpanTasks,2022.2.1,Win32,59.93766483,,,,,,,,,,,,,,,,,,,,,,,,,,,,,,,,,,,,,,,,,,,,,,,,,,,,,,,,,,,,,,,,,,,,,,,,,,,,,,,,,,"[7,5,8,2,6,9,1,4]",4,0,4,0,1,,,,,,,,,,,,,,,,,,,,,,,,,,,,,,,,,,,,,,,,,,,,,,,,
,,6150b927614a4f154f311f9d,2022-09-08_14h36.39.712,CGTgamblingSpanTasks,2022.2.1,Win32,59.93766483,,,,,,,,,,,,,,,,,,,,,,,,,,,,,,,,,,,,,,,,,,,,,,,,,,,,,,,,,,,,,,,,,,,,,,,,,,,,,,,,,,"[7,5,8,2,6,9,1,4]",5,0,5,0,1,,,,,,,,,,,,,,,,,,,,,,,,,,,,,,,,,,,,,,,,,,,,,,,,
,,6150b927614a4f154f311f9d,2022-09-08_14h36.39.712,CGTgamblingSpanTasks,2022.2.1,Win32,59.93766483,,,,,,,,,,,,,,,,,,,,,,,,,,,,,,,,,,,,,,,,,,,,,,,,,,,,,,,,,,,,,,,,,,,,,,,,,,,,,,,,,,"[7,5,8,2,6,9,1,4]",6,0,6,0,1,,,,,,,,,,,,,,,,,,,,,,,,,,,,,,,,,,,,,,,,,,,,,,,,
,,6150b927614a4f154f311f9d,2022-09-08_14h36.39.712,CGTgamblingSpanTasks,2022.2.1,Win32,59.93766483,,,,,,,,,,,,,,,,,,,,,,,,,,,,,,,,,,,,,,,,,,,,,,,,,,,,,,,,,,,,,,,,,,,,,,,,,,,,,,,,,,"[7,5,8,2,6,9,1,4]",7,0,7,0,1,,,,,,,,,,,,,,,,,,,,,,,,,,,,,,,,,,,,,,,,,,,,,,,,
,,6150b927614a4f154f311f9d,2022-09-08_14h36.39.712,CGTgamblingSpanTasks,2022.2.1,Win32,59.93766483,,,,,,,,,,,,,,,,,,,,,,,,,,,,,,,,,,,,,,,,,,,,,,,,,,,,,,,,,,,,,,,0,,,,,,,,,,,,,,,,,,,,,,,,,75826954,-0.00462963,-0.409259259,1,0,0,cont_button,0,6,6,6,1,7,,,,,,,,,,,,,,,,,,,,,,,,,,,,,,,,,,,
,,6150b927614a4f154f311f9d,2022-09-08_14h36.39.712,CGTgamblingSpanTasks,2022.2.1,Win32,59.93766483,,,,,,,,,,,,,,,,,,,,,,,,,,,,,,,,,,,,,,,,,,,,,,,,,,,,,,,,,,,,,,,,,,,,,,,,,,,,,,,,,,"[8,2,5,7,4,3,1]",0,0,0,0,1,,,,,,,,,,,,,,,,,,,,,,,,,,,,,,,,,,,,,,,,,,,,,,,,
,,6150b927614a4f154f311f9d,2022-09-08_14h36.39.712,CGTgamblingSpanTasks,2022.2.1,Win32,59.93766483,,,,,,,,,,,,,,,,,,,,,,,,,,,,,,,,,,,,,,,,,,,,,,,,,,,,,,,,,,,,,,,,,,,,,,,,,,,,,,,,,,"[8,2,5,7,4,3,1]",1,0,1,0,1,,,,,,,,,,,,,,,,,,,,,,,,,,,,,,,,,,,,,,,,,,,,,,,,
,,6150b927614a4f154f311f9d,2022-09-08_14h36.39.712,CGTgamblingSpanTasks,2022.2.1,Win32,59.93766483,,,,,,,,,,,,,,,,,,,,,,,,,,,,,,,,,,,,,,,,,,,,,,,,,,,,,,,,,,,,,,,,,,,,,,,,,,,,,,,,,,"[8,2,5,7,4,3,1]",2,0,2,0,1,,,,,,,,,,,,,,,,,,,,,,,,,,,,,,,,,,,,,,,,,,,,,,,,
,,6150b927614a4f154f311f9d,2022-09-08_14h36.39.712,CGTgamblingSpanTasks,2022.2.1,Win32,59.93766483,,,,,,,,,,,,,,,,,,,,,,,,,,,,,,,,,,,,,,,,,,,,,,,,,,,,,,,,,,,,,,,,,,,,,,,,,,,,,,,,,,"[8,2,5,7,4,3,1]",3,0,3,0,1,,,,,,,,,,,,,,,,,,,,,,,,,,,,,,,,,,,,,,,,,,,,,,,,
,,6150b927614a4f154f311f9d,2022-09-08_14h36.39.712,CGTgamblingSpanTasks,2022.2.1,Win32,59.93766483,,,,,,,,,,,,,,,,,,,,,,,,,,,,,,,,,,,,,,,,,,,,,,,,,,,,,,,,,,,,,,,,,,,,,,,,,,,,,,,,,,"[8,2,5,7,4,3,1]",4,0,4,0,1,,,,,,,,,,,,,,,,,,,,,,,,,,,,,,,,,,,,,,,,,,,,,,,,
,,6150b927614a4f154f311f9d,2022-09-08_14h36.39.712,CGTgamblingSpanTasks,2022.2.1,Win32,59.93766483,,,,,,,,,,,,,,,,,,,,,,,,,,,,,,,,,,,,,,,,,,,,,,,,,,,,,,,,,,,,,,,,,,,,,,,,,,,,,,,,,,"[8,2,5,7,4,3,1]",5,0,5,0,1,,,,,,,,,,,,,,,,,,,,,,,,,,,,,,,,,,,,,,,,,,,,,,,,
,,6150b927614a4f154f311f9d,2022-09-08_14h36.39.712,CGTgamblingSpanTasks,2022.2.1,Win32,59.93766483,,,,,,,,,,,,,,,,,,,,,,,,,,,,,,,,,,,,,,,,,,,,,,,,,,,,,,,,,,,,,,,,,,,,,,,,,,,,,,,,,,"[8,2,5,7,4,3,1]",6,0,6,0,1,,,,,,,,,,,,,,,,,,,,,,,,,,,,,,,,,,,,,,,,,,,,,,,,
,,6150b927614a4f154f311f9d,2022-09-08_14h36.39.712,CGTgamblingSpanTasks,2022.2.1,Win32,59.93766483,,,,,,,,,,,,,,,,,,,,,,,,,,,,,,,,,,,,,,,,,,,,,,,,,,,,,,,,,,,,,,,0,,,,,,,,,,,,,,,,,,,,,,,,,854753821,-0.026851852,-0.421296296,1,0,0,cont_button,0,7,7,7,1,8,,,,,,,,,,,,,,,,,,,,,,,,,,,,,,,,,,,
,,6150b927614a4f154f311f9d,2022-09-08_14h36.39.712,CGTgamblingSpanTasks,2022.2.1,Win32,59.93766483,,,,,,,,,,,,,,,,,,,,,,,,,,,,,,,,,,,,,,,,,,,,,,,,,,,,,,,,,,,,,,,,,,,,,,,,,,,,,,,,,,"[9,5,8,3,7,1,6]",0,0,0,0,1,,,,,,,,,,,,,,,,,,,,,,,,,,,,,,,,,,,,,,,,,,,,,,,,
,,6150b927614a4f154f311f9d,2022-09-08_14h36.39.712,CGTgamblingSpanTasks,2022.2.1,Win32,59.93766483,,,,,,,,,,,,,,,,,,,,,,,,,,,,,,,,,,,,,,,,,,,,,,,,,,,,,,,,,,,,,,,,,,,,,,,,,,,,,,,,,,"[9,5,8,3,7,1,6]",1,0,1,0,1,,,,,,,,,,,,,,,,,,,,,,,,,,,,,,,,,,,,,,,,,,,,,,,,
,,6150b927614a4f154f311f9d,2022-09-08_14h36.39.712,CGTgamblingSpanTasks,2022.2.1,Win32,59.93766483,,,,,,,,,,,,,,,,,,,,,,,,,,,,,,,,,,,,,,,,,,,,,,,,,,,,,,,,,,,,,,,,,,,,,,,,,,,,,,,,,,"[9,5,8,3,7,1,6]",2,0,2,0,1,,,,,,,,,,,,,,,,,,,,,,,,,,,,,,,,,,,,,,,,,,,,,,,,
,,6150b927614a4f154f311f9d,2022-09-08_14h36.39.712,CGTgamblingSpanTasks,2022.2.1,Win32,59.93766483,,,,,,,,,,,,,,,,,,,,,,,,,,,,,,,,,,,,,,,,,,,,,,,,,,,,,,,,,,,,,,,,,,,,,,,,,,,,,,,,,,"[9,5,8,3,7,1,6]",3,0,3,0,1,,,,,,,,,,,,,,,,,,,,,,,,,,,,,,,,,,,,,,,,,,,,,,,,
,,6150b927614a4f154f311f9d,2022-09-08_14h36.39.712,CGTgamblingSpanTasks,2022.2.1,Win32,59.93766483,,,,,,,,,,,,,,,,,,,,,,,,,,,,,,,,,,,,,,,,,,,,,,,,,,,,,,,,,,,,,,,,,,,,,,,,,,,,,,,,,,"[9,5,8,3,7,1,6]",4,0,4,0,1,,,,,,,,,,,,,,,,,,,,,,,,,,,,,,,,,,,,,,,,,,,,,,,,
,,6150b927614a4f154f311f9d,2022-09-08_14h36.39.712,CGTgamblingSpanTasks,2022.2.1,Win32,59.93766483,,,,,,,,,,,,,,,,,,,,,,,,,,,,,,,,,,,,,,,,,,,,,,,,,,,,,,,,,,,,,,,,,,,,,,,,,,,,,,,,,,"[9,5,8,3,7,1,6]",5,0,5,0,1,,,,,,,,,,,,,,,,,,,,,,,,,,,,,,,,,,,,,,,,,,,,,,,,
,,6150b927614a4f154f311f9d,2022-09-08_14h36.39.712,CGTgamblingSpanTasks,2022.2.1,Win32,59.93766483,,,,,,,,,,,,,,,,,,,,,,,,,,,,,,,,,,,,,,,,,,,,,,,,,,,,,,,,,,,,,,,,,,,,,,,,,,,,,,,,,,"[9,5,8,3,7,1,6]",6,0,6,0,1,,,,,,,,,,,,,,,,,,,,,,,,,,,,,,,,,,,,,,,,,,,,,,,,
,,6150b927614a4f154f311f9d,2022-09-08_14h36.39.712,CGTgamblingSpanTasks,2022.2.1,Win32,59.93766483,,,,,,,,,,,,,,,,,,,,,,,,,,,,,,,,,,,,,,,,,,,,,,,,,,,,,,,,,,,,,,,0,,,,,,,,,,,,,,,,,,,,,,,,,538576,-0.026851852,-0.421296296,1,0,0,cont_button,0,8,8,8,1,9,,,,,,,,,,,,,,,,,,,,,,,,,,,,,,,,,,,
,,6150b927614a4f154f311f9d,2022-09-08_14h36.39.712,CGTgamblingSpanTasks,2022.2.1,Win32,59.93766483,,,,,,,,,,,,,,,,,,,,,,,,,,,,,,,,,,,,,,,,,,,,,,,,,,,,,,,,,,,,,,,,,,,,,,,,,,,,,,,,,,"[9,5,2,4,7,1]",0,0,0,0,1,,,,,,,,,,,,,,,,,,,,,,,,,,,,,,,,,,,,,,,,,,,,,,,,
,,6150b927614a4f154f311f9d,2022-09-08_14h36.39.712,CGTgamblingSpanTasks,2022.2.1,Win32,59.93766483,,,,,,,,,,,,,,,,,,,,,,,,,,,,,,,,,,,,,,,,,,,,,,,,,,,,,,,,,,,,,,,,,,,,,,,,,,,,,,,,,,"[9,5,2,4,7,1]",1,0,1,0,1,,,,,,,,,,,,,,,,,,,,,,,,,,,,,,,,,,,,,,,,,,,,,,,,
,,6150b927614a4f154f311f9d,2022-09-08_14h36.39.712,CGTgamblingSpanTasks,2022.2.1,Win32,59.93766483,,,,,,,,,,,,,,,,,,,,,,,,,,,,,,,,,,,,,,,,,,,,,,,,,,,,,,,,,,,,,,,,,,,,,,,,,,,,,,,,,,"[9,5,2,4,7,1]",2,0,2,0,1,,,,,,,,,,,,,,,,,,,,,,,,,,,,,,,,,,,,,,,,,,,,,,,,
,,6150b927614a4f154f311f9d,2022-09-08_14h36.39.712,CGTgamblingSpanTasks,2022.2.1,Win32,59.93766483,,,,,,,,,,,,,,,,,,,,,,,,,,,,,,,,,,,,,,,,,,,,,,,,,,,,,,,,,,,,,,,,,,,,,,,,,,,,,,,,,,"[9,5,2,4,7,1]",3,0,3,0,1,,,,,,,,,,,,,,,,,,,,,,,,,,,,,,,,,,,,,,,,,,,,,,,,
,,6150b927614a4f154f311f9d,2022-09-08_14h36.39.712,CGTgamblingSpanTasks,2022.2.1,Win32,59.93766483,,,,,,,,,,,,,,,,,,,,,,,,,,,,,,,,,,,,,,,,,,,,,,,,,,,,,,,,,,,,,,,,,,,,,,,,,,,,,,,,,,"[9,5,2,4,7,1]",4,0,4,0,1,,,,,,,,,,,,,,,,,,,,,,,,,,,,,,,,,,,,,,,,,,,,,,,,
,,6150b927614a4f154f311f9d,2022-09-08_14h36.39.712,CGTgamblingSpanTasks,2022.2.1,Win32,59.93766483,,,,,,,,,,,,,,,,,,,,,,,,,,,,,,,,,,,,,,,,,,,,,,,,,,,,,,,,,,,,,,,,,,,,,,,,,,,,,,,,,,"[9,5,2,4,7,1]",5,0,5,0,1,,,,,,,,,,,,,,,,,,,,,,,,,,,,,,,,,,,,,,,,,,,,,,,,
,,6150b927614a4f154f311f9d,2022-09-08_14h36.39.712,CGTgamblingSpanTasks,2022.2.1,Win32,59.93766483,,,,,,,,,,,,,,,,,,,,,,,,,,,,,,,,,,,,,,,,,,,,,,,,,,,,,,,,,,,,,,,0,,,,,,,,,,,,,,,,,,,,,,,,,2271,-0.026851852,-0.421296296,1,0,0,cont_button,0,9,9,9,1,10,,,,,,,,,,,,,,,,,,,,,,,,,,,,,,,,,,,
,,6150b927614a4f154f311f9d,2022-09-08_14h36.39.712,CGTgamblingSpanTasks,2022.2.1,Win32,59.93766483,,,,,,,,,,,,,,,,,,,,,,,,,,,,,,,,,,,,,,,,,,,,,,,,,,,,,,,,,,,,,,,,,,,,,,,,,,,,,,,,,,"[8,4,5,3,1,9]",0,0,0,0,1,,,,,,,,,,,,,,,,,,,,,,,,,,,,,,,,,,,,,,,,,,,,,,,,
,,6150b927614a4f154f311f9d,2022-09-08_14h36.39.712,CGTgamblingSpanTasks,2022.2.1,Win32,59.93766483,,,,,,,,,,,,,,,,,,,,,,,,,,,,,,,,,,,,,,,,,,,,,,,,,,,,,,,,,,,,,,,,,,,,,,,,,,,,,,,,,,"[8,4,5,3,1,9]",1,0,1,0,1,,,,,,,,,,,,,,,,,,,,,,,,,,,,,,,,,,,,,,,,,,,,,,,,
,,6150b927614a4f154f311f9d,2022-09-08_14h36.39.712,CGTgamblingSpanTasks,2022.2.1,Win32,59.93766483,,,,,,,,,,,,,,,,,,,,,,,,,,,,,,,,,,,,,,,,,,,,,,,,,,,,,,,,,,,,,,,,,,,,,,,,,,,,,,,,,,"[8,4,5,3,1,9]",2,0,2,0,1,,,,,,,,,,,,,,,,,,,,,,,,,,,,,,,,,,,,,,,,,,,,,,,,
,,6150b927614a4f154f311f9d,2022-09-08_14h36.39.712,CGTgamblingSpanTasks,2022.2.1,Win32,59.93766483,,,,,,,,,,,,,,,,,,,,,,,,,,,,,,,,,,,,,,,,,,,,,,,,,,,,,,,,,,,,,,,,,,,,,,,,,,,,,,,,,,"[8,4,5,3,1,9]",3,0,3,0,1,,,,,,,,,,,,,,,,,,,,,,,,,,,,,,,,,,,,,,,,,,,,,,,,
,,6150b927614a4f154f311f9d,2022-09-08_14h36.39.712,CGTgamblingSpanTasks,2022.2.1,Win32,59.93766483,,,,,,,,,,,,,,,,,,,,,,,,,,,,,,,,,,,,,,,,,,,,,,,,,,,,,,,,,,,,,,,,,,,,,,,,,,,,,,,,,,"[8,4,5,3,1,9]",4,0,4,0,1,,,,,,,,,,,,,,,,,,,,,,,,,,,,,,,,,,,,,,,,,,,,,,,,
,,6150b927614a4f154f311f9d,2022-09-08_14h36.39.712,CGTgamblingSpanTasks,2022.2.1,Win32,59.93766483,,,,,,,,,,,,,,,,,,,,,,,,,,,,,,,,,,,,,,,,,,,,,,,,,,,,,,,,,,,,,,,,,,,,,,,,,,,,,,,,,,"[8,4,5,3,1,9]",5,0,5,0,1,,,,,,,,,,,,,,,,,,,,,,,,,,,,,,,,,,,,,,,,,,,,,,,,
,,6150b927614a4f154f311f9d,2022-09-08_14h36.39.712,CGTgamblingSpanTasks,2022.2.1,Win32,59.93766483,,,,,,,,,,,,,,,,,,,,,,,,,,,,,,,,,,,,,,,,,,,,,,,,,,,,,,,,,,,,,,,1,,,,,,,,,,,,,,,,,,,,,,,,,845319,-0.026851852,-0.421296296,1,0,0,cont_button,0,10,10,10,1,11,,,,,,,,,,,,,,,,,,,,,,,,,,,,,,,,,,,
,,6150b927614a4f154f311f9d,2022-09-08_14h36.39.712,CGTgamblingSpanTasks,2022.2.1,Win32,59.93766483,,,,,,,,,,,,,,,,,,,,,,,,,,,,,,,,,,,,,,,,,,,,,,,,,,,,,,,,,,,,,,,,,,,,,,,,,,,,,,,,,,"[1,3,6,2,5,7,4]",0,0,0,0,1,,,,,,,,,,,,,,,,,,,,,,,,,,,,,,,,,,,,,,,,,,,,,,,,
,,6150b927614a4f154f311f9d,2022-09-08_14h36.39.712,CGTgamblingSpanTasks,2022.2.1,Win32,59.93766483,,,,,,,,,,,,,,,,,,,,,,,,,,,,,,,,,,,,,,,,,,,,,,,,,,,,,,,,,,,,,,,,,,,,,,,,,,,,,,,,,,"[1,3,6,2,5,7,4]",1,0,1,0,1,,,,,,,,,,,,,,,,,,,,,,,,,,,,,,,,,,,,,,,,,,,,,,,,
,,6150b927614a4f154f311f9d,2022-09-08_14h36.39.712,CGTgamblingSpanTasks,2022.2.1,Win32,59.93766483,,,,,,,,,,,,,,,,,,,,,,,,,,,,,,,,,,,,,,,,,,,,,,,,,,,,,,,,,,,,,,,,,,,,,,,,,,,,,,,,,,"[1,3,6,2,5,7,4]",2,0,2,0,1,,,,,,,,,,,,,,,,,,,,,,,,,,,,,,,,,,,,,,,,,,,,,,,,
,,6150b927614a4f154f311f9d,2022-09-08_14h36.39.712,CGTgamblingSpanTasks,2022.2.1,Win32,59.93766483,,,,,,,,,,,,,,,,,,,,,,,,,,,,,,,,,,,,,,,,,,,,,,,,,,,,,,,,,,,,,,,,,,,,,,,,,,,,,,,,,,"[1,3,6,2,5,7,4]",3,0,3,0,1,,,,,,,,,,,,,,,,,,,,,,,,,,,,,,,,,,,,,,,,,,,,,,,,
,,6150b927614a4f154f311f9d,2022-09-08_14h36.39.712,CGTgamblingSpanTasks,2022.2.1,Win32,59.93766483,,,,,,,,,,,,,,,,,,,,,,,,,,,,,,,,,,,,,,,,,,,,,,,,,,,,,,,,,,,,,,,,,,,,,,,,,,,,,,,,,,"[1,3,6,2,5,7,4]",4,0,4,0,1,,,,,,,,,,,,,,,,,,,,,,,,,,,,,,,,,,,,,,,,,,,,,,,,
,,6150b927614a4f154f311f9d,2022-09-08_14h36.39.712,CGTgamblingSpanTasks,2022.2.1,Win32,59.93766483,,,,,,,,,,,,,,,,,,,,,,,,,,,,,,,,,,,,,,,,,,,,,,,,,,,,,,,,,,,,,,,,,,,,,,,,,,,,,,,,,,"[1,3,6,2,5,7,4]",5,0,5,0,1,,,,,,,,,,,,,,,,,,,,,,,,,,,,,,,,,,,,,,,,,,,,,,,,
,,6150b927614a4f154f311f9d,2022-09-08_14h36.39.712,CGTgamblingSpanTasks,2022.2.1,Win32,59.93766483,,,,,,,,,,,,,,,,,,,,,,,,,,,,,,,,,,,,,,,,,,,,,,,,,,,,,,,,,,,,,,,,,,,,,,,,,,,,,,,,,,"[1,3,6,2,5,7,4]",6,0,6,0,1,,,,,,,,,,,,,,,,,,,,,,,,,,,,,,,,,,,,,,,,,,,,,,,,
,,6150b927614a4f154f311f9d,2022-09-08_14h36.39.712,CGTgamblingSpanTasks,2022.2.1,Win32,59.93766483,,,,,,,,,,,,,,,,,,,,,,,,,,,,,,,,,,,,,,,,,,,,,,,,,,,,,,,,,,,,,,,0,,,,,,,,,,,,,,,,,,,,,,,,,362574,-0.026851852,-0.421296296,1,0,0,cont_button,0,11,11,11,1,12,,,,,,,,,,,,,,,,,,,,,,,,,,,,,,,,,,,
,,6150b927614a4f154f311f9d,2022-09-08_14h36.39.712,CGTgamblingSpanTasks,2022.2.1,Win32,59.93766483,,,,,,,,,,,,,,,,,,,,,,,,,,,,,,,,,,,,,,,,,,,,,,,,,,,,,,,,,,,,,,,,,,,,,,,,,,,,,,,,,,"[9,8,3,5,1,2,4]",0,0,0,0,1,,,,,,,,,,,,,,,,,,,,,,,,,,,,,,,,,,,,,,,,,,,,,,,,
,,6150b927614a4f154f311f9d,2022-09-08_14h36.39.712,CGTgamblingSpanTasks,2022.2.1,Win32,59.93766483,,,,,,,,,,,,,,,,,,,,,,,,,,,,,,,,,,,,,,,,,,,,,,,,,,,,,,,,,,,,,,,,,,,,,,,,,,,,,,,,,,"[9,8,3,5,1,2,4]",1,0,1,0,1,,,,,,,,,,,,,,,,,,,,,,,,,,,,,,,,,,,,,,,,,,,,,,,,
,,6150b927614a4f154f311f9d,2022-09-08_14h36.39.712,CGTgamblingSpanTasks,2022.2.1,Win32,59.93766483,,,,,,,,,,,,,,,,,,,,,,,,,,,,,,,,,,,,,,,,,,,,,,,,,,,,,,,,,,,,,,,,,,,,,,,,,,,,,,,,,,"[9,8,3,5,1,2,4]",2,0,2,0,1,,,,,,,,,,,,,,,,,,,,,,,,,,,,,,,,,,,,,,,,,,,,,,,,
,,6150b927614a4f154f311f9d,2022-09-08_14h36.39.712,CGTgamblingSpanTasks,2022.2.1,Win32,59.93766483,,,,,,,,,,,,,,,,,,,,,,,,,,,,,,,,,,,,,,,,,,,,,,,,,,,,,,,,,,,,,,,,,,,,,,,,,,,,,,,,,,"[9,8,3,5,1,2,4]",3,0,3,0,1,,,,,,,,,,,,,,,,,,,,,,,,,,,,,,,,,,,,,,,,,,,,,,,,
,,6150b927614a4f154f311f9d,2022-09-08_14h36.39.712,CGTgamblingSpanTasks,2022.2.1,Win32,59.93766483,,,,,,,,,,,,,,,,,,,,,,,,,,,,,,,,,,,,,,,,,,,,,,,,,,,,,,,,,,,,,,,,,,,,,,,,,,,,,,,,,,"[9,8,3,5,1,2,4]",4,0,4,0,1,,,,,,,,,,,,,,,,,,,,,,,,,,,,,,,,,,,,,,,,,,,,,,,,
,,6150b927614a4f154f311f9d,2022-09-08_14h36.39.712,CGTgamblingSpanTasks,2022.2.1,Win32,59.93766483,,,,,,,,,,,,,,,,,,,,,,,,,,,,,,,,,,,,,,,,,,,,,,,,,,,,,,,,,,,,,,,,,,,,,,,,,,,,,,,,,,"[9,8,3,5,1,2,4]",5,0,5,0,1,,,,,,,,,,,,,,,,,,,,,,,,,,,,,,,,,,,,,,,,,,,,,,,,
,,6150b927614a4f154f311f9d,2022-09-08_14h36.39.712,CGTgamblingSpanTasks,2022.2.1,Win32,59.93766483,,,,,,,,,,,,,,,,,,,,,,,,,,,,,,,,,,,,,,,,,,,,,,,,,,,,,,,,,,,,,,,,,,,,,,,,,,,,,,,,,,"[9,8,3,5,1,2,4]",6,0,6,0,1,,,,,,,,,,,,,,,,,,,,,,,,,,,,,,,,,,,,,,,,,,,,,,,,
,,6150b927614a4f154f311f9d,2022-09-08_14h36.39.712,CGTgamblingSpanTasks,2022.2.1,Win32,59.93766483,,,,,,,,,,,,,,,,,,,,,,,,,,,,,,,,,,,,,,,,,,,,,,,,,,,,,,,,,,,,,,,1,,,,,,,,,,,,,,,,,,,,,,,,,9835124,-0.026851852,-0.421296296,1,0,0,cont_button,0,12,12,12,1,13,,,,,,,,,,,,,,,,,,,,,,,,,,,,,,,,,,,
,,6150b927614a4f154f311f9d,2022-09-08_14h36.39.712,CGTgamblingSpanTasks,2022.2.1,Win32,59.93766483,,,,,,,,,,,,,,,,,,,,,,,,,,,,,,,,,,,,,,,,,,,,,,,,,,,,,,,,,,,,,,,,,,,,,,,,,,,,,,,,,,"[6,1,5,9,3,2,8,7]",0,0,0,0,1,,,,,,,,,,,,,,,,,,,,,,,,,,,,,,,,,,,,,,,,,,,,,,,,
,,6150b927614a4f154f311f9d,2022-09-08_14h36.39.712,CGTgamblingSpanTasks,2022.2.1,Win32,59.93766483,,,,,,,,,,,,,,,,,,,,,,,,,,,,,,,,,,,,,,,,,,,,,,,,,,,,,,,,,,,,,,,,,,,,,,,,,,,,,,,,,,"[6,1,5,9,3,2,8,7]",1,0,1,0,1,,,,,,,,,,,,,,,,,,,,,,,,,,,,,,,,,,,,,,,,,,,,,,,,
,,6150b927614a4f154f311f9d,2022-09-08_14h36.39.712,CGTgamblingSpanTasks,2022.2.1,Win32,59.93766483,,,,,,,,,,,,,,,,,,,,,,,,,,,,,,,,,,,,,,,,,,,,,,,,,,,,,,,,,,,,,,,,,,,,,,,,,,,,,,,,,,"[6,1,5,9,3,2,8,7]",2,0,2,0,1,,,,,,,,,,,,,,,,,,,,,,,,,,,,,,,,,,,,,,,,,,,,,,,,
,,6150b927614a4f154f311f9d,2022-09-08_14h36.39.712,CGTgamblingSpanTasks,2022.2.1,Win32,59.93766483,,,,,,,,,,,,,,,,,,,,,,,,,,,,,,,,,,,,,,,,,,,,,,,,,,,,,,,,,,,,,,,,,,,,,,,,,,,,,,,,,,"[6,1,5,9,3,2,8,7]",3,0,3,0,1,,,,,,,,,,,,,,,,,,,,,,,,,,,,,,,,,,,,,,,,,,,,,,,,
,,6150b927614a4f154f311f9d,2022-09-08_14h36.39.712,CGTgamblingSpanTasks,2022.2.1,Win32,59.93766483,,,,,,,,,,,,,,,,,,,,,,,,,,,,,,,,,,,,,,,,,,,,,,,,,,,,,,,,,,,,,,,,,,,,,,,,,,,,,,,,,,"[6,1,5,9,3,2,8,7]",4,0,4,0,1,,,,,,,,,,,,,,,,,,,,,,,,,,,,,,,,,,,,,,,,,,,,,,,,
,,6150b927614a4f154f311f9d,2022-09-08_14h36.39.712,CGTgamblingSpanTasks,2022.2.1,Win32,59.93766483,,,,,,,,,,,,,,,,,,,,,,,,,,,,,,,,,,,,,,,,,,,,,,,,,,,,,,,,,,,,,,,,,,,,,,,,,,,,,,,,,,"[6,1,5,9,3,2,8,7]",5,0,5,0,1,,,,,,,,,,,,,,,,,,,,,,,,,,,,,,,,,,,,,,,,,,,,,,,,
,,6150b927614a4f154f311f9d,2022-09-08_14h36.39.712,CGTgamblingSpanTasks,2022.2.1,Win32,59.93766483,,,,,,,,,,,,,,,,,,,,,,,,,,,,,,,,,,,,,,,,,,,,,,,,,,,,,,,,,,,,,,,,,,,,,,,,,,,,,,,,,,"[6,1,5,9,3,2,8,7]",6,0,6,0,1,,,,,,,,,,,,,,,,,,,,,,,,,,,,,,,,,,,,,,,,,,,,,,,,
,,6150b927614a4f154f311f9d,2022-09-08_14h36.39.712,CGTgamblingSpanTasks,2022.2.1,Win32,59.93766483,,,,,,,,,,,,,,,,,,,,,,,,,,,,,,,,,,,,,,,,,,,,,,,,,,,,,,,,,,,,,,,,,,,,,,,,,,,,,,,,,,"[6,1,5,9,3,2,8,7]",7,0,7,0,1,,,,,,,,,,,,,,,,,,,,,,,,,,,,,,,,,,,,,,,,,,,,,,,,
,,6150b927614a4f154f311f9d,2022-09-08_14h36.39.712,CGTgamblingSpanTasks,2022.2.1,Win32,59.93766483,,,,,,,,,,,,,,,,,,,,,,,,,,,,,,,,,,,,,,,,,,,,,,,,,,,,,,,,,,,,,,,0,,,,,,,,,,,,,,,,,,,,,,,,,69523857,-0.026851852,-0.421296296,1,0,0,cont_button,0,13,13,13,1,14,,,,,,,,,,,,,,,,,,,,,,,,,,,,,,,,,,,
,,6150b927614a4f154f311f9d,2022-09-08_14h36.39.712,CGTgamblingSpanTasks,2022.2.1,Win32,59.93766483,,,,,,,,,,,,,,,,,,,,,,,,,,,,,,,,,,,,,,,,,,,,,,,,,,,,,,,,,,,,,,,,,,,,,,,,,,,,,,,,,,,,,,,,,,,,,,,,,,,,,return,25.0947,,,,,,,,,,,,,,,,,,,,,,,,,,,,,,,,,
,,6150b927614a4f154f311f9d,2022-09-08_14h36.39.712,CGTgamblingSpanTasks,2022.2.1,Win32,59.93766483,,,,,,,,,,,,,,,,,,,,,,,,,,,,,,,,,,,,,,,,,,,,,,,,,,,,,,,,,,,,,,,,,,,,,,,,,,,,,,,,,,,,,,,,,,,,,,,,,,,,,,,return,14.4573,,,,,,,,,,,,,,,,,,,,,,,,,,,,,,,
,,6150b927614a4f154f311f9d,2022-09-08_14h36.39.712,CGTgamblingSpanTasks,2022.2.1,Win32,59.93766483,,,,,,,,,,,,,,,,,,,,,,,,,,,,,,,,,,,,,,,,,,,,,,,,,,,,,,,,,,,,,,,1,,,,,,,,,,,,3,342,24,2,42,,,,,,,,,,,,,,,,,,,,,,,,,,42,-0.026851852,-0.421296296,1,0,0,cont_buttonPractice_2,0,0,0,0,1,,,,,,,,,,,,,,,,,,,
,,6150b927614a4f154f311f9d,2022-09-08_14h36.39.712,CGTgamblingSpanTasks,2022.2.1,Win32,59.93766483,,,,,,,,,,,,,,,,,,,,,,,,,,,,,,,,,,,,,,,,,,,,,,,,,,,,,,,,,,,,,,,1,,,,,,,,,,,,3,937,73,2,37,,,,,,,,,,,,,,,,,,,,,,,,,,37,-0.012962963,-0.398148148,1,0,0,cont_buttonPractice_2,0,1,1,1,1,,,,,,,,,,,,,,,,,,,
,,6150b927614a4f154f311f9d,2022-09-08_14h36.39.712,CGTgamblingSpanTasks,2022.2.1,Win32,59.93766483,,,,,,,,,,,,,,,,,,,,,,,,,,,,,,,,,,,,,,,,,,,,,,,,,,,,,,,,,,,,,,,,,,,,,,,,,,,,,,,,,,,,,,,,,,,,,,,,,,,,,,,,,,,,,,,,,,,,,return,2.5991,,,,,,,,,,,,,,,,,
,,6150b927614a4f154f311f9d,2022-09-08_14h36.39.712,CGTgamblingSpanTasks,2022.2.1,Win32,59.93766483,,,,,,,,,,,,,,,,,,,,,,,,,,,,,,,,,,,,,,,,,,,,,,,,,,,,,,,,,,,,,,,,,,,,,,,,,,,,,,,,,,"[5,1]",,,,,,,,,,,,,,,,,,,,,,,,,,,,,,,,,,,,,0,0,0,0,1,,,,,,,,,,,,
,,6150b927614a4f154f311f9d,2022-09-08_14h36.39.712,CGTgamblingSpanTasks,2022.2.1,Win32,59.93766483,,,,,,,,,,,,,,,,,,,,,,,,,,,,,,,,,,,,,,,,,,,,,,,,,,,,,,,,,,,,,,,,,,,,,,,,,,,,,,,,,,"[5,1]",,,,,,,,,,,,,,,,,,,,,,,,,,,,,,,,,,,,,1,0,1,0,1,,,,,,,,,,,,
,,6150b927614a4f154f311f9d,2022-09-08_14h36.39.712,CGTgamblingSpanTasks,2022.2.1,Win32,59.93766483,,,,,,,,,,,,,,,,,,,,,,,,,,,,,,,,,,,,,,,,,,,,,,,,,,,,,,,,,,,,,,,1,,,,,,,,,,,,,,,,,,,,,,,,,,,,,,,,,,,,,1,,,,,,,,,,,,,,,,,,,,,,,,15,-0.012962963,-0.398148148,1,0,0,cont_buttonBS,0,0,0,0,1
,,6150b927614a4f154f311f9d,2022-09-08_14h36.39.712,CGTgamblingSpanTasks,2022.2.1,Win32,59.93766483,,,,,,,,,,,,,,,,,,,,,,,,,,,,,,,,,,,,,,,,,,,,,,,,,,,,,,,,,,,,,,,,,,,,,,,,,,,,,,,,,,"[8,4,6]",,,,,,,,,,,,,,,,,,,,,,,,,,,,,,,,,,,,,0,0,0,0,1,,,,,,,,,,,,
,,6150b927614a4f154f311f9d,2022-09-08_14h36.39.712,CGTgamblingSpanTasks,2022.2.1,Win32,59.93766483,,,,,,,,,,,,,,,,,,,,,,,,,,,,,,,,,,,,,,,,,,,,,,,,,,,,,,,,,,,,,,,,,,,,,,,,,,,,,,,,,,"[8,4,6]",,,,,,,,,,,,,,,,,,,,,,,,,,,,,,,,,,,,,1,0,1,0,1,,,,,,,,,,,,
,,6150b927614a4f154f311f9d,2022-09-08_14h36.39.712,CGTgamblingSpanTasks,2022.2.1,Win32,59.93766483,,,,,,,,,,,,,,,,,,,,,,,,,,,,,,,,,,,,,,,,,,,,,,,,,,,,,,,,,,,,,,,,,,,,,,,,,,,,,,,,,,"[8,4,6]",,,,,,,,,,,,,,,,,,,,,,,,,,,,,,,,,,,,,2,0,2,0,1,,,,,,,,,,,,
,,6150b927614a4f154f311f9d,2022-09-08_14h36.39.712,CGTgamblingSpanTasks,2022.2.1,Win32,59.93766483,,,,,,,,,,,,,,,,,,,,,,,,,,,,,,,,,,,,,,,,,,,,,,,,,,,,,,,,,,,,,,,1,,,,,,,,,,,,,,,,,,,,,,,,,,,,,,,,,,,,,2,,,,,,,,,,,,,,,,,,,,,,,,648,-0.012962963,-0.398148148,1,0,0,cont_buttonBS,0,1,1,1,1
,,6150b927614a4f154f311f9d,2022-09-08_14h36.39.712,CGTgamblingSpanTasks,2022.2.1,Win32,59.93766483,,,,,,,,,,,,,,,,,,,,,,,,,,,,,,,,,,,,,,,,,,,,,,,,,,,,,,,,,,,,,,,,,,,,,,,,,,,,,,,,,,"[9,2,3,1]",,,,,,,,,,,,,,,,,,,,,,,,,,,,,,,,,,,,,0,0,0,0,1,,,,,,,,,,,,
,,6150b927614a4f154f311f9d,2022-09-08_14h36.39.712,CGTgamblingSpanTasks,2022.2.1,Win32,59.93766483,,,,,,,,,,,,,,,,,,,,,,,,,,,,,,,,,,,,,,,,,,,,,,,,,,,,,,,,,,,,,,,,,,,,,,,,,,,,,,,,,,"[9,2,3,1]",,,,,,,,,,,,,,,,,,,,,,,,,,,,,,,,,,,,,1,0,1,0,1,,,,,,,,,,,,
,,6150b927614a4f154f311f9d,2022-09-08_14h36.39.712,CGTgamblingSpanTasks,2022.2.1,Win32,59.93766483,,,,,,,,,,,,,,,,,,,,,,,,,,,,,,,,,,,,,,,,,,,,,,,,,,,,,,,,,,,,,,,,,,,,,,,,,,,,,,,,,,"[9,2,3,1]",,,,,,,,,,,,,,,,,,,,,,,,,,,,,,,,,,,,,2,0,2,0,1,,,,,,,,,,,,
,,6150b927614a4f154f311f9d,2022-09-08_14h36.39.712,CGTgamblingSpanTasks,2022.2.1,Win32,59.93766483,,,,,,,,,,,,,,,,,,,,,,,,,,,,,,,,,,,,,,,,,,,,,,,,,,,,,,,,,,,,,,,,,,,,,,,,,,,,,,,,,,"[9,2,3,1]",,,,,,,,,,,,,,,,,,,,,,,,,,,,,,,,,,,,,3,0,3,0,1,,,,,,,,,,,,
,,6150b927614a4f154f311f9d,2022-09-08_14h36.39.712,CGTgamblingSpanTasks,2022.2.1,Win32,59.93766483,,,,,,,,,,,,,,,,,,,,,,,,,,,,,,,,,,,,,,,,,,,,,,,,,,,,,,,,,,,,,,,1,,,,,,,,,,,,,,,,,,,,,,,,,,,,,,,,,,,,,3,,,,,,,,,,,,,,,,,,,,,,,,1329,-0.012962963,-0.398148148,1,0,0,cont_buttonBS,0,2,2,2,1
,,6150b927614a4f154f311f9d,2022-09-08_14h36.39.712,CGTgamblingSpanTasks,2022.2.1,Win32,59.93766483,,,,,,,,,,,,,,,,,,,,,,,,,,,,,,,,,,,,,,,,,,,,,,,,,,,,,,,,,,,,,,,,,,,,,,,,,,,,,,,,,,"[2,5,9,4,7]",,,,,,,,,,,,,,,,,,,,,,,,,,,,,,,,,,,,,0,0,0,0,1,,,,,,,,,,,,
,,6150b927614a4f154f311f9d,2022-09-08_14h36.39.712,CGTgamblingSpanTasks,2022.2.1,Win32,59.93766483,,,,,,,,,,,,,,,,,,,,,,,,,,,,,,,,,,,,,,,,,,,,,,,,,,,,,,,,,,,,,,,,,,,,,,,,,,,,,,,,,,"[2,5,9,4,7]",,,,,,,,,,,,,,,,,,,,,,,,,,,,,,,,,,,,,1,0,1,0,1,,,,,,,,,,,,
,,6150b927614a4f154f311f9d,2022-09-08_14h36.39.712,CGTgamblingSpanTasks,2022.2.1,Win32,59.93766483,,,,,,,,,,,,,,,,,,,,,,,,,,,,,,,,,,,,,,,,,,,,,,,,,,,,,,,,,,,,,,,,,,,,,,,,,,,,,,,,,,"[2,5,9,4,7]",,,,,,,,,,,,,,,,,,,,,,,,,,,,,,,,,,,,,2,0,2,0,1,,,,,,,,,,,,
,,6150b927614a4f154f311f9d,2022-09-08_14h36.39.712,CGTgamblingSpanTasks,2022.2.1,Win32,59.93766483,,,,,,,,,,,,,,,,,,,,,,,,,,,,,,,,,,,,,,,,,,,,,,,,,,,,,,,,,,,,,,,,,,,,,,,,,,,,,,,,,,"[2,5,9,4,7]",,,,,,,,,,,,,,,,,,,,,,,,,,,,,,,,,,,,,3,0,3,0,1,,,,,,,,,,,,
,,6150b927614a4f154f311f9d,2022-09-08_14h36.39.712,CGTgamblingSpanTasks,2022.2.1,Win32,59.93766483,,,,,,,,,,,,,,,,,,,,,,,,,,,,,,,,,,,,,,,,,,,,,,,,,,,,,,,,,,,,,,,,,,,,,,,,,,,,,,,,,,"[2,5,9,4,7]",,,,,,,,,,,,,,,,,,,,,,,,,,,,,,,,,,,,,4,0,4,0,1,,,,,,,,,,,,
,,6150b927614a4f154f311f9d,2022-09-08_14h36.39.712,CGTgamblingSpanTasks,2022.2.1,Win32,59.93766483,,,,,,,,,,,,,,,,,,,,,,,,,,,,,,,,,,,,,,,,,,,,,,,,,,,,,,,,,,,,,,,0,,,,,,,,,,,,,,,,,,,,,,,,,,,,,,,,,,,,,4,,,,,,,,,,,,,,,,,,,,,,,,74953,-0.110185185,-0.376851852,1,0,0,cont_buttonBS,0,3,3,3,1
,,6150b927614a4f154f311f9d,2022-09-08_14h36.39.712,CGTgamblingSpanTasks,2022.2.1,Win32,59.93766483,,,,,,,,,,,,,,,,,,,,,,,,,,,,,,,,,,,,,,,,,,,,,,,,,,,,,,,,,,,,,,,,,,,,,,,,,,,,,,,,,,"[4,7,5,2,9]",,,,,,,,,,,,,,,,,,,,,,,,,,,,,,,,,,,,,0,0,0,0,1,,,,,,,,,,,,
,,6150b927614a4f154f311f9d,2022-09-08_14h36.39.712,CGTgamblingSpanTasks,2022.2.1,Win32,59.93766483,,,,,,,,,,,,,,,,,,,,,,,,,,,,,,,,,,,,,,,,,,,,,,,,,,,,,,,,,,,,,,,,,,,,,,,,,,,,,,,,,,"[4,7,5,2,9]",,,,,,,,,,,,,,,,,,,,,,,,,,,,,,,,,,,,,1,0,1,0,1,,,,,,,,,,,,
,,6150b927614a4f154f311f9d,2022-09-08_14h36.39.712,CGTgamblingSpanTasks,2022.2.1,Win32,59.93766483,,,,,,,,,,,,,,,,,,,,,,,,,,,,,,,,,,,,,,,,,,,,,,,,,,,,,,,,,,,,,,,,,,,,,,,,,,,,,,,,,,"[4,7,5,2,9]",,,,,,,,,,,,,,,,,,,,,,,,,,,,,,,,,,,,,2,0,2,0,1,,,,,,,,,,,,
,,6150b927614a4f154f311f9d,2022-09-08_14h36.39.712,CGTgamblingSpanTasks,2022.2.1,Win32,59.93766483,,,,,,,,,,,,,,,,,,,,,,,,,,,,,,,,,,,,,,,,,,,,,,,,,,,,,,,,,,,,,,,,,,,,,,,,,,,,,,,,,,"[4,7,5,2,9]",,,,,,,,,,,,,,,,,,,,,,,,,,,,,,,,,,,,,3,0,3,0,1,,,,,,,,,,,,
,,6150b927614a4f154f311f9d,2022-09-08_14h36.39.712,CGTgamblingSpanTasks,2022.2.1,Win32,59.93766483,,,,,,,,,,,,,,,,,,,,,,,,,,,,,,,,,,,,,,,,,,,,,,,,,,,,,,,,,,,,,,,,,,,,,,,,,,,,,,,,,,"[4,7,5,2,9]",,,,,,,,,,,,,,,,,,,,,,,,,,,,,,,,,,,,,4,0,4,0,1,,,,,,,,,,,,
,,6150b927614a4f154f311f9d,2022-09-08_14h36.39.712,CGTgamblingSpanTasks,2022.2.1,Win32,59.93766483,,,,,,,,,,,,,,,,,,,,,,,,,,,,,,,,,,,,,,,,,,,,,,,,,,,,,,,,,,,,,,,0,,,,,,,,,,,,,,,,,,,,,,,,,,,,,,,,,,,,,5,,,,,,,,,,,,,,,,,,,,,,,,92475,-0.090740741,-0.418518519,1,0,0,cont_buttonBS,0,4,4,4,1
,,6150b927614a4f154f311f9d,2022-09-08_14h36.39.712,CGTgamblingSpanTasks,2022.2.1,Win32,59.93766483,,,,,,,,,,,,,,,,,,,,,,,,,,,,,,,,,,,,,,,,,,,,,,,,,,,,,,,,,,,,,,,,,,,,,,,,,,,,,,,,,,"[3,5,4,1]",,,,,,,,,,,,,,,,,,,,,,,,,,,,,,,,,,,,,0,0,0,0,1,,,,,,,,,,,,
,,6150b927614a4f154f311f9d,2022-09-08_14h36.39.712,CGTgamblingSpanTasks,2022.2.1,Win32,59.93766483,,,,,,,,,,,,,,,,,,,,,,,,,,,,,,,,,,,,,,,,,,,,,,,,,,,,,,,,,,,,,,,,,,,,,,,,,,,,,,,,,,"[3,5,4,1]",,,,,,,,,,,,,,,,,,,,,,,,,,,,,,,,,,,,,1,0,1,0,1,,,,,,,,,,,,
,,6150b927614a4f154f311f9d,2022-09-08_14h36.39.712,CGTgamblingSpanTasks,2022.2.1,Win32,59.93766483,,,,,,,,,,,,,,,,,,,,,,,,,,,,,,,,,,,,,,,,,,,,,,,,,,,,,,,,,,,,,,,,,,,,,,,,,,,,,,,,,,"[3,5,4,1]",,,,,,,,,,,,,,,,,,,,,,,,,,,,,,,,,,,,,2,0,2,0,1,,,,,,,,,,,,
,,6150b927614a4f154f311f9d,2022-09-08_14h36.39.712,CGTgamblingSpanTasks,2022.2.1,Win32,59.93766483,,,,,,,,,,,,,,,,,,,,,,,,,,,,,,,,,,,,,,,,,,,,,,,,,,,,,,,,,,,,,,,,,,,,,,,,,,,,,,,,,,"[3,5,4,1]",,,,,,,,,,,,,,,,,,,,,,,,,,,,,,,,,,,,,3,0,3,0,1,,,,,,,,,,,,
,,6150b927614a4f154f311f9d,2022-09-08_14h36.39.712,CGTgamblingSpanTasks,2022.2.1,Win32,59.93766483,,,,,,,,,,,,,,,,,,,,,,,,,,,,,,,,,,,,,,,,,,,,,,,,,,,,,,,,,,,,,,,1,,,,,,,,,,,,,,,,,,,,,,,,,,,,,,,,,,,,,6,,,,,,,,,,,,,,,,,,,,,,,,1453,-0.098148148,-0.410185185,1,0,0,cont_buttonBS,0,5,5,5,1
,,6150b927614a4f154f311f9d,2022-09-08_14h36.39.712,CGTgamblingSpanTasks,2022.2.1,Win32,59.93766483,,,,,,,,,,,,,,,,,,,,,,,,,,,,,,,,,,,,,,,,,,,,,,,,,,,,,,,,,,,,,,,,,,,,,,,,,,,,,,,,,,"[3,1,8,7,9]",,,,,,,,,,,,,,,,,,,,,,,,,,,,,,,,,,,,,0,0,0,0,1,,,,,,,,,,,,
,,6150b927614a4f154f311f9d,2022-09-08_14h36.39.712,CGTgamblingSpanTasks,2022.2.1,Win32,59.93766483,,,,,,,,,,,,,,,,,,,,,,,,,,,,,,,,,,,,,,,,,,,,,,,,,,,,,,,,,,,,,,,,,,,,,,,,,,,,,,,,,,"[3,1,8,7,9]",,,,,,,,,,,,,,,,,,,,,,,,,,,,,,,,,,,,,1,0,1,0,1,,,,,,,,,,,,
,,6150b927614a4f154f311f9d,2022-09-08_14h36.39.712,CGTgamblingSpanTasks,2022.2.1,Win32,59.93766483,,,,,,,,,,,,,,,,,,,,,,,,,,,,,,,,,,,,,,,,,,,,,,,,,,,,,,,,,,,,,,,,,,,,,,,,,,,,,,,,,,"[3,1,8,7,9]",,,,,,,,,,,,,,,,,,,,,,,,,,,,,,,,,,,,,2,0,2,0,1,,,,,,,,,,,,
,,6150b927614a4f154f311f9d,2022-09-08_14h36.39.712,CGTgamblingSpanTasks,2022.2.1,Win32,59.93766483,,,,,,,,,,,,,,,,,,,,,,,,,,,,,,,,,,,,,,,,,,,,,,,,,,,,,,,,,,,,,,,,,,,,,,,,,,,,,,,,,,"[3,1,8,7,9]",,,,,,,,,,,,,,,,,,,,,,,,,,,,,,,,,,,,,3,0,3,0,1,,,,,,,,,,,,
,,6150b927614a4f154f311f9d,2022-09-08_14h36.39.712,CGTgamblingSpanTasks,2022.2.1,Win32,59.93766483,,,,,,,,,,,,,,,,,,,,,,,,,,,,,,,,,,,,,,,,,,,,,,,,,,,,,,,,,,,,,,,,,,,,,,,,,,,,,,,,,,"[3,1,8,7,9]",,,,,,,,,,,,,,,,,,,,,,,,,,,,,,,,,,,,,4,0,4,0,1,,,,,,,,,,,,
,,6150b927614a4f154f311f9d,2022-09-08_14h36.39.712,CGTgamblingSpanTasks,2022.2.1,Win32,59.93766483,,,,,,,,,,,,,,,,,,,,,,,,,,,,,,,,,,,,,,,,,,,,,,,,,,,,,,,,,,,,,,,0,,,,,,,,,,,,,,,,,,,,,,,,,,,,,,,,,,,,,7,,,,,,,,,,,,,,,,,,,,,,,,9781,-0.033333333,-0.407407407,1,0,0,cont_buttonBS,0,6,6,6,1
,,6150b927614a4f154f311f9d,2022-09-08_14h36.39.712,CGTgamblingSpanTasks,2022.2.1,Win32,59.93766483,,,,,,,,,,,,,,,,,,,,,,,,,,,,,,,,,,,,,,,,,,,,,,,,,,,,,,,,,,,,,,,,,,,,,,,,,,,,,,,,,,"[1,7,3,4,2]",,,,,,,,,,,,,,,,,,,,,,,,,,,,,,,,,,,,,0,0,0,0,1,,,,,,,,,,,,
,,6150b927614a4f154f311f9d,2022-09-08_14h36.39.712,CGTgamblingSpanTasks,2022.2.1,Win32,59.93766483,,,,,,,,,,,,,,,,,,,,,,,,,,,,,,,,,,,,,,,,,,,,,,,,,,,,,,,,,,,,,,,,,,,,,,,,,,,,,,,,,,"[1,7,3,4,2]",,,,,,,,,,,,,,,,,,,,,,,,,,,,,,,,,,,,,1,0,1,0,1,,,,,,,,,,,,
,,6150b927614a4f154f311f9d,2022-09-08_14h36.39.712,CGTgamblingSpanTasks,2022.2.1,Win32,59.93766483,,,,,,,,,,,,,,,,,,,,,,,,,,,,,,,,,,,,,,,,,,,,,,,,,,,,,,,,,,,,,,,,,,,,,,,,,,,,,,,,,,"[1,7,3,4,2]",,,,,,,,,,,,,,,,,,,,,,,,,,,,,,,,,,,,,2,0,2,0,1,,,,,,,,,,,,
,,6150b927614a4f154f311f9d,2022-09-08_14h36.39.712,CGTgamblingSpanTasks,2022.2.1,Win32,59.93766483,,,,,,,,,,,,,,,,,,,,,,,,,,,,,,,,,,,,,,,,,,,,,,,,,,,,,,,,,,,,,,,,,,,,,,,,,,,,,,,,,,"[1,7,3,4,2]",,,,,,,,,,,,,,,,,,,,,,,,,,,,,,,,,,,,,3,0,3,0,1,,,,,,,,,,,,
,,6150b927614a4f154f311f9d,2022-09-08_14h36.39.712,CGTgamblingSpanTasks,2022.2.1,Win32,59.93766483,,,,,,,,,,,,,,,,,,,,,,,,,,,,,,,,,,,,,,,,,,,,,,,,,,,,,,,,,,,,,,,,,,,,,,,,,,,,,,,,,,"[1,7,3,4,2]",,,,,,,,,,,,,,,,,,,,,,,,,,,,,,,,,,,,,4,0,4,0,1,,,,,,,,,,,,
,,6150b927614a4f154f311f9d,2022-09-08_14h36.39.712,CGTgamblingSpanTasks,2022.2.1,Win32,59.93766483,,,,,,,,,,,,,,,,,,,,,,,,,,,,,,,,,,,,,,,,,,,,,,,,,,,,,,,,,,,,,,,1,,,,,,,,,,,,,,,,,,,,,,,,,,,,,,,,,,,,,8,,,,,,,,,,,,,,,,,,,,,,,,24371,-0.036111111,-0.372222222,1,0,0,cont_buttonBS,0,7,7,7,1
,,6150b927614a4f154f311f9d,2022-09-08_14h36.39.712,CGTgamblingSpanTasks,2022.2.1,Win32,59.93766483,,,,,,,,,,,,,,,,,,,,,,,,,,,,,,,,,,,,,,,,,,,,,,,,,,,,,,,,,,,,,,,,,,,,,,,,,,,,,,,,,,"[5,7,8,4,3,1]",,,,,,,,,,,,,,,,,,,,,,,,,,,,,,,,,,,,,0,0,0,0,1,,,,,,,,,,,,
,,6150b927614a4f154f311f9d,2022-09-08_14h36.39.712,CGTgamblingSpanTasks,2022.2.1,Win32,59.93766483,,,,,,,,,,,,,,,,,,,,,,,,,,,,,,,,,,,,,,,,,,,,,,,,,,,,,,,,,,,,,,,,,,,,,,,,,,,,,,,,,,"[5,7,8,4,3,1]",,,,,,,,,,,,,,,,,,,,,,,,,,,,,,,,,,,,,1,0,1,0,1,,,,,,,,,,,,
,,6150b927614a4f154f311f9d,2022-09-08_14h36.39.712,CGTgamblingSpanTasks,2022.2.1,Win32,59.93766483,,,,,,,,,,,,,,,,,,,,,,,,,,,,,,,,,,,,,,,,,,,,,,,,,,,,,,,,,,,,,,,,,,,,,,,,,,,,,,,,,,"[5,7,8,4,3,1]",,,,,,,,,,,,,,,,,,,,,,,,,,,,,,,,,,,,,2,0,2,0,1,,,,,,,,,,,,
,,6150b927614a4f154f311f9d,2022-09-08_14h36.39.712,CGTgamblingSpanTasks,2022.2.1,Win32,59.93766483,,,,,,,,,,,,,,,,,,,,,,,,,,,,,,,,,,,,,,,,,,,,,,,,,,,,,,,,,,,,,,,,,,,,,,,,,,,,,,,,,,"[5,7,8,4,3,1]",,,,,,,,,,,,,,,,,,,,,,,,,,,,,,,,,,,,,3,0,3,0,1,,,,,,,,,,,,
,,6150b927614a4f154f311f9d,2022-09-08_14h36.39.712,CGTgamblingSpanTasks,2022.2.1,Win32,59.93766483,,,,,,,,,,,,,,,,,,,,,,,,,,,,,,,,,,,,,,,,,,,,,,,,,,,,,,,,,,,,,,,,,,,,,,,,,,,,,,,,,,"[5,7,8,4,3,1]",,,,,,,,,,,,,,,,,,,,,,,,,,,,,,,,,,,,,4,0,4,0,1,,,,,,,,,,,,
,,6150b927614a4f154f311f9d,2022-09-08_14h36.39.712,CGTgamblingSpanTasks,2022.2.1,Win32,59.93766483,,,,,,,,,,,,,,,,,,,,,,,,,,,,,,,,,,,,,,,,,,,,,,,,,,,,,,,,,,,,,,,,,,,,,,,,,,,,,,,,,,"[5,7,8,4,3,1]",,,,,,,,,,,,,,,,,,,,,,,,,,,,,,,,,,,,,5,0,5,0,1,,,,,,,,,,,,
,,6150b927614a4f154f311f9d,2022-09-08_14h36.39.712,CGTgamblingSpanTasks,2022.2.1,Win32,59.93766483,,,,,,,,,,,,,,,,,,,,,,,,,,,,,,,,,,,,,,,,,,,,,,,,,,,,,,,,,,,,,,,1,,,,,,,,,,,,,,,,,,,,,,,,,,,,,,,,,,,,,9,,,,,,,,,,,,,,,,,,,,,,,,134875,0.002777778,-0.388888889,1,0,0,cont_buttonBS,0,8,8,8,1
,,6150b927614a4f154f311f9d,2022-09-08_14h36.39.712,CGTgamblingSpanTasks,2022.2.1,Win32,59.93766483,,,,,,,,,,,,,,,,,,,,,,,,,,,,,,,,,,,,,,,,,,,,,,,,,,,,,,,,,,,,,,,,,,,,,,,,,,,,,,,,,,"[5,8,9,4,1,2,7]",,,,,,,,,,,,,,,,,,,,,,,,,,,,,,,,,,,,,0,0,0,0,1,,,,,,,,,,,,
,,6150b927614a4f154f311f9d,2022-09-08_14h36.39.712,CGTgamblingSpanTasks,2022.2.1,Win32,59.93766483,,,,,,,,,,,,,,,,,,,,,,,,,,,,,,,,,,,,,,,,,,,,,,,,,,,,,,,,,,,,,,,,,,,,,,,,,,,,,,,,,,"[5,8,9,4,1,2,7]",,,,,,,,,,,,,,,,,,,,,,,,,,,,,,,,,,,,,1,0,1,0,1,,,,,,,,,,,,
,,6150b927614a4f154f311f9d,2022-09-08_14h36.39.712,CGTgamblingSpanTasks,2022.2.1,Win32,59.93766483,,,,,,,,,,,,,,,,,,,,,,,,,,,,,,,,,,,,,,,,,,,,,,,,,,,,,,,,,,,,,,,,,,,,,,,,,,,,,,,,,,"[5,8,9,4,1,2,7]",,,,,,,,,,,,,,,,,,,,,,,,,,,,,,,,,,,,,2,0,2,0,1,,,,,,,,,,,,
,,6150b927614a4f154f311f9d,2022-09-08_14h36.39.712,CGTgamblingSpanTasks,2022.2.1,Win32,59.93766483,,,,,,,,,,,,,,,,,,,,,,,,,,,,,,,,,,,,,,,,,,,,,,,,,,,,,,,,,,,,,,,,,,,,,,,,,,,,,,,,,,"[5,8,9,4,1,2,7]",,,,,,,,,,,,,,,,,,,,,,,,,,,,,,,,,,,,,3,0,3,0,1,,,,,,,,,,,,
