initITIstatic,initITIdynamic,participant,date,expName,psychopyVersion,OS,frameRate,inst1.keys,inst1.rt,startPracResp.keys,startPracResp.rt,choice1.keys,choice1.rt,outcome,extraITI,trials.thisRepN,trials.thisTrialN,trials.thisN,trials.thisIndex,trials.ran,riskyGain,riskyLoss,alternative,isi,iti,loc,postPractResp.keys,postPractResp.rt,realloc,realChoice.keys,realChoice.rt,outcomes,choices,actualITI,init ITI,staticRDM.thisRepN,staticRDM.thisTrialN,staticRDM.thisN,staticRDM.thisIndex,staticRDM.ran,riskyoption1,riskyoption2,safeoption,ischecktrial,dynamicChoiceSetName,dynamicChoiceSetPath,bestRho,bestMu,trials_2.thisRepN,trials_2.thisTrialN,trials_2.thisN,trials_2.thisIndex,trials_2.ran,key_resp.keys,key_resp.rt,dynamicRDM.thisRepN,dynamicRDM.thisTrialN,dynamicRDM.thisN,dynamicRDM.thisIndex,dynamicRDM.ran,choiceP,easy0difficult1,stopBreak.keys,stopBreak.rt,movealong.keys,movealong.rt,startPractice.keys,startPractice.rt,textboxPractice.text,correct,mousePractice.x,mousePractice.y,mousePractice.leftButton,mousePractice.midButton,mousePractice.rightButton,mousePractice.clicked_name,trialFSPractice.thisRepN,trialFSPractice.thisTrialN,trialFSPractice.thisN,trialFSPractice.thisIndex,trialFSPractice.ran,digitSpanForward,digits,digitsReverse,digitSpanReverse,digitsReverseCorrAnswer,startFSreal.keys,startFSreal.rt,digitsForTrial,digitLoop.thisRepN,digitLoop.thisTrialN,digitLoop.thisN,digitLoop.thisIndex,digitLoop.ran,textbox.text,mouse_3.x,mouse_3.y,mouse_3.leftButton,mouse_3.midButton,mouse_3.rightButton,mouse_3.clicked_name,trialsFS.thisRepN,trialsFS.thisTrialN,trialsFS.thisN,trialsFS.thisIndex,trialsFS.ran,trialNumber,moveToBS.keys,moveToBS.rt,startBSprac.keys,startBSprac.rt,textboxPractice_2.text,mousePractice_2.x,mousePractice_2.y,mousePractice_2.leftButton,mousePractice_2.midButton,mousePractice_2.rightButton,mousePractice_2.clicked_name,trialsPracticeBS.thisRepN,trialsPracticeBS.thisTrialN,trialsPracticeBS.thisN,trialsPracticeBS.thisIndex,trialsPracticeBS.ran,startBSreal.keys,startBSreal.rt,digitLoopBS.thisRepN,digitLoopBS.thisTrialN,digitLoopBS.thisN,digitLoopBS.thisIndex,digitLoopBS.ran,textboxBS.text,mouseBS.x,mouseBS.y,mouseBS.leftButton,mouseBS.midButton,mouseBS.rightButton,mouseBS.clicked_name,trialsBS.thisRepN,trialsBS.thisTrialN,trialsBS.thisN,trialsBS.thisIndex,trialsBS.ran
"[1.5,1.5,1,1,1.5,1.5,1.5,1.5,1.5,1,1,1,1,1,1,1,1.5,1,1.5,1.5,1.5,1.5,1,1,1,1,1.5,1,1,1.5,1.5,1,1.5,1.5,1,1.5,1,1.5,1,1.5,1.5,1,1,1,1.5,1.5,1.5,1.5,1,1]","[1.5,1.5,1.5,1.5,1.5,1.5,1,1.5,1,1.5,1,1,1.5,1,1,1,1.5,1.5,1,1.5,1,1,1,1.5,1.5,1.5,1.5,1.5,1.5,1.5,1,1,1,1.5,1,1.5,1,1,1,1,1,1,1,1.5,1.5,1.5,1.5,1.5,1,1,1.5,1,1,1,1,1.5,1,1,1.5,1,1,1,1.5,1.5,1,1,1.5,1,1,1.5,1,1.5,1.5,1,1,1.5,1.5,1.5,1.5,1,1.5,1,1.5,1,1,1,1.5,1.5,1,1.5,1,1.5,1.5,1,1,1,1,1.5,1,1,1,1.5,1.5,1.5,1,1.5,1,1,1,1,1.5,1.5,1.5,1.5,1.5,1.5,1.5,1.5,1,1.5]",5da7c6ecd11d560015a3d1da,2022-09-08_13h05.12.580,CGTgamblingSpanTasks,2022.2.1,Win32,72.04610951,,,,,,,,,,,,,,,,,,,,,,,,,,,,,,,,,,,,,,,,,,,,,,,,,,,,,,,,,,,,,,,,,,,,,,,,,,,,,,,,,,,,,,,,,,,,,,,,,,,,,,,,,,,,,,,,,,,,,,,,,,,,,,,,,,,,,,,
,,5da7c6ecd11d560015a3d1da,2022-09-08_13h05.12.580,CGTgamblingSpanTasks,2022.2.1,Win32,72.04610951,return,5.672,,,,,,,,,,,,,,,,,,,,,,,,,,,,,,,,,,,,,,,,,,,,,,,,,,,,,,,,,,,,,,,,,,,,,,,,,,,,,,,,,,,,,,,,,,,,,,,,,,,,,,,,,,,,,,,,,,,,,,,,,,,,,,,,,,,,,
,,5da7c6ecd11d560015a3d1da,2022-09-08_13h05.12.580,CGTgamblingSpanTasks,2022.2.1,Win32,72.04610951,,,v,1.66,,,,,,,,,,,,,,,,,,,,,,,,,,,,,,,,,,,,,,,,,,,,,,,,,,,,,,,,,,,,,,,,,,,,,,,,,,,,,,,,,,,,,,,,,,,,,,,,,,,,,,,,,,,,,,,,,,,,,,,,,,,,,,,,,,,
,,5da7c6ecd11d560015a3d1da,2022-09-08_13h05.12.580,CGTgamblingSpanTasks,2022.2.1,Win32,72.04610951,,,,,v,1.898,18.23,2.102,0,0,0,0,1,18.23,0,9.45,2,1,1,,,,,,,,,,,,,,,,,,,,,,,,,,,,,,,,,,,,,,,,,,,,,,,,,,,,,,,,,,,,,,,,,,,,,,,,,,,,,,,,,,,,,,,,,,,,,,,,,,,,,,,,,,,,,,,,,,,,
,,5da7c6ecd11d560015a3d1da,2022-09-08_13h05.12.580,CGTgamblingSpanTasks,2022.2.1,Win32,72.04610951,,,,,n,1.006,35.16,2.994,0,1,1,1,1,53.27,0,35.16,1,1.5,1,,,,,,,,,,,,,,,,,,,,,,,,,,,,,,,,,,,,,,,,,,,,,,,,,,,,,,,,,,,,,,,,,,,,,,,,,,,,,,,,,,,,,,,,,,,,,,,,,,,,,,,,,,,,,,,,,,,,
,,5da7c6ecd11d560015a3d1da,2022-09-08_13h05.12.580,CGTgamblingSpanTasks,2022.2.1,Win32,72.04610951,,,,,n,1.497,8.27,2.503,0,2,2,2,1,8.27,0,1.15,1,1.5,2,,,,,,,,,,,,,,,,,,,,,,,,,,,,,,,,,,,,,,,,,,,,,,,,,,,,,,,,,,,,,,,,,,,,,,,,,,,,,,,,,,,,,,,,,,,,,,,,,,,,,,,,,,,,,,,,,,,,
,,5da7c6ecd11d560015a3d1da,2022-09-08_13h05.12.580,CGTgamblingSpanTasks,2022.2.1,Win32,72.04610951,,,,,v,0.734,45.88,3.266,0,3,3,3,1,45.88,0,40.41,3,1,1,,,,,,,,,,,,,,,,,,,,,,,,,,,,,,,,,,,,,,,,,,,,,,,,,,,,,,,,,,,,,,,,,,,,,,,,,,,,,,,,,,,,,,,,,,,,,,,,,,,,,,,,,,,,,,,,,,,,
,,5da7c6ecd11d560015a3d1da,2022-09-08_13h05.12.580,CGTgamblingSpanTasks,2022.2.1,Win32,72.04610951,,,,,v,1.241,11.96,2.759,0,4,4,4,1,21.56,0,11.96,1,1.5,2,,,,,,,,,,,,,,,,,,,,,,,,,,,,,,,,,,,,,,,,,,,,,,,,,,,,,,,,,,,,,,,,,,,,,,,,,,,,,,,,,,,,,,,,,,,,,,,,,,,,,,,,,,,,,,,,,,,,
,,5da7c6ecd11d560015a3d1da,2022-09-08_13h05.12.580,CGTgamblingSpanTasks,2022.2.1,Win32,72.04610951,,,,,,,,,,,,,,,,,,,,v,5.615,,,,,,,,,,,,,,,,,,,,,,,,,,,,,,,,,,,,,,,,,,,,,,,,,,,,,,,,,,,,,,,,,,,,,,,,,,,,,,,,,,,,,,,,,,,,,,,,,,,,,,,,,,,,,,,,,,
,,5da7c6ecd11d560015a3d1da,2022-09-08_13h05.12.580,CGTgamblingSpanTasks,2022.2.1,Win32,72.04610951,,,,,,,,2.288,,,,,,,,,,,,,,2,n,1.712,0,1,3.788,1.5,0,0,0,12,1,13.04,0,5.48,0,,,,,,,,,,,,,,,,,,,,,,,,,,,,,,,,,,,,,,,,,,,,,,,,,,,,,,,,,,,,,,,,,,,,,,,,,,,,,,,,,,,,,,,,,,,,,,,,,,
,,5da7c6ecd11d560015a3d1da,2022-09-08_13h05.12.580,CGTgamblingSpanTasks,2022.2.1,Win32,72.04610951,,,,,,,,3.179,,,,,,,,,,,,,,1,v,0.821,20.53,1,4.679,1.5,0,1,1,9,1,20.53,0,7.73,0,,,,,,,,,,,,,,,,,,,,,,,,,,,,,,,,,,,,,,,,,,,,,,,,,,,,,,,,,,,,,,,,,,,,,,,,,,,,,,,,,,,,,,,,,,,,,,,,,,
,,5da7c6ecd11d560015a3d1da,2022-09-08_13h05.12.580,CGTgamblingSpanTasks,2022.2.1,Win32,72.04610951,,,,,,,,2.753,,,,,,,,,,,,,,2,n,1.247,10.35,1,3.753,1,0,2,2,40,1,10.35,0,0,1,,,,,,,,,,,,,,,,,,,,,,,,,,,,,,,,,,,,,,,,,,,,,,,,,,,,,,,,,,,,,,,,,,,,,,,,,,,,,,,,,,,,,,,,,,,,,,,,,,
,,5da7c6ecd11d560015a3d1da,2022-09-08_13h05.12.580,CGTgamblingSpanTasks,2022.2.1,Win32,72.04610951,,,,,,,,3.03,,,,,,,,,,,,,,2,v,0.97,5.27,0,4.03,1,0,3,3,10,1,13.45,0,5.27,0,,,,,,,,,,,,,,,,,,,,,,,,,,,,,,,,,,,,,,,,,,,,,,,,,,,,,,,,,,,,,,,,,,,,,,,,,,,,,,,,,,,,,,,,,,,,,,,,,,
,,5da7c6ecd11d560015a3d1da,2022-09-08_13h05.12.580,CGTgamblingSpanTasks,2022.2.1,Win32,72.04610951,,,,,,,,3.052,,,,,,,,,,,,,,2,n,0.948,22.97,1,4.552,1.5,0,4,4,5,1,22.97,0,6.51,0,,,,,,,,,,,,,,,,,,,,,,,,,,,,,,,,,,,,,,,,,,,,,,,,,,,,,,,,,,,,,,,,,,,,,,,,,,,,,,,,,,,,,,,,,,,,,,,,,,
,,5da7c6ecd11d560015a3d1da,2022-09-08_13h05.12.580,CGTgamblingSpanTasks,2022.2.1,Win32,72.04610951,,,,,,,,3.135,,,,,,,,,,,,,,1,v,0.865,0,1,4.635,1.5,0,5,5,0,1,20.03,0,1.99,0,,,,,,,,,,,,,,,,,,,,,,,,,,,,,,,,,,,,,,,,,,,,,,,,,,,,,,,,,,,,,,,,,,,,,,,,,,,,,,,,,,,,,,,,,,,,,,,,,,
,,5da7c6ecd11d560015a3d1da,2022-09-08_13h05.12.580,CGTgamblingSpanTasks,2022.2.1,Win32,72.04610951,,,,,,,,3.244,,,,,,,,,,,,,,1,v,0.756,0,1,4.744,1.5,0,6,6,1,1,28.21,0,3.89,0,,,,,,,,,,,,,,,,,,,,,,,,,,,,,,,,,,,,,,,,,,,,,,,,,,,,,,,,,,,,,,,,,,,,,,,,,,,,,,,,,,,,,,,,,,,,,,,,,,
,,5da7c6ecd11d560015a3d1da,2022-09-08_13h05.12.580,CGTgamblingSpanTasks,2022.2.1,Win32,72.04610951,,,,,,,,3.217,,,,,,,,,,,,,,1,v,0.783,19.86,1,4.717,1.5,0,7,7,11,1,19.86,0,8.07,0,,,,,,,,,,,,,,,,,,,,,,,,,,,,,,,,,,,,,,,,,,,,,,,,,,,,,,,,,,,,,,,,,,,,,,,,,,,,,,,,,,,,,,,,,,,,,,,,,,
,,5da7c6ecd11d560015a3d1da,2022-09-08_13h05.12.580,CGTgamblingSpanTasks,2022.2.1,Win32,72.04610951,,,,,,,,3.183,,,,,,,,,,,,,,1,v,0.817,10.12,1,4.683,1.5,0,8,8,38,1,10.12,0,6.94,0,,,,,,,,,,,,,,,,,,,,,,,,,,,,,,,,,,,,,,,,,,,,,,,,,,,,,,,,,,,,,,,,,,,,,,,,,,,,,,,,,,,,,,,,,,,,,,,,,,
,,5da7c6ecd11d560015a3d1da,2022-09-08_13h05.12.580,CGTgamblingSpanTasks,2022.2.1,Win32,72.04610951,,,,,,,,2.626,,,,,,,,,,,,,,2,n,1.374,25.2,1,3.626,1,0,9,9,3,1,25.2,0,5.4,0,,,,,,,,,,,,,,,,,,,,,,,,,,,,,,,,,,,,,,,,,,,,,,,,,,,,,,,,,,,,,,,,,,,,,,,,,,,,,,,,,,,,,,,,,,,,,,,,,,
,,5da7c6ecd11d560015a3d1da,2022-09-08_13h05.12.580,CGTgamblingSpanTasks,2022.2.1,Win32,72.04610951,,,,,,,,1.651,,,,,,,,,,,,,,2,v,2.349,6.4,0,2.651,1,0,10,10,26,1,11.2,0,6.4,0,,,,,,,,,,,,,,,,,,,,,,,,,,,,,,,,,,,,,,,,,,,,,,,,,,,,,,,,,,,,,,,,,,,,,,,,,,,,,,,,,,,,,,,,,,,,,,,,,,
,,5da7c6ecd11d560015a3d1da,2022-09-08_13h05.12.580,CGTgamblingSpanTasks,2022.2.1,Win32,72.04610951,,,,,,,,3.341,,,,,,,,,,,,,,2,n,0.659,0,1,4.341,1,0,11,11,48,1,10.68,0,10.68,1,,,,,,,,,,,,,,,,,,,,,,,,,,,,,,,,,,,,,,,,,,,,,,,,,,,,,,,,,,,,,,,,,,,,,,,,,,,,,,,,,,,,,,,,,,,,,,,,,,
,,5da7c6ecd11d560015a3d1da,2022-09-08_13h05.12.580,CGTgamblingSpanTasks,2022.2.1,Win32,72.04610951,,,,,,,,3.508,,,,,,,,,,,,,,1,v,0.492,16.26,1,4.508,1,0,12,12,29,1,16.26,0,9.87,0,,,,,,,,,,,,,,,,,,,,,,,,,,,,,,,,,,,,,,,,,,,,,,,,,,,,,,,,,,,,,,,,,,,,,,,,,,,,,,,,,,,,,,,,,,,,,,,,,,
,,5da7c6ecd11d560015a3d1da,2022-09-08_13h05.12.580,CGTgamblingSpanTasks,2022.2.1,Win32,72.04610951,,,,,,,,3.467,,,,,,,,,,,,,,1,n,0.533,9.03,0,4.467,1,0,13,13,19,1,17.94,0,9.03,0,,,,,,,,,,,,,,,,,,,,,,,,,,,,,,,,,,,,,,,,,,,,,,,,,,,,,,,,,,,,,,,,,,,,,,,,,,,,,,,,,,,,,,,,,,,,,,,,,,
,,5da7c6ecd11d560015a3d1da,2022-09-08_13h05.12.580,CGTgamblingSpanTasks,2022.2.1,Win32,72.04610951,,,,,,,,2.445,,,,,,,,,,,,,,1,v,1.555,17.59,1,3.445,1,0,14,14,21,1,17.59,0,9.2,0,,,,,,,,,,,,,,,,,,,,,,,,,,,,,,,,,,,,,,,,,,,,,,,,,,,,,,,,,,,,,,,,,,,,,,,,,,,,,,,,,,,,,,,,,,,,,,,,,,
,,5da7c6ecd11d560015a3d1da,2022-09-08_13h05.12.580,CGTgamblingSpanTasks,2022.2.1,Win32,72.04610951,,,,,,,,2.338,,,,,,,,,,,,,,2,n,1.662,14.26,1,3.338,1,0,15,15,41,1,14.26,0,0,1,,,,,,,,,,,,,,,,,,,,,,,,,,,,,,,,,,,,,,,,,,,,,,,,,,,,,,,,,,,,,,,,,,,,,,,,,,,,,,,,,,,,,,,,,,,,,,,,,,
,,5da7c6ecd11d560015a3d1da,2022-09-08_13h05.12.580,CGTgamblingSpanTasks,2022.2.1,Win32,72.04610951,,,,,,,,3.306,,,,,,,,,,,,,,1,v,0.694,0,1,4.806,1.5,0,16,16,15,1,18.77,0,8.61,0,,,,,,,,,,,,,,,,,,,,,,,,,,,,,,,,,,,,,,,,,,,,,,,,,,,,,,,,,,,,,,,,,,,,,,,,,,,,,,,,,,,,,,,,,,,,,,,,,,
,,5da7c6ecd11d560015a3d1da,2022-09-08_13h05.12.580,CGTgamblingSpanTasks,2022.2.1,Win32,72.04610951,,,,,,,,3.505,,,,,,,,,,,,,,1,n,0.495,9.5,0,4.505,1,0,17,17,25,1,17,0,9.5,0,,,,,,,,,,,,,,,,,,,,,,,,,,,,,,,,,,,,,,,,,,,,,,,,,,,,,,,,,,,,,,,,,,,,,,,,,,,,,,,,,,,,,,,,,,,,,,,,,,
,,5da7c6ecd11d560015a3d1da,2022-09-08_13h05.12.580,CGTgamblingSpanTasks,2022.2.1,Win32,72.04610951,,,,,,,,3.126,,,,,,,,,,,,,,1,v,0.874,0,1,4.626,1.5,0,18,18,49,1,6.79,0,9.92,1,,,,,,,,,,,,,,,,,,,,,,,,,,,,,,,,,,,,,,,,,,,,,,,,,,,,,,,,,,,,,,,,,,,,,,,,,,,,,,,,,,,,,,,,,,,,,,,,,,
,,5da7c6ecd11d560015a3d1da,2022-09-08_13h05.12.580,CGTgamblingSpanTasks,2022.2.1,Win32,72.04610951,,,,,,,,2.066,,,,,,,,,,,,,,2,v,1.934,7.55,0,3.566,1.5,0,19,19,45,1,0,0,7.55,1,,,,,,,,,,,,,,,,,,,,,,,,,,,,,,,,,,,,,,,,,,,,,,,,,,,,,,,,,,,,,,,,,,,,,,,,,,,,,,,,,,,,,,,,,,,,,,,,,,
,,5da7c6ecd11d560015a3d1da,2022-09-08_13h05.12.580,CGTgamblingSpanTasks,2022.2.1,Win32,72.04610951,,,,,,,,3.092,,,,,,,,,,,,,,2,v,0.908,3.13,0,4.592,1.5,0,20,20,47,1,0,0,3.13,1,,,,,,,,,,,,,,,,,,,,,,,,,,,,,,,,,,,,,,,,,,,,,,,,,,,,,,,,,,,,,,,,,,,,,,,,,,,,,,,,,,,,,,,,,,,,,,,,,,
,,5da7c6ecd11d560015a3d1da,2022-09-08_13h05.12.580,CGTgamblingSpanTasks,2022.2.1,Win32,72.04610951,,,,,,,,3.113,,,,,,,,,,,,,,2,v,0.887,9.36,0,4.613,1.5,0,21,21,23,1,17.28,0,9.36,0,,,,,,,,,,,,,,,,,,,,,,,,,,,,,,,,,,,,,,,,,,,,,,,,,,,,,,,,,,,,,,,,,,,,,,,,,,,,,,,,,,,,,,,,,,,,,,,,,,
,,5da7c6ecd11d560015a3d1da,2022-09-08_13h05.12.580,CGTgamblingSpanTasks,2022.2.1,Win32,72.04610951,,,,,,,,2.182,,,,,,,,,,,,,,2,n,1.818,0,1,3.182,1,0,22,22,7,1,21.32,0,7.34,0,,,,,,,,,,,,,,,,,,,,,,,,,,,,,,,,,,,,,,,,,,,,,,,,,,,,,,,,,,,,,,,,,,,,,,,,,,,,,,,,,,,,,,,,,,,,,,,,,,
,,5da7c6ecd11d560015a3d1da,2022-09-08_13h05.12.580,CGTgamblingSpanTasks,2022.2.1,Win32,72.04610951,,,,,,,,2.583,,,,,,,,,,,,,,1,n,1.417,6.29,0,3.583,1,0,23,23,24,1,11.43,0,6.29,0,,,,,,,,,,,,,,,,,,,,,,,,,,,,,,,,,,,,,,,,,,,,,,,,,,,,,,,,,,,,,,,,,,,,,,,,,,,,,,,,,,,,,,,,,,,,,,,,,,
,,5da7c6ecd11d560015a3d1da,2022-09-08_13h05.12.580,CGTgamblingSpanTasks,2022.2.1,Win32,72.04610951,,,,,,,,0.261,,,,,,,,,,,,,,1,v,3.739,7.73,1,1.261,1,0,24,24,44,1,13.1,7.73,4.68,1,,,,,,,,,,,,,,,,,,,,,,,,,,,,,,,,,,,,,,,,,,,,,,,,,,,,,,,,,,,,,,,,,,,,,,,,,,,,,,,,,,,,,,,,,,,,,,,,,,
,,5da7c6ecd11d560015a3d1da,2022-09-08_13h05.12.580,CGTgamblingSpanTasks,2022.2.1,Win32,72.04610951,,,,,,,,0.645,,,,,,,,,,,,,,1,n,3.355,6.19,0,1.645,1,0,25,25,22,1,11.62,0,6.19,0,,,,,,,,,,,,,,,,,,,,,,,,,,,,,,,,,,,,,,,,,,,,,,,,,,,,,,,,,,,,,,,,,,,,,,,,,,,,,,,,,,,,,,,,,,,,,,,,,,
,,5da7c6ecd11d560015a3d1da,2022-09-08_13h05.12.580,CGTgamblingSpanTasks,2022.2.1,Win32,72.04610951,,,,,,,,0,,,,,,,,,,,,,,1,,,,,1.5,1.5,0,26,26,28,1,10.95,0,6.53,0,,,,,,,,,,,,,,,,,,,,,,,,,,,,,,,,,,,,,,,,,,,,,,,,,,,,,,,,,,,,,,,,,,,,,,,,,,,,,,,,,,,,,,,,,,,,,,,,,,
,,5da7c6ecd11d560015a3d1da,2022-09-08_13h05.12.580,CGTgamblingSpanTasks,2022.2.1,Win32,72.04610951,,,,,,,,3.34,,,,,,,,,,,,,,2,v,0.66,10.37,0,4.34,1,0,27,27,37,1,15.27,0,10.37,0,,,,,,,,,,,,,,,,,,,,,,,,,,,,,,,,,,,,,,,,,,,,,,,,,,,,,,,,,,,,,,,,,,,,,,,,,,,,,,,,,,,,,,,,,,,,,,,,,,
,,5da7c6ecd11d560015a3d1da,2022-09-08_13h05.12.580,CGTgamblingSpanTasks,2022.2.1,Win32,72.04610951,,,,,,,,2.828,,,,,,,,,,,,,,2,v,1.172,10.02,0,3.828,1,0,28,28,31,1,15.96,0,10.02,0,,,,,,,,,,,,,,,,,,,,,,,,,,,,,,,,,,,,,,,,,,,,,,,,,,,,,,,,,,,,,,,,,,,,,,,,,,,,,,,,,,,,,,,,,,,,,,,,,,
,,5da7c6ecd11d560015a3d1da,2022-09-08_13h05.12.580,CGTgamblingSpanTasks,2022.2.1,Win32,72.04610951,,,,,,,,3.232,,,,,,,,,,,,,,1,v,0.768,0,1,4.732,1.5,0,29,29,6,1,14.72,0,4.64,0,,,,,,,,,,,,,,,,,,,,,,,,,,,,,,,,,,,,,,,,,,,,,,,,,,,,,,,,,,,,,,,,,,,,,,,,,,,,,,,,,,,,,,,,,,,,,,,,,,
,,5da7c6ecd11d560015a3d1da,2022-09-08_13h05.12.580,CGTgamblingSpanTasks,2022.2.1,Win32,72.04610951,,,,,,,,3.393,,,,,,,,,,,,,,1,n,0.607,6.81,0,4.893,1.5,0,30,30,34,1,10.39,0,6.81,0,,,,,,,,,,,,,,,,,,,,,,,,,,,,,,,,,,,,,,,,,,,,,,,,,,,,,,,,,,,,,,,,,,,,,,,,,,,,,,,,,,,,,,,,,,,,,,,,,,
,,5da7c6ecd11d560015a3d1da,2022-09-08_13h05.12.580,CGTgamblingSpanTasks,2022.2.1,Win32,72.04610951,,,,,,,,3.384,,,,,,,,,,,,,,2,v,0.616,8.36,0,4.384,1,0,31,31,13,1,19.28,0,8.36,0,,,,,,,,,,,,,,,,,,,,,,,,,,,,,,,,,,,,,,,,,,,,,,,,,,,,,,,,,,,,,,,,,,,,,,,,,,,,,,,,,,,,,,,,,,,,,,,,,,
,,5da7c6ecd11d560015a3d1da,2022-09-08_13h05.12.580,CGTgamblingSpanTasks,2022.2.1,Win32,72.04610951,,,,,,,,3.319,,,,,,,,,,,,,,1,v,0.681,0,1,4.819,1.5,0,32,32,35,1,15.47,0,10.27,0,,,,,,,,,,,,,,,,,,,,,,,,,,,,,,,,,,,,,,,,,,,,,,,,,,,,,,,,,,,,,,,,,,,,,,,,,,,,,,,,,,,,,,,,,,,,,,,,,,
,,5da7c6ecd11d560015a3d1da,2022-09-08_13h05.12.580,CGTgamblingSpanTasks,2022.2.1,Win32,72.04610951,,,,,,,,3.468,,,,,,,,,,,,,,1,n,0.532,8.84,0,4.968,1.5,0,33,33,17,1,18.33,0,8.84,0,,,,,,,,,,,,,,,,,,,,,,,,,,,,,,,,,,,,,,,,,,,,,,,,,,,,,,,,,,,,,,,,,,,,,,,,,,,,,,,,,,,,,,,,,,,,,,,,,,
,,5da7c6ecd11d560015a3d1da,2022-09-08_13h05.12.580,CGTgamblingSpanTasks,2022.2.1,Win32,72.04610951,,,,,,,,2.787,,,,,,,,,,,,,,2,n,1.213,13.94,1,3.787,1,0,34,34,8,1,13.94,0,5.03,0,,,,,,,,,,,,,,,,,,,,,,,,,,,,,,,,,,,,,,,,,,,,,,,,,,,,,,,,,,,,,,,,,,,,,,,,,,,,,,,,,,,,,,,,,,,,,,,,,,
,,5da7c6ecd11d560015a3d1da,2022-09-08_13h05.12.580,CGTgamblingSpanTasks,2022.2.1,Win32,72.04610951,,,,,,,,3.175,,,,,,,,,,,,,,1,n,0.825,10.25,0,4.675,1.5,0,35,35,46,1,0,0,10.25,1,,,,,,,,,,,,,,,,,,,,,,,,,,,,,,,,,,,,,,,,,,,,,,,,,,,,,,,,,,,,,,,,,,,,,,,,,,,,,,,,,,,,,,,,,,,,,,,,,,
,,5da7c6ecd11d560015a3d1da,2022-09-08_13h05.12.580,CGTgamblingSpanTasks,2022.2.1,Win32,72.04610951,,,,,,,,3.344,,,,,,,,,,,,,,2,v,0.656,6.08,0,4.344,1,0,36,36,20,1,11.84,0,6.08,0,,,,,,,,,,,,,,,,,,,,,,,,,,,,,,,,,,,,,,,,,,,,,,,,,,,,,,,,,,,,,,,,,,,,,,,,,,,,,,,,,,,,,,,,,,,,,,,,,,
,,5da7c6ecd11d560015a3d1da,2022-09-08_13h05.12.580,CGTgamblingSpanTasks,2022.2.1,Win32,72.04610951,,,,,,,,3.286,,,,,,,,,,,,,,1,v,0.714,15.7,1,4.786,1.5,0,37,37,33,1,15.7,0,10.15,0,,,,,,,,,,,,,,,,,,,,,,,,,,,,,,,,,,,,,,,,,,,,,,,,,,,,,,,,,,,,,,,,,,,,,,,,,,,,,,,,,,,,,,,,,,,,,,,,,,
,,5da7c6ecd11d560015a3d1da,2022-09-08_13h05.12.580,CGTgamblingSpanTasks,2022.2.1,Win32,72.04610951,,,,,,,,3.417,,,,,,,,,,,,,,1,v,0.583,0,1,4.417,1,0,38,38,4,1,16,0,4,0,,,,,,,,,,,,,,,,,,,,,,,,,,,,,,,,,,,,,,,,,,,,,,,,,,,,,,,,,,,,,,,,,,,,,,,,,,,,,,,,,,,,,,,,,,,,,,,,,,
,,5da7c6ecd11d560015a3d1da,2022-09-08_13h05.12.580,CGTgamblingSpanTasks,2022.2.1,Win32,72.04610951,,,,,,,,3.421,,,,,,,,,,,,,,2,n,0.579,10.55,1,4.921,1.5,0,39,39,32,1,10.55,0,6.73,0,,,,,,,,,,,,,,,,,,,,,,,,,,,,,,,,,,,,,,,,,,,,,,,,,,,,,,,,,,,,,,,,,,,,,,,,,,,,,,,,,,,,,,,,,,,,,,,,,,
,,5da7c6ecd11d560015a3d1da,2022-09-08_13h05.12.580,CGTgamblingSpanTasks,2022.2.1,Win32,72.04610951,,,,,,,,3.439,,,,,,,,,,,,,,1,v,0.561,6.99,1,4.939,1.5,0,40,40,43,1,16.11,6.99,6.99,1,,,,,,,,,,,,,,,,,,,,,,,,,,,,,,,,,,,,,,,,,,,,,,,,,,,,,,,,,,,,,,,,,,,,,,,,,,,,,,,,,,,,,,,,,,,,,,,,,,
,,5da7c6ecd11d560015a3d1da,2022-09-08_13h05.12.580,CGTgamblingSpanTasks,2022.2.1,Win32,72.04610951,,,,,,,,3.142,,,,,,,,,,,,,,1,n,0.858,9.7,0,4.142,1,0,41,41,27,1,16.6,0,9.7,0,,,,,,,,,,,,,,,,,,,,,,,,,,,,,,,,,,,,,,,,,,,,,,,,,,,,,,,,,,,,,,,,,,,,,,,,,,,,,,,,,,,,,,,,,,,,,,,,,,
,,5da7c6ecd11d560015a3d1da,2022-09-08_13h05.12.580,CGTgamblingSpanTasks,2022.2.1,Win32,72.04610951,,,,,,,,3.394,,,,,,,,,,,,,,1,v,0.606,0,1,4.394,1,0,42,42,14,1,12.68,0,5.66,0,,,,,,,,,,,,,,,,,,,,,,,,,,,,,,,,,,,,,,,,,,,,,,,,,,,,,,,,,,,,,,,,,,,,,,,,,,,,,,,,,,,,,,,,,,,,,,,,,,
,,5da7c6ecd11d560015a3d1da,2022-09-08_13h05.12.580,CGTgamblingSpanTasks,2022.2.1,Win32,72.04610951,,,,,,,,3.078,,,,,,,,,,,,,,2,n,0.922,0,1,4.078,1,0,43,43,39,1,15.09,0,10.46,0,,,,,,,,,,,,,,,,,,,,,,,,,,,,,,,,,,,,,,,,,,,,,,,,,,,,,,,,,,,,,,,,,,,,,,,,,,,,,,,,,,,,,,,,,,,,,,,,,,
,,5da7c6ecd11d560015a3d1da,2022-09-08_13h05.12.580,CGTgamblingSpanTasks,2022.2.1,Win32,72.04610951,,,,,,,,2.778,,,,,,,,,,,,,,2,v,1.222,6.63,0,4.278,1.5,0,44,44,30,1,10.73,0,6.63,0,,,,,,,,,,,,,,,,,,,,,,,,,,,,,,,,,,,,,,,,,,,,,,,,,,,,,,,,,,,,,,,,,,,,,,,,,,,,,,,,,,,,,,,,,,,,,,,,,,
,,5da7c6ecd11d560015a3d1da,2022-09-08_13h05.12.580,CGTgamblingSpanTasks,2022.2.1,Win32,72.04610951,,,,,,,,3.043,,,,,,,,,,,,,,2,v,0.957,5.82,0,4.543,1.5,0,45,45,16,1,12.36,0,5.82,0,,,,,,,,,,,,,,,,,,,,,,,,,,,,,,,,,,,,,,,,,,,,,,,,,,,,,,,,,,,,,,,,,,,,,,,,,,,,,,,,,,,,,,,,,,,,,,,,,,
,,5da7c6ecd11d560015a3d1da,2022-09-08_13h05.12.580,CGTgamblingSpanTasks,2022.2.1,Win32,72.04610951,,,,,,,,2.989,,,,,,,,,,,,,,1,n,1.011,3.13,0,4.489,1.5,0,46,46,2,1,17.73,0,3.13,0,,,,,,,,,,,,,,,,,,,,,,,,,,,,,,,,,,,,,,,,,,,,,,,,,,,,,,,,,,,,,,,,,,,,,,,,,,,,,,,,,,,,,,,,,,,,,,,,,,
,,5da7c6ecd11d560015a3d1da,2022-09-08_13h05.12.580,CGTgamblingSpanTasks,2022.2.1,Win32,72.04610951,,,,,,,,3.479,,,,,,,,,,,,,,2,v,0.521,6.88,0,4.979,1.5,0,47,47,36,1,10.24,0,6.88,0,,,,,,,,,,,,,,,,,,,,,,,,,,,,,,,,,,,,,,,,,,,,,,,,,,,,,,,,,,,,,,,,,,,,,,,,,,,,,,,,,,,,,,,,,,,,,,,,,,
,,5da7c6ecd11d560015a3d1da,2022-09-08_13h05.12.580,CGTgamblingSpanTasks,2022.2.1,Win32,72.04610951,,,,,,,,2.98,,,,,,,,,,,,,,2,n,1.02,19.86,1,3.98,1,0,48,48,42,1,19.86,0,0,1,,,,,,,,,,,,,,,,,,,,,,,,,,,,,,,,,,,,,,,,,,,,,,,,,,,,,,,,,,,,,,,,,,,,,,,,,,,,,,,,,,,,,,,,,,,,,,,,,,
,,5da7c6ecd11d560015a3d1da,2022-09-08_13h05.12.580,CGTgamblingSpanTasks,2022.2.1,Win32,72.04610951,,,,,,,,3.311,,,,,,,,,,,,,,2,v,0.689,5.96,0,4.311,1,0,49,49,18,1,12.08,0,5.96,0,,,,,,,,,,,,,,,,,,,,,,,,,,,,,,,,,,,,,,,,,,,,,,,,,,,,,,,,,,,,,,,,,,,,,,,,,,,,,,,,,,,,,,,,,,,,,,,,,,
,,5da7c6ecd11d560015a3d1da,2022-09-08_13h05.12.580,CGTgamblingSpanTasks,2022.2.1,Win32,72.04610951,,,,,,,,,,,,,,,,,,,,,,,,,,,,,,,,,,,,,,bespoke_choiceset_rhoInd077_muInd001.csv,bespoke_choicesets/bespoke_choiceset_rhoInd077_muInd001.csv,77,1,0,0,0,0,1,,,,,,,,,,,,,,,,,,,,,,,,,,,,,,,,,,,,,,,,,,,,,,,,,,,,,,,,,,,,,,,,,,,,,,,,,,,,,,,,,,,,,,,,,
,,5da7c6ecd11d560015a3d1da,2022-09-08_13h05.12.580,CGTgamblingSpanTasks,2022.2.1,Win32,72.04610951,,,,,,,,,,,,,,,,,,,,,,,,,,,,,,,,,,,,,,,,,,,,,,,,,,,,,,,,,,,,,,,,,,,,,,,,,,,,,,,,,,,,,,,,,,,,,,,,,,,,,,,,,,,,,,,,,,,,,,,,,,,,,,,,,,,,,,,
,,5da7c6ecd11d560015a3d1da,2022-09-08_13h05.12.580,CGTgamblingSpanTasks,2022.2.1,Win32,72.04610951,,,,,,,,,,,,,,,,,,,,,,,,,,,,,,,,,,,,,,,,,,,,,,,n,15.286,,,,,,,,,,,,,,,,,,,,,,,,,,,,,,,,,,,,,,,,,,,,,,,,,,,,,,,,,,,,,,,,,,,,,,,,,,,,,,,,,,,,,,,
,,5da7c6ecd11d560015a3d1da,2022-09-08_13h05.12.580,CGTgamblingSpanTasks,2022.2.1,Win32,72.04610951,,,,,,,,3.138,,,,,,,,,,,,,,1,v,0.862,12.9904115,1,4.638,1.5,,,,,,12.9904115,0,11.42134125,,,,,,,,,,,,,0,0,0,118,1,0.037876033,0,,,,,,,,,,,,,,,,,,,,,,,,,,,,,,,,,,,,,,,,,,,,,,,,,,,,,,,,,,,,,,,,,,,,,,,,,,,,,,,,
,,5da7c6ecd11d560015a3d1da,2022-09-08_13h05.12.580,CGTgamblingSpanTasks,2022.2.1,Win32,72.04610951,,,,,,,,3.191,,,,,,,,,,,,,,2,n,0.809,27.53810185,1,4.691,1.5,,,,,,27.53810185,0,0.097022401,,,,,,,,,,,,,0,1,1,50,1,0.901515865,0,,,,,,,,,,,,,,,,,,,,,,,,,,,,,,,,,,,,,,,,,,,,,,,,,,,,,,,,,,,,,,,,,,,,,,,,,,,,,,,,
,,5da7c6ecd11d560015a3d1da,2022-09-08_13h05.12.580,CGTgamblingSpanTasks,2022.2.1,Win32,72.04610951,,,,,,,,3.42,,,,,,,,,,,,,,2,v,0.58,11.61882862,0,4.92,1.5,,,,,,4.022743614,0,11.61882862,,,,,,,,,,,,,0,2,2,38,1,0.011499376,0,,,,,,,,,,,,,,,,,,,,,,,,,,,,,,,,,,,,,,,,,,,,,,,,,,,,,,,,,,,,,,,,,,,,,,,,,,,,,,,,
,,5da7c6ecd11d560015a3d1da,2022-09-08_13h05.12.580,CGTgamblingSpanTasks,2022.2.1,Win32,72.04610951,,,,,,,,3.072,,,,,,,,,,,,,,2,v,0.928,10.68505773,0,4.572,1.5,,,,,,17.64114152,0,10.68505773,,,,,,,,,,,,,0,3,3,98,1,0.074299362,0,,,,,,,,,,,,,,,,,,,,,,,,,,,,,,,,,,,,,,,,,,,,,,,,,,,,,,,,,,,,,,,,,,,,,,,,,,,,,,,,
,,5da7c6ecd11d560015a3d1da,2022-09-08_13h05.12.580,CGTgamblingSpanTasks,2022.2.1,Win32,72.04610951,,,,,,,,2.936,,,,,,,,,,,,,,1,v,1.064,0,1,4.436,1.5,,,,,,27.57491653,0,2.99133314,,,,,,,,,,,,,0,4,4,10,1,0.47625893,1,,,,,,,,,,,,,,,,,,,,,,,,,,,,,,,,,,,,,,,,,,,,,,,,,,,,,,,,,,,,,,,,,,,,,,,,,,,,,,,,
,,5da7c6ecd11d560015a3d1da,2022-09-08_13h05.12.580,CGTgamblingSpanTasks,2022.2.1,Win32,72.04610951,,,,,,,,3.292,,,,,,,,,,,,,,2,n,0.708,0,1,4.792,1.5,,,,,,0.192759042,0,4.462262453,,,,,,,,,,,,,0,5,5,52,1,0.003553223,0,,,,,,,,,,,,,,,,,,,,,,,,,,,,,,,,,,,,,,,,,,,,,,,,,,,,,,,,,,,,,,,,,,,,,,,,,,,,,,,,
,,5da7c6ecd11d560015a3d1da,2022-09-08_13h05.12.580,CGTgamblingSpanTasks,2022.2.1,Win32,72.04610951,,,,,,,,3.254,,,,,,,,,,,,,,2,n,0.746,0,1,4.254,1,,,,,,27.93093084,0,0.050207531,,,,,,,,,,,,,0,6,6,83,1,0.920505936,0,,,,,,,,,,,,,,,,,,,,,,,,,,,,,,,,,,,,,,,,,,,,,,,,,,,,,,,,,,,,,,,,,,,,,,,,,,,,,,,,
,,5da7c6ecd11d560015a3d1da,2022-09-08_13h05.12.580,CGTgamblingSpanTasks,2022.2.1,Win32,72.04610951,,,,,,,,3.078,,,,,,,,,,,,,,2,n,0.922,0,1,4.578,1.5,,,,,,27.2532142,0,0.08089327,,,,,,,,,,,,,0,7,7,119,1,0.907091845,0,,,,,,,,,,,,,,,,,,,,,,,,,,,,,,,,,,,,,,,,,,,,,,,,,,,,,,,,,,,,,,,,,,,,,,,,,,,,,,,,
,,5da7c6ecd11d560015a3d1da,2022-09-08_13h05.12.580,CGTgamblingSpanTasks,2022.2.1,Win32,72.04610951,,,,,,,,3.429,,,,,,,,,,,,,,2,v,0.571,1.635040165,0,4.429,1,,,,,,18.20422443,0,1.635040165,,,,,,,,,,,,,0,8,8,82,1,0.525708991,1,,,,,,,,,,,,,,,,,,,,,,,,,,,,,,,,,,,,,,,,,,,,,,,,,,,,,,,,,,,,,,,,,,,,,,,,,,,,,,,,
,,5da7c6ecd11d560015a3d1da,2022-09-08_13h05.12.580,CGTgamblingSpanTasks,2022.2.1,Win32,72.04610951,,,,,,,,3.251,,,,,,,,,,,,,,2,n,0.749,27.37527992,1,4.751,1.5,,,,,,27.37527992,0,2.860319095,,,,,,,,,,,,,0,9,9,39,1,0.486304156,1,,,,,,,,,,,,,,,,,,,,,,,,,,,,,,,,,,,,,,,,,,,,,,,,,,,,,,,,,,,,,,,,,,,,,,,,,,,,,,,,
,,5da7c6ecd11d560015a3d1da,2022-09-08_13h05.12.580,CGTgamblingSpanTasks,2022.2.1,Win32,72.04610951,,,,,,,,3.375,,,,,,,,,,,,,,1,v,0.625,7.534278541,1,4.375,1,,,,,,7.534278541,0,0.747140182,,,,,,,,,,,,,0,10,10,37,1,0.50012466,1,,,,,,,,,,,,,,,,,,,,,,,,,,,,,,,,,,,,,,,,,,,,,,,,,,,,,,,,,,,,,,,,,,,,,,,,,,,,,,,,
,,5da7c6ecd11d560015a3d1da,2022-09-08_13h05.12.580,CGTgamblingSpanTasks,2022.2.1,Win32,72.04610951,,,,,,,,3.151,,,,,,,,,,,,,,2,n,0.849,0,1,4.151,1,,,,,,27.4965044,0,2.461467004,,,,,,,,,,,,,0,11,11,36,1,0.526550878,1,,,,,,,,,,,,,,,,,,,,,,,,,,,,,,,,,,,,,,,,,,,,,,,,,,,,,,,,,,,,,,,,,,,,,,,,,,,,,,,,
,,5da7c6ecd11d560015a3d1da,2022-09-08_13h05.12.580,CGTgamblingSpanTasks,2022.2.1,Win32,72.04610951,,,,,,,,3.23,,,,,,,,,,,,,,2,v,0.77,1.448620949,0,4.73,1.5,,,,,,17.4320197,0,1.448620949,,,,,,,,,,,,,0,12,12,30,1,0.545178213,1,,,,,,,,,,,,,,,,,,,,,,,,,,,,,,,,,,,,,,,,,,,,,,,,,,,,,,,,,,,,,,,,,,,,,,,,,,,,,,,,
,,5da7c6ecd11d560015a3d1da,2022-09-08_13h05.12.580,CGTgamblingSpanTasks,2022.2.1,Win32,72.04610951,,,,,,,,3.187,,,,,,,,,,,,,,2,n,0.813,25.56803059,1,4.187,1,,,,,,25.56803059,0,2.543951743,,,,,,,,,,,,,0,13,13,41,1,0.499247217,1,,,,,,,,,,,,,,,,,,,,,,,,,,,,,,,,,,,,,,,,,,,,,,,,,,,,,,,,,,,,,,,,,,,,,,,,,,,,,,,,
,,5da7c6ecd11d560015a3d1da,2022-09-08_13h05.12.580,CGTgamblingSpanTasks,2022.2.1,Win32,72.04610951,,,,,,,,3.058,,,,,,,,,,,,,,1,v,0.942,20.5726842,1,4.058,1,,,,,,20.5726842,0,0.073558523,,,,,,,,,,,,,0,14,14,26,1,0.901008565,0,,,,,,,,,,,,,,,,,,,,,,,,,,,,,,,,,,,,,,,,,,,,,,,,,,,,,,,,,,,,,,,,,,,,,,,,,,,,,,,,
,,5da7c6ecd11d560015a3d1da,2022-09-08_13h05.12.580,CGTgamblingSpanTasks,2022.2.1,Win32,72.04610951,,,,,,,,3.006,,,,,,,,,,,,,,2,n,0.994,0,1,4.006,1,,,,,,26.11188619,0,0.081942421,,,,,,,,,,,,,0,15,15,105,1,0.905343856,0,,,,,,,,,,,,,,,,,,,,,,,,,,,,,,,,,,,,,,,,,,,,,,,,,,,,,,,,,,,,,,,,,,,,,,,,,,,,,,,,
,,5da7c6ecd11d560015a3d1da,2022-09-08_13h05.12.580,CGTgamblingSpanTasks,2022.2.1,Win32,72.04610951,,,,,,,,2.969,,,,,,,,,,,,,,1,n,1.031,10.41201161,0,4.469,1.5,,,,,,6.307062696,0,10.41201161,,,,,,,,,,,,,0,16,16,23,1,0.018187109,0,,,,,,,,,,,,,,,,,,,,,,,,,,,,,,,,,,,,,,,,,,,,,,,,,,,,,,,,,,,,,,,,,,,,,,,,,,,,,,,,
,,5da7c6ecd11d560015a3d1da,2022-09-08_13h05.12.580,CGTgamblingSpanTasks,2022.2.1,Win32,72.04610951,,,,,,,,3.209,,,,,,,,,,,,,,2,n,0.791,0,1,4.709,1.5,,,,,,27.60724521,0,0.088432325,,,,,,,,,,,,,0,17,17,17,1,0.904684186,0,,,,,,,,,,,,,,,,,,,,,,,,,,,,,,,,,,,,,,,,,,,,,,,,,,,,,,,,,,,,,,,,,,,,,,,,,,,,,,,,
,,5da7c6ecd11d560015a3d1da,2022-09-08_13h05.12.580,CGTgamblingSpanTasks,2022.2.1,Win32,72.04610951,,,,,,,,3.247,,,,,,,,,,,,,,2,n,0.753,0,1,4.247,1,,,,,,27.38828234,0,0.0639233,,,,,,,,,,,,,0,18,18,43,1,0.914010176,0,,,,,,,,,,,,,,,,,,,,,,,,,,,,,,,,,,,,,,,,,,,,,,,,,,,,,,,,,,,,,,,,,,,,,,,,,,,,,,,,
,,5da7c6ecd11d560015a3d1da,2022-09-08_13h05.12.580,CGTgamblingSpanTasks,2022.2.1,Win32,72.04610951,,,,,,,,3.504,,,,,,,,,,,,,,1,v,0.496,17.67865084,1,5.004,1.5,,,,,,17.67865084,0,11.35147481,,,,,,,,,,,,,0,19,19,91,1,0.067304606,0,,,,,,,,,,,,,,,,,,,,,,,,,,,,,,,,,,,,,,,,,,,,,,,,,,,,,,,,,,,,,,,,,,,,,,,,,,,,,,,,
,,5da7c6ecd11d560015a3d1da,2022-09-08_13h05.12.580,CGTgamblingSpanTasks,2022.2.1,Win32,72.04610951,,,,,,,,2.921,,,,,,,,,,,,,,2,v,1.079,11.19311486,0,3.921,1,,,,,,8.17598802,0,11.19311486,,,,,,,,,,,,,0,20,20,110,1,0.021568003,0,,,,,,,,,,,,,,,,,,,,,,,,,,,,,,,,,,,,,,,,,,,,,,,,,,,,,,,,,,,,,,,,,,,,,,,,,,,,,,,,
,,5da7c6ecd11d560015a3d1da,2022-09-08_13h05.12.580,CGTgamblingSpanTasks,2022.2.1,Win32,72.04610951,,,,,,,,2.926,,,,,,,,,,,,,,2,n,1.074,22.0050376,1,3.926,1,,,,,,22.0050376,0,2.257683666,,,,,,,,,,,,,0,21,21,4,1,0.491147312,1,,,,,,,,,,,,,,,,,,,,,,,,,,,,,,,,,,,,,,,,,,,,,,,,,,,,,,,,,,,,,,,,,,,,,,,,,,,,,,,,
,,5da7c6ecd11d560015a3d1da,2022-09-08_13h05.12.580,CGTgamblingSpanTasks,2022.2.1,Win32,72.04610951,,,,,,,,3.341,,,,,,,,,,,,,,2,v,0.659,7.850775577,0,4.341,1,,,,,,4.622707531,0,7.850775577,,,,,,,,,,,,,0,22,22,6,1,0.017737407,0,,,,,,,,,,,,,,,,,,,,,,,,,,,,,,,,,,,,,,,,,,,,,,,,,,,,,,,,,,,,,,,,,,,,,,,,,,,,,,,,
,,5da7c6ecd11d560015a3d1da,2022-09-08_13h05.12.580,CGTgamblingSpanTasks,2022.2.1,Win32,72.04610951,,,,,,,,2.971,,,,,,,,,,,,,,2,n,1.029,0,1,4.471,1.5,,,,,,28.94627214,0,2.701896413,,,,,,,,,,,,,0,23,23,111,1,0.515860759,1,,,,,,,,,,,,,,,,,,,,,,,,,,,,,,,,,,,,,,,,,,,,,,,,,,,,,,,,,,,,,,,,,,,,,,,,,,,,,,,,
,,5da7c6ecd11d560015a3d1da,2022-09-08_13h05.12.580,CGTgamblingSpanTasks,2022.2.1,Win32,72.04610951,,,,,,,,2.743,,,,,,,,,,,,,,2,n,1.257,0,1,4.243,1.5,,,,,,27.76752685,0,0.083968035,,,,,,,,,,,,,0,24,24,13,1,0.906513967,0,,,,,,,,,,,,,,,,,,,,,,,,,,,,,,,,,,,,,,,,,,,,,,,,,,,,,,,,,,,,,,,,,,,,,,,,,,,,,,,,
,,5da7c6ecd11d560015a3d1da,2022-09-08_13h05.12.580,CGTgamblingSpanTasks,2022.2.1,Win32,72.04610951,,,,,,,,2.808,,,,,,,,,,,,,,2,n,1.192,24.8002852,1,4.308,1.5,,,,,,24.8002852,0,0.071848086,,,,,,,,,,,,,0,25,25,16,1,0.90783559,0,,,,,,,,,,,,,,,,,,,,,,,,,,,,,,,,,,,,,,,,,,,,,,,,,,,,,,,,,,,,,,,,,,,,,,,,,,,,,,,,
,,5da7c6ecd11d560015a3d1da,2022-09-08_13h05.12.580,CGTgamblingSpanTasks,2022.2.1,Win32,72.04610951,,,,,,,,2.722,,,,,,,,,,,,,,1,v,1.278,28.68598705,1,4.222,1.5,,,,,,28.68598705,0,0.050674956,,,,,,,,,,,,,0,26,26,62,1,0.920905497,0,,,,,,,,,,,,,,,,,,,,,,,,,,,,,,,,,,,,,,,,,,,,,,,,,,,,,,,,,,,,,,,,,,,,,,,,,,,,,,,,
,,5da7c6ecd11d560015a3d1da,2022-09-08_13h05.12.580,CGTgamblingSpanTasks,2022.2.1,Win32,72.04610951,,,,,,,,3.028,,,,,,,,,,,,,,1,v,0.972,25.0707644,1,4.528,1.5,,,,,,25.0707644,0,0.067651625,,,,,,,,,,,,,0,27,27,70,1,0.909952349,0,,,,,,,,,,,,,,,,,,,,,,,,,,,,,,,,,,,,,,,,,,,,,,,,,,,,,,,,,,,,,,,,,,,,,,,,,,,,,,,,
,,5da7c6ecd11d560015a3d1da,2022-09-08_13h05.12.580,CGTgamblingSpanTasks,2022.2.1,Win32,72.04610951,,,,,,,,3.105,,,,,,,,,,,,,,1,v,0.895,8.670591867,1,4.605,1.5,,,,,,8.670591867,0,1.025847652,,,,,,,,,,,,,0,28,28,18,1,0.452680459,1,,,,,,,,,,,,,,,,,,,,,,,,,,,,,,,,,,,,,,,,,,,,,,,,,,,,,,,,,,,,,,,,,,,,,,,,,,,,,,,,
,,5da7c6ecd11d560015a3d1da,2022-09-08_13h05.12.580,CGTgamblingSpanTasks,2022.2.1,Win32,72.04610951,,,,,,,,2.804,,,,,,,,,,,,,,1,v,1.196,15.21435748,1,4.304,1.5,,,,,,15.21435748,0,10.3417501,,,,,,,,,,,,,0,29,29,72,1,0.060969226,0,,,,,,,,,,,,,,,,,,,,,,,,,,,,,,,,,,,,,,,,,,,,,,,,,,,,,,,,,,,,,,,,,,,,,,,,,,,,,,,,
,,5da7c6ecd11d560015a3d1da,2022-09-08_13h05.12.580,CGTgamblingSpanTasks,2022.2.1,Win32,72.04610951,,,,,,,,3.188,,,,,,,,,,,,,,2,v,0.812,2.893007023,0,4.188,1,,,,,,28.9323758,0,2.893007023,,,,,,,,,,,,,0,30,30,11,1,0.497943321,1,,,,,,,,,,,,,,,,,,,,,,,,,,,,,,,,,,,,,,,,,,,,,,,,,,,,,,,,,,,,,,,,,,,,,,,,,,,,,,,,
,,5da7c6ecd11d560015a3d1da,2022-09-08_13h05.12.580,CGTgamblingSpanTasks,2022.2.1,Win32,72.04610951,,,,,,,,3.424,,,,,,,,,,,,,,2,n,0.576,22.25959835,1,4.424,1,,,,,,22.25959835,0,0.065383587,,,,,,,,,,,,,0,31,31,97,1,0.907413875,0,,,,,,,,,,,,,,,,,,,,,,,,,,,,,,,,,,,,,,,,,,,,,,,,,,,,,,,,,,,,,,,,,,,,,,,,,,,,,,,,
,,5da7c6ecd11d560015a3d1da,2022-09-08_13h05.12.580,CGTgamblingSpanTasks,2022.2.1,Win32,72.04610951,,,,,,,,3.04,,,,,,,,,,,,,,1,v,0.96,21.7711579,1,4.04,1,,,,,,21.7711579,0,2.502728921,,,,,,,,,,,,,0,32,32,101,1,0.460552621,1,,,,,,,,,,,,,,,,,,,,,,,,,,,,,,,,,,,,,,,,,,,,,,,,,,,,,,,,,,,,,,,,,,,,,,,,,,,,,,,,
,,5da7c6ecd11d560015a3d1da,2022-09-08_13h05.12.580,CGTgamblingSpanTasks,2022.2.1,Win32,72.04610951,,,,,,,,2.917,,,,,,,,,,,,,,2,n,1.083,2.231316635,1,4.417,1.5,,,,,,2.231316635,0,7.50753835,,,,,,,,,,,,,0,33,33,29,1,0.010273427,0,,,,,,,,,,,,,,,,,,,,,,,,,,,,,,,,,,,,,,,,,,,,,,,,,,,,,,,,,,,,,,,,,,,,,,,,,,,,,,,,
,,5da7c6ecd11d560015a3d1da,2022-09-08_13h05.12.580,CGTgamblingSpanTasks,2022.2.1,Win32,72.04610951,,,,,,,,3.243,,,,,,,,,,,,,,1,v,0.757,14.20587264,1,4.243,1,,,,,,14.20587264,0,11.93550497,,,,,,,,,,,,,0,34,34,21,1,0.041340301,0,,,,,,,,,,,,,,,,,,,,,,,,,,,,,,,,,,,,,,,,,,,,,,,,,,,,,,,,,,,,,,,,,,,,,,,,,,,,,,,,
,,5da7c6ecd11d560015a3d1da,2022-09-08_13h05.12.580,CGTgamblingSpanTasks,2022.2.1,Win32,72.04610951,,,,,,,,3.277,,,,,,,,,,,,,,2,n,0.723,26.36733703,1,4.777,1.5,,,,,,26.36733703,0,2.201057101,,,,,,,,,,,,,0,35,35,90,1,0.544064207,1,,,,,,,,,,,,,,,,,,,,,,,,,,,,,,,,,,,,,,,,,,,,,,,,,,,,,,,,,,,,,,,,,,,,,,,,,,,,,,,,
,,5da7c6ecd11d560015a3d1da,2022-09-08_13h05.12.580,CGTgamblingSpanTasks,2022.2.1,Win32,72.04610951,,,,,,,,3.395,,,,,,,,,,,,,,1,v,0.605,21.39646914,1,4.395,1,,,,,,21.39646914,0,0.072474078,,,,,,,,,,,,,0,36,36,3,1,0.902848133,0,,,,,,,,,,,,,,,,,,,,,,,,,,,,,,,,,,,,,,,,,,,,,,,,,,,,,,,,,,,,,,,,,,,,,,,,,,,,,,,,
,,5da7c6ecd11d560015a3d1da,2022-09-08_13h05.12.580,CGTgamblingSpanTasks,2022.2.1,Win32,72.04610951,,,,,,,,3.36,,,,,,,,,,,,,,1,n,0.64,6.781500919,0,4.36,1,,,,,,8.363821911,0,6.781500919,,,,,,,,,,,,,0,37,37,61,1,0.044227959,0,,,,,,,,,,,,,,,,,,,,,,,,,,,,,,,,,,,,,,,,,,,,,,,,,,,,,,,,,,,,,,,,,,,,,,,,,,,,,,,,
,,5da7c6ecd11d560015a3d1da,2022-09-08_13h05.12.580,CGTgamblingSpanTasks,2022.2.1,Win32,72.04610951,,,,,,,,3.322,,,,,,,,,,,,,,2,v,0.678,2.485985001,0,4.322,1,,,,,,23.4214135,0,2.485985001,,,,,,,,,,,,,0,38,38,81,1,0.482105905,1,,,,,,,,,,,,,,,,,,,,,,,,,,,,,,,,,,,,,,,,,,,,,,,,,,,,,,,,,,,,,,,,,,,,,,,,,,,,,,,,
,,5da7c6ecd11d560015a3d1da,2022-09-08_13h05.12.580,CGTgamblingSpanTasks,2022.2.1,Win32,72.04610951,,,,,,,,3.181,,,,,,,,,,,,,,1,n,0.819,0.095763086,0,4.181,1,,,,,,29.76099779,0,0.095763086,,,,,,,,,,,,,0,39,39,35,1,0.904537896,0,,,,,,,,,,,,,,,,,,,,,,,,,,,,,,,,,,,,,,,,,,,,,,,,,,,,,,,,,,,,,,,,,,,,,,,,,,,,,,,,
,,5da7c6ecd11d560015a3d1da,2022-09-08_13h05.12.580,CGTgamblingSpanTasks,2022.2.1,Win32,72.04610951,,,,,,,,3.366,,,,,,,,,,,,,,1,v,0.634,27.39221343,1,4.366,1,,,,,,27.39221343,0,2.743407746,,,,,,,,,,,,,0,40,40,47,1,0.49752044,1,,,,,,,,,,,,,,,,,,,,,,,,,,,,,,,,,,,,,,,,,,,,,,,,,,,,,,,,,,,,,,,,,,,,,,,,,,,,,,,,
,,5da7c6ecd11d560015a3d1da,2022-09-08_13h05.12.580,CGTgamblingSpanTasks,2022.2.1,Win32,72.04610951,,,,,,,,3.024,,,,,,,,,,,,,,1,n,0.976,0.080932047,0,4.024,1,,,,,,27.12325385,0,0.080932047,,,,,,,,,,,,,0,41,41,14,1,0.906929184,0,,,,,,,,,,,,,,,,,,,,,,,,,,,,,,,,,,,,,,,,,,,,,,,,,,,,,,,,,,,,,,,,,,,,,,,,,,,,,,,,
,,5da7c6ecd11d560015a3d1da,2022-09-08_13h05.12.580,CGTgamblingSpanTasks,2022.2.1,Win32,72.04610951,,,,,,,,2.84,,,,,,,,,,,,,,2,n,1.16,0,1,3.84,1,,,,,,29.77342428,0,2.838865588,,,,,,,,,,,,,0,42,42,57,1,0.510363415,1,,,,,,,,,,,,,,,,,,,,,,,,,,,,,,,,,,,,,,,,,,,,,,,,,,,,,,,,,,,,,,,,,,,,,,,,,,,,,,,,
,,5da7c6ecd11d560015a3d1da,2022-09-08_13h05.12.580,CGTgamblingSpanTasks,2022.2.1,Win32,72.04610951,,,,,,,,3.143,,,,,,,,,,,,,,2,v,0.857,2.208275162,0,4.643,1.5,,,,,,21.03408097,0,2.208275162,,,,,,,,,,,,,0,43,43,0,1,0.485031246,1,,,,,,,,,,,,,,,,,,,,,,,,,,,,,,,,,,,,,,,,,,,,,,,,,,,,,,,,,,,,,,,,,,,,,,,,,,,,,,,,
,,5da7c6ecd11d560015a3d1da,2022-09-08_13h05.12.580,CGTgamblingSpanTasks,2022.2.1,Win32,72.04610951,,,,,,,,3.257,,,,,,,,,,,,,,1,n,0.743,5.526483034,0,4.757,1.5,,,,,,9.725876653,0,5.526483034,,,,,,,,,,,,,0,44,44,44,1,0.082550696,0,,,,,,,,,,,,,,,,,,,,,,,,,,,,,,,,,,,,,,,,,,,,,,,,,,,,,,,,,,,,,,,,,,,,,,,,,,,,,,,,
,,5da7c6ecd11d560015a3d1da,2022-09-08_13h05.12.580,CGTgamblingSpanTasks,2022.2.1,Win32,72.04610951,,,,,,,,3.252,,,,,,,,,,,,,,1,v,0.748,0,1,4.752,1.5,,,,,,23.59556381,0,2.464662219,,,,,,,,,,,,,0,45,45,22,1,0.486383205,1,,,,,,,,,,,,,,,,,,,,,,,,,,,,,,,,,,,,,,,,,,,,,,,,,,,,,,,,,,,,,,,,,,,,,,,,,,,,,,,,
,,5da7c6ecd11d560015a3d1da,2022-09-08_13h05.12.580,CGTgamblingSpanTasks,2022.2.1,Win32,72.04610951,,,,,,,,3.389,,,,,,,,,,,,,,1,n,0.611,11.6744431,0,4.889,1.5,,,,,,10.43004651,0,11.6744431,,,,,,,,,,,,,0,46,46,15,1,0.026176489,0,,,,,,,,,,,,,,,,,,,,,,,,,,,,,,,,,,,,,,,,,,,,,,,,,,,,,,,,,,,,,,,,,,,,,,,,,,,,,,,,
,,5da7c6ecd11d560015a3d1da,2022-09-08_13h05.12.580,CGTgamblingSpanTasks,2022.2.1,Win32,72.04610951,,,,,,,,3.181,,,,,,,,,,,,,,1,v,0.819,19.36415485,1,4.681,1.5,,,,,,19.36415485,0,1.966229494,,,,,,,,,,,,,0,47,47,96,1,0.493893111,1,,,,,,,,,,,,,,,,,,,,,,,,,,,,,,,,,,,,,,,,,,,,,,,,,,,,,,,,,,,,,,,,,,,,,,,,,,,,,,,,
,,5da7c6ecd11d560015a3d1da,2022-09-08_13h05.12.580,CGTgamblingSpanTasks,2022.2.1,Win32,72.04610951,,,,,,,,3.269,,,,,,,,,,,,,,2,n,0.731,25.54604005,1,4.269,1,,,,,,25.54604005,0,0.088845411,,,,,,,,,,,,,0,48,48,79,1,0.901957831,0,,,,,,,,,,,,,,,,,,,,,,,,,,,,,,,,,,,,,,,,,,,,,,,,,,,,,,,,,,,,,,,,,,,,,,,,,,,,,,,,
,,5da7c6ecd11d560015a3d1da,2022-09-08_13h05.12.580,CGTgamblingSpanTasks,2022.2.1,Win32,72.04610951,,,,,,,,3.356,,,,,,,,,,,,,,2,n,0.644,0,1,4.356,1,,,,,,24.479109,0,0.089582697,,,,,,,,,,,,,0,49,49,89,1,0.900200232,0,,,,,,,,,,,,,,,,,,,,,,,,,,,,,,,,,,,,,,,,,,,,,,,,,,,,,,,,,,,,,,,,,,,,,,,,,,,,,,,,
,,5da7c6ecd11d560015a3d1da,2022-09-08_13h05.12.580,CGTgamblingSpanTasks,2022.2.1,Win32,72.04610951,,,,,,,,3.334,,,,,,,,,,,,,,1,v,0.666,14.3363647,1,4.834,1.5,,,,,,14.3363647,0,1.396635362,,,,,,,,,,,,,0,50,50,78,1,0.504775474,1,,,,,,,,,,,,,,,,,,,,,,,,,,,,,,,,,,,,,,,,,,,,,,,,,,,,,,,,,,,,,,,,,,,,,,,,,,,,,,,,
,,5da7c6ecd11d560015a3d1da,2022-09-08_13h05.12.580,CGTgamblingSpanTasks,2022.2.1,Win32,72.04610951,,,,,,,,3.347,,,,,,,,,,,,,,2,n,0.653,7.066129113,1,4.347,1,,,,,,7.066129113,0,0.585581699,,,,,,,,,,,,,0,51,51,19,1,0.545860632,1,,,,,,,,,,,,,,,,,,,,,,,,,,,,,,,,,,,,,,,,,,,,,,,,,,,,,,,,,,,,,,,,,,,,,,,,,,,,,,,,
,,5da7c6ecd11d560015a3d1da,2022-09-08_13h05.12.580,CGTgamblingSpanTasks,2022.2.1,Win32,72.04610951,,,,,,,,3.277,,,,,,,,,,,,,,2,n,0.723,0,1,4.277,1,,,,,,21.16780451,0,2.469465385,,,,,,,,,,,,,0,52,52,32,1,0.456531699,1,,,,,,,,,,,,,,,,,,,,,,,,,,,,,,,,,,,,,,,,,,,,,,,,,,,,,,,,,,,,,,,,,,,,,,,,,,,,,,,,
,,5da7c6ecd11d560015a3d1da,2022-09-08_13h05.12.580,CGTgamblingSpanTasks,2022.2.1,Win32,72.04610951,,,,,,,,3.333,,,,,,,,,,,,,,1,v,0.667,0,1,4.333,1,,,,,,27.94544945,0,2.32030209,,,,,,,,,,,,,0,53,53,115,1,0.545390564,1,,,,,,,,,,,,,,,,,,,,,,,,,,,,,,,,,,,,,,,,,,,,,,,,,,,,,,,,,,,,,,,,,,,,,,,,,,,,,,,,
,,5da7c6ecd11d560015a3d1da,2022-09-08_13h05.12.580,CGTgamblingSpanTasks,2022.2.1,Win32,72.04610951,,,,,,,,3.456,,,,,,,,,,,,,,2,n,0.544,0,1,4.456,1,,,,,,26.4985979,0,0.051324376,,,,,,,,,,,,,0,54,54,106,1,0.918747215,0,,,,,,,,,,,,,,,,,,,,,,,,,,,,,,,,,,,,,,,,,,,,,,,,,,,,,,,,,,,,,,,,,,,,,,,,,,,,,,,,
,,5da7c6ecd11d560015a3d1da,2022-09-08_13h05.12.580,CGTgamblingSpanTasks,2022.2.1,Win32,72.04610951,,,,,,,,3.051,,,,,,,,,,,,,,1,n,0.949,2.123581464,0,4.551,1.5,,,,,,19.5450126,0,2.123581464,,,,,,,,,,,,,0,55,55,65,1,0.475836144,1,,,,,,,,,,,,,,,,,,,,,,,,,,,,,,,,,,,,,,,,,,,,,,,,,,,,,,,,,,,,,,,,,,,,,,,,,,,,,,,,
,,5da7c6ecd11d560015a3d1da,2022-09-08_13h05.12.580,CGTgamblingSpanTasks,2022.2.1,Win32,72.04610951,,,,,,,,3.082,,,,,,,,,,,,,,2,n,0.918,0,1,4.082,1,,,,,,18.50662664,0,0.052546026,,,,,,,,,,,,,0,56,56,112,1,0.908444837,0,,,,,,,,,,,,,,,,,,,,,,,,,,,,,,,,,,,,,,,,,,,,,,,,,,,,,,,,,,,,,,,,,,,,,,,,,,,,,,,,
,,5da7c6ecd11d560015a3d1da,2022-09-08_13h05.12.580,CGTgamblingSpanTasks,2022.2.1,Win32,72.04610951,,,,,,,,2.876,,,,,,,,,,,,,,2,n,1.124,28.13634754,1,3.876,1,,,,,,28.13634754,0,2.532806323,,,,,,,,,,,,,0,57,57,28,1,0.525136524,1,,,,,,,,,,,,,,,,,,,,,,,,,,,,,,,,,,,,,,,,,,,,,,,,,,,,,,,,,,,,,,,,,,,,,,,,,,,,,,,,
,,5da7c6ecd11d560015a3d1da,2022-09-08_13h05.12.580,CGTgamblingSpanTasks,2022.2.1,Win32,72.04610951,,,,,,,,3.334,,,,,,,,,,,,,,1,v,0.666,22.86604061,1,4.834,1.5,,,,,,22.86604061,0,2.293289792,,,,,,,,,,,,,0,58,58,51,1,0.49715382,1,,,,,,,,,,,,,,,,,,,,,,,,,,,,,,,,,,,,,,,,,,,,,,,,,,,,,,,,,,,,,,,,,,,,,,,,,,,,,,,,
,,5da7c6ecd11d560015a3d1da,2022-09-08_13h05.12.580,CGTgamblingSpanTasks,2022.2.1,Win32,72.04610951,,,,,,,,3.322,,,,,,,,,,,,,,2,n,0.678,17.5608285,1,4.322,1,,,,,,17.5608285,0,1.825111303,,,,,,,,,,,,,0,59,59,104,1,0.487721116,1,,,,,,,,,,,,,,,,,,,,,,,,,,,,,,,,,,,,,,,,,,,,,,,,,,,,,,,,,,,,,,,,,,,,,,,,,,,,,,,,
,,5da7c6ecd11d560015a3d1da,2022-09-08_13h05.12.580,CGTgamblingSpanTasks,2022.2.1,Win32,72.04610951,,,,,,,,3.203,,,,,,,,,,,,,,1,v,0.797,0,1,4.203,1,,,,,,8.217594828,0,0.951019374,,,,,,,,,,,,,0,60,60,87,1,0.458722936,1,,,,,,,,,,,,,,,,,,,,,,,,,,,,,,,,,,,,,,,,,,,,,,,,,,,,,,,,,,,,,,,,,,,,,,,,,,,,,,,,
,,5da7c6ecd11d560015a3d1da,2022-09-08_13h05.12.580,CGTgamblingSpanTasks,2022.2.1,Win32,72.04610951,,,,,,,,3.201,,,,,,,,,,,,,,2,n,0.799,21.46599803,1,4.201,1,,,,,,21.46599803,0,0.059789256,,,,,,,,,,,,,0,61,61,8,1,0.909019081,0,,,,,,,,,,,,,,,,,,,,,,,,,,,,,,,,,,,,,,,,,,,,,,,,,,,,,,,,,,,,,,,,,,,,,,,,,,,,,,,,
,,5da7c6ecd11d560015a3d1da,2022-09-08_13h05.12.580,CGTgamblingSpanTasks,2022.2.1,Win32,72.04610951,,,,,,,,3.452,,,,,,,,,,,,,,2,n,0.548,13.4287264,1,4.952,1.5,,,,,,13.4287264,0,1.317368801,,,,,,,,,,,,,0,62,62,100,1,0.502953125,1,,,,,,,,,,,,,,,,,,,,,,,,,,,,,,,,,,,,,,,,,,,,,,,,,,,,,,,,,,,,,,,,,,,,,,,,,,,,,,,,
,,5da7c6ecd11d560015a3d1da,2022-09-08_13h05.12.580,CGTgamblingSpanTasks,2022.2.1,Win32,72.04610951,,,,,,,,3.235,,,,,,,,,,,,,,2,n,0.765,0,1,4.735,1.5,,,,,,18.11029021,0,11.41737518,,,,,,,,,,,,,0,63,63,48,1,0.069445859,0,,,,,,,,,,,,,,,,,,,,,,,,,,,,,,,,,,,,,,,,,,,,,,,,,,,,,,,,,,,,,,,,,,,,,,,,,,,,,,,,
,,5da7c6ecd11d560015a3d1da,2022-09-08_13h05.12.580,CGTgamblingSpanTasks,2022.2.1,Win32,72.04610951,,,,,,,,2.487,,,,,,,,,,,,,,1,v,1.513,0,1,3.487,1,,,,,,19.3050342,0,2.030232342,,,,,,,,,,,,,0,64,64,73,1,0.484573227,1,,,,,,,,,,,,,,,,,,,,,,,,,,,,,,,,,,,,,,,,,,,,,,,,,,,,,,,,,,,,,,,,,,,,,,,,,,,,,,,,
,,5da7c6ecd11d560015a3d1da,2022-09-08_13h05.12.580,CGTgamblingSpanTasks,2022.2.1,Win32,72.04610951,,,,,,,,2.794,,,,,,,,,,,,,,1,n,1.206,3.877530383,0,3.794,1,,,,,,3.471484939,0,3.877530383,,,,,,,,,,,,,0,65,65,40,1,0.02623078,0,,,,,,,,,,,,,,,,,,,,,,,,,,,,,,,,,,,,,,,,,,,,,,,,,,,,,,,,,,,,,,,,,,,,,,,,,,,,,,,,
,,5da7c6ecd11d560015a3d1da,2022-09-08_13h05.12.580,CGTgamblingSpanTasks,2022.2.1,Win32,72.04610951,,,,,,,,3.287,,,,,,,,,,,,,,2,n,0.713,0,1,4.787,1.5,,,,,,27.7711693,0,2.320849632,,,,,,,,,,,,,0,66,66,94,1,0.543786368,1,,,,,,,,,,,,,,,,,,,,,,,,,,,,,,,,,,,,,,,,,,,,,,,,,,,,,,,,,,,,,,,,,,,,,,,,,,,,,,,,
,,5da7c6ecd11d560015a3d1da,2022-09-08_13h05.12.580,CGTgamblingSpanTasks,2022.2.1,Win32,72.04610951,,,,,,,,3.08,,,,,,,,,,,,,,1,v,0.92,0,1,4.08,1,,,,,,11.16819157,0,0.941456753,,,,,,,,,,,,,0,67,67,45,1,0.54163803,1,,,,,,,,,,,,,,,,,,,,,,,,,,,,,,,,,,,,,,,,,,,,,,,,,,,,,,,,,,,,,,,,,,,,,,,,,,,,,,,,
,,5da7c6ecd11d560015a3d1da,2022-09-08_13h05.12.580,CGTgamblingSpanTasks,2022.2.1,Win32,72.04610951,,,,,,,,2.773,,,,,,,,,,,,,,1,v,1.227,0,1,3.773,1,,,,,,29.75778644,0,2.810531415,,,,,,,,,,,,,0,68,68,113,1,0.512824233,1,,,,,,,,,,,,,,,,,,,,,,,,,,,,,,,,,,,,,,,,,,,,,,,,,,,,,,,,,,,,,,,,,,,,,,,,,,,,,,,,
,,5da7c6ecd11d560015a3d1da,2022-09-08_13h05.12.580,CGTgamblingSpanTasks,2022.2.1,Win32,72.04610951,,,,,,,,2.977,,,,,,,,,,,,,,2,n,1.023,0,1,4.477,1.5,,,,,,25.26994993,0,2.78925142,,,,,,,,,,,,,0,69,69,108,1,0.471582922,1,,,,,,,,,,,,,,,,,,,,,,,,,,,,,,,,,,,,,,,,,,,,,,,,,,,,,,,,,,,,,,,,,,,,,,,,,,,,,,,,
,,5da7c6ecd11d560015a3d1da,2022-09-08_13h05.12.580,CGTgamblingSpanTasks,2022.2.1,Win32,72.04610951,,,,,,,,3.289,,,,,,,,,,,,,,2,n,0.711,26.16821818,1,4.289,1,,,,,,26.16821818,0,0.093528069,,,,,,,,,,,,,0,70,70,42,1,0.901022427,0,,,,,,,,,,,,,,,,,,,,,,,,,,,,,,,,,,,,,,,,,,,,,,,,,,,,,,,,,,,,,,,,,,,,,,,,,,,,,,,,
,,5da7c6ecd11d560015a3d1da,2022-09-08_13h05.12.580,CGTgamblingSpanTasks,2022.2.1,Win32,72.04610951,,,,,,,,3.293,,,,,,,,,,,,,,1,v,0.707,11.08143071,1,4.793,1.5,,,,,,11.08143071,0,1.207538756,,,,,,,,,,,,,0,71,71,84,1,0.475047453,1,,,,,,,,,,,,,,,,,,,,,,,,,,,,,,,,,,,,,,,,,,,,,,,,,,,,,,,,,,,,,,,,,,,,,,,,,,,,,,,,
,,5da7c6ecd11d560015a3d1da,2022-09-08_13h05.12.580,CGTgamblingSpanTasks,2022.2.1,Win32,72.04610951,,,,,,,,3.222,,,,,,,,,,,,,,1,v,0.778,0,1,4.722,1.5,,,,,,28.9381277,0,2.663622024,,,,,,,,,,,,,0,72,72,103,1,0.519453367,1,,,,,,,,,,,,,,,,,,,,,,,,,,,,,,,,,,,,,,,,,,,,,,,,,,,,,,,,,,,,,,,,,,,,,,,,,,,,,,,,
,,5da7c6ecd11d560015a3d1da,2022-09-08_13h05.12.580,CGTgamblingSpanTasks,2022.2.1,Win32,72.04610951,,,,,,,,3.326,,,,,,,,,,,,,,2,n,0.674,0,1,4.326,1,,,,,,20.31034258,0,1.870404296,,,,,,,,,,,,,0,73,73,85,1,0.519325853,1,,,,,,,,,,,,,,,,,,,,,,,,,,,,,,,,,,,,,,,,,,,,,,,,,,,,,,,,,,,,,,,,,,,,,,,,,,,,,,,,
,,5da7c6ecd11d560015a3d1da,2022-09-08_13h05.12.580,CGTgamblingSpanTasks,2022.2.1,Win32,72.04610951,,,,,,,,2.807,,,,,,,,,,,,,,2,n,1.193,14.11762686,1,3.807,1,,,,,,14.11762686,0,8.579385201,,,,,,,,,,,,,0,74,74,60,1,0.073886959,0,,,,,,,,,,,,,,,,,,,,,,,,,,,,,,,,,,,,,,,,,,,,,,,,,,,,,,,,,,,,,,,,,,,,,,,,,,,,,,,,
,,5da7c6ecd11d560015a3d1da,2022-09-08_13h05.12.580,CGTgamblingSpanTasks,2022.2.1,Win32,72.04610951,,,,,,,,2.682,,,,,,,,,,,,,,2,n,1.318,0,1,4.182,1.5,,,,,,15.87668502,0,8.42547829,,,,,,,,,,,,,0,75,75,56,1,0.092099462,0,,,,,,,,,,,,,,,,,,,,,,,,,,,,,,,,,,,,,,,,,,,,,,,,,,,,,,,,,,,,,,,,,,,,,,,,,,,,,,,,
,,5da7c6ecd11d560015a3d1da,2022-09-08_13h05.12.580,CGTgamblingSpanTasks,2022.2.1,Win32,72.04610951,,,,,,,,2.957,,,,,,,,,,,,,,2,v,1.043,2.397643354,0,4.457,1.5,,,,,,22.62475578,0,2.397643354,,,,,,,,,,,,,0,76,76,93,1,0.482527609,1,,,,,,,,,,,,,,,,,,,,,,,,,,,,,,,,,,,,,,,,,,,,,,,,,,,,,,,,,,,,,,,,,,,,,,,,,,,,,,,,
,,5da7c6ecd11d560015a3d1da,2022-09-08_13h05.12.580,CGTgamblingSpanTasks,2022.2.1,Win32,72.04610951,,,,,,,,3.161,,,,,,,,,,,,,,1,n,0.839,11.39288827,0,4.661,1.5,,,,,,20.97851654,0,11.39288827,,,,,,,,,,,,,0,77,77,2,1,0.088791079,0,,,,,,,,,,,,,,,,,,,,,,,,,,,,,,,,,,,,,,,,,,,,,,,,,,,,,,,,,,,,,,,,,,,,,,,,,,,,,,,,
,,5da7c6ecd11d560015a3d1da,2022-09-08_13h05.12.580,CGTgamblingSpanTasks,2022.2.1,Win32,72.04610951,,,,,,,,3.429,,,,,,,,,,,,,,1,v,0.571,4.698775357,1,4.929,1.5,,,,,,4.698775357,0,4.904872644,,,,,,,,,,,,,0,78,78,75,1,0.028064484,0,,,,,,,,,,,,,,,,,,,,,,,,,,,,,,,,,,,,,,,,,,,,,,,,,,,,,,,,,,,,,,,,,,,,,,,,,,,,,,,,
,,5da7c6ecd11d560015a3d1da,2022-09-08_13h05.12.580,CGTgamblingSpanTasks,2022.2.1,Win32,72.04610951,,,,,,,,3.073,,,,,,,,,,,,,,1,n,0.927,4.251676631,0,4.073,1,,,,,,3.395192929,0,4.251676631,,,,,,,,,,,,,0,79,79,7,1,0.023467153,0,,,,,,,,,,,,,,,,,,,,,,,,,,,,,,,,,,,,,,,,,,,,,,,,,,,,,,,,,,,,,,,,,,,,,,,,,,,,,,,,
,,5da7c6ecd11d560015a3d1da,2022-09-08_13h05.12.580,CGTgamblingSpanTasks,2022.2.1,Win32,72.04610951,,,,,,,,3.313,,,,,,,,,,,,,,2,n,0.687,28.33977875,1,4.813,1.5,,,,,,28.33977875,0,2.768313633,,,,,,,,,,,,,0,80,80,116,1,0.50406901,1,,,,,,,,,,,,,,,,,,,,,,,,,,,,,,,,,,,,,,,,,,,,,,,,,,,,,,,,,,,,,,,,,,,,,,,,,,,,,,,,
,,5da7c6ecd11d560015a3d1da,2022-09-08_13h05.12.580,CGTgamblingSpanTasks,2022.2.1,Win32,72.04610951,,,,,,,,3.142,,,,,,,,,,,,,,2,n,0.858,0,1,4.142,1,,,,,,22.72923833,0,0.067170781,,,,,,,,,,,,,0,81,81,86,1,0.907226703,0,,,,,,,,,,,,,,,,,,,,,,,,,,,,,,,,,,,,,,,,,,,,,,,,,,,,,,,,,,,,,,,,,,,,,,,,,,,,,,,,
,,5da7c6ecd11d560015a3d1da,2022-09-08_13h05.12.580,CGTgamblingSpanTasks,2022.2.1,Win32,72.04610951,,,,,,,,3.471,,,,,,,,,,,,,,1,v,0.529,21.2188881,1,4.971,1.5,,,,,,21.2188881,0,2.067660742,,,,,,,,,,,,,0,82,82,107,1,0.50470775,1,,,,,,,,,,,,,,,,,,,,,,,,,,,,,,,,,,,,,,,,,,,,,,,,,,,,,,,,,,,,,,,,,,,,,,,,,,,,,,,,
,,5da7c6ecd11d560015a3d1da,2022-09-08_13h05.12.580,CGTgamblingSpanTasks,2022.2.1,Win32,72.04610951,,,,,,,,3.289,,,,,,,,,,,,,,2,n,0.711,22.87092517,1,4.289,1,,,,,,22.87092517,0,0.059276504,,,,,,,,,,,,,0,83,83,27,1,0.911114935,0,,,,,,,,,,,,,,,,,,,,,,,,,,,,,,,,,,,,,,,,,,,,,,,,,,,,,,,,,,,,,,,,,,,,,,,,,,,,,,,,
,,5da7c6ecd11d560015a3d1da,2022-09-08_13h05.12.580,CGTgamblingSpanTasks,2022.2.1,Win32,72.04610951,,,,,,,,3.095,,,,,,,,,,,,,,2,n,0.905,17.23907308,1,4.095,1,,,,,,17.23907308,0,2.055848574,,,,,,,,,,,,,0,84,84,66,1,0.450504458,1,,,,,,,,,,,,,,,,,,,,,,,,,,,,,,,,,,,,,,,,,,,,,,,,,,,,,,,,,,,,,,,,,,,,,,,,,,,,,,,,
,,5da7c6ecd11d560015a3d1da,2022-09-08_13h05.12.580,CGTgamblingSpanTasks,2022.2.1,Win32,72.04610951,,,,,,,,2.923,,,,,,,,,,,,,,2,v,1.077,1.002188111,0,3.923,1,,,,,,9.012590634,0,1.002188111,,,,,,,,,,,,,0,85,85,12,1,0.46958041,1,,,,,,,,,,,,,,,,,,,,,,,,,,,,,,,,,,,,,,,,,,,,,,,,,,,,,,,,,,,,,,,,,,,,,,,,,,,,,,,,
,,5da7c6ecd11d560015a3d1da,2022-09-08_13h05.12.580,CGTgamblingSpanTasks,2022.2.1,Win32,72.04610951,,,,,,,,3.283,,,,,,,,,,,,,,1,n,0.717,1.932334278,0,4.783,1.5,,,,,,18.51345298,0,1.932334278,,,,,,,,,,,,,0,86,86,31,1,0.48658696,1,,,,,,,,,,,,,,,,,,,,,,,,,,,,,,,,,,,,,,,,,,,,,,,,,,,,,,,,,,,,,,,,,,,,,,,,,,,,,,,,
,,5da7c6ecd11d560015a3d1da,2022-09-08_13h05.12.580,CGTgamblingSpanTasks,2022.2.1,Win32,72.04610951,,,,,,,,3.116,,,,,,,,,,,,,,2,n,0.884,15.43649625,1,4.616,1.5,,,,,,15.43649625,0,1.65459324,,,,,,,,,,,,,0,87,87,33,1,0.479480163,1,,,,,,,,,,,,,,,,,,,,,,,,,,,,,,,,,,,,,,,,,,,,,,,,,,,,,,,,,,,,,,,,,,,,,,,,,,,,,,,,
,,5da7c6ecd11d560015a3d1da,2022-09-08_13h05.12.580,CGTgamblingSpanTasks,2022.2.1,Win32,72.04610951,,,,,,,,3.397,,,,,,,,,,,,,,1,v,0.603,24.35708027,1,4.397,1,,,,,,24.35708027,0,2.738695417,,,,,,,,,,,,,0,88,88,114,1,0.466573634,1,,,,,,,,,,,,,,,,,,,,,,,,,,,,,,,,,,,,,,,,,,,,,,,,,,,,,,,,,,,,,,,,,,,,,,,,,,,,,,,,
,,5da7c6ecd11d560015a3d1da,2022-09-08_13h05.12.580,CGTgamblingSpanTasks,2022.2.1,Win32,72.04610951,,,,,,,,3.084,,,,,,,,,,,,,,1,n,0.916,6.833409611,0,4.584,1.5,,,,,,6.325091157,0,6.833409611,,,,,,,,,,,,,0,89,89,58,1,0.027113638,0,,,,,,,,,,,,,,,,,,,,,,,,,,,,,,,,,,,,,,,,,,,,,,,,,,,,,,,,,,,,,,,,,,,,,,,,,,,,,,,,
,,5da7c6ecd11d560015a3d1da,2022-09-08_13h05.12.580,CGTgamblingSpanTasks,2022.2.1,Win32,72.04610951,,,,,,,,3.299,,,,,,,,,,,,,,2,n,0.701,17.85020524,1,4.299,1,,,,,,17.85020524,0,2.058701084,,,,,,,,,,,,,0,90,90,25,1,0.459662216,1,,,,,,,,,,,,,,,,,,,,,,,,,,,,,,,,,,,,,,,,,,,,,,,,,,,,,,,,,,,,,,,,,,,,,,,,,,,,,,,,
,,5da7c6ecd11d560015a3d1da,2022-09-08_13h05.12.580,CGTgamblingSpanTasks,2022.2.1,Win32,72.04610951,,,,,,,,3.071,,,,,,,,,,,,,,1,v,0.929,0,1,4.571,1.5,,,,,,25.21882231,0,0.085746782,,,,,,,,,,,,,0,91,91,64,1,0.90272076,0,,,,,,,,,,,,,,,,,,,,,,,,,,,,,,,,,,,,,,,,,,,,,,,,,,,,,,,,,,,,,,,,,,,,,,,,,,,,,,,,
,,5da7c6ecd11d560015a3d1da,2022-09-08_13h05.12.580,CGTgamblingSpanTasks,2022.2.1,Win32,72.04610951,,,,,,,,3.069,,,,,,,,,,,,,,2,n,0.931,19.58698544,1,4.569,1.5,,,,,,19.58698544,0,9.936178001,,,,,,,,,,,,,0,92,92,77,1,0.098812204,0,,,,,,,,,,,,,,,,,,,,,,,,,,,,,,,,,,,,,,,,,,,,,,,,,,,,,,,,,,,,,,,,,,,,,,,,,,,,,,,,
,,5da7c6ecd11d560015a3d1da,2022-09-08_13h05.12.580,CGTgamblingSpanTasks,2022.2.1,Win32,72.04610951,,,,,,,,3.095,,,,,,,,,,,,,,2,v,0.905,8.830252162,0,4.095,1,,,,,,15.73000491,0,8.830252162,,,,,,,,,,,,,0,93,93,95,1,0.084193143,0,,,,,,,,,,,,,,,,,,,,,,,,,,,,,,,,,,,,,,,,,,,,,,,,,,,,,,,,,,,,,,,,,,,,,,,,,,,,,,,,
,,5da7c6ecd11d560015a3d1da,2022-09-08_13h05.12.580,CGTgamblingSpanTasks,2022.2.1,Win32,72.04610951,,,,,,,,3.153,,,,,,,,,,,,,,1,n,0.847,1.843597162,0,4.153,1,,,,,,19.68065872,0,1.843597162,,,,,,,,,,,,,0,94,94,80,1,0.514941058,1,,,,,,,,,,,,,,,,,,,,,,,,,,,,,,,,,,,,,,,,,,,,,,,,,,,,,,,,,,,,,,,,,,,,,,,,,,,,,,,,
,,5da7c6ecd11d560015a3d1da,2022-09-08_13h05.12.580,CGTgamblingSpanTasks,2022.2.1,Win32,72.04610951,,,,,,,,2.916,,,,,,,,,,,,,,2,v,1.084,3.247012935,0,3.916,1,,,,,,29.30724159,0,3.247012935,,,,,,,,,,,,,0,95,95,71,1,0.470571125,1,,,,,,,,,,,,,,,,,,,,,,,,,,,,,,,,,,,,,,,,,,,,,,,,,,,,,,,,,,,,,,,,,,,,,,,,,,,,,,,,
,,5da7c6ecd11d560015a3d1da,2022-09-08_13h05.12.580,CGTgamblingSpanTasks,2022.2.1,Win32,72.04610951,,,,,,,,3.042,,,,,,,,,,,,,,2,n,0.958,2.042350179,1,4.042,1,,,,,,2.042350179,0,7.646213173,,,,,,,,,,,,,0,96,96,53,1,0.009522273,0,,,,,,,,,,,,,,,,,,,,,,,,,,,,,,,,,,,,,,,,,,,,,,,,,,,,,,,,,,,,,,,,,,,,,,,,,,,,,,,,
,,5da7c6ecd11d560015a3d1da,2022-09-08_13h05.12.580,CGTgamblingSpanTasks,2022.2.1,Win32,72.04610951,,,,,,,,2.861,,,,,,,,,,,,,,2,v,1.139,0.05384276,0,4.361,1.5,,,,,,28.18900855,0,0.05384276,,,,,,,,,,,,,0,97,97,55,1,0.919081308,0,,,,,,,,,,,,,,,,,,,,,,,,,,,,,,,,,,,,,,,,,,,,,,,,,,,,,,,,,,,,,,,,,,,,,,,,,,,,,,,,
,,5da7c6ecd11d560015a3d1da,2022-09-08_13h05.12.580,CGTgamblingSpanTasks,2022.2.1,Win32,72.04610951,,,,,,,,3.328,,,,,,,,,,,,,,2,n,0.672,0,1,4.328,1,,,,,,21.48443242,0,2.229247341,,,,,,,,,,,,,0,98,98,63,1,0.488155912,1,,,,,,,,,,,,,,,,,,,,,,,,,,,,,,,,,,,,,,,,,,,,,,,,,,,,,,,,,,,,,,,,,,,,,,,,,,,,,,,,
,,5da7c6ecd11d560015a3d1da,2022-09-08_13h05.12.580,CGTgamblingSpanTasks,2022.2.1,Win32,72.04610951,,,,,,,,3.394,,,,,,,,,,,,,,2,v,0.606,8.653432553,0,4.394,1,,,,,,15.13999312,0,8.653432553,,,,,,,,,,,,,0,99,99,54,1,0.081767484,0,,,,,,,,,,,,,,,,,,,,,,,,,,,,,,,,,,,,,,,,,,,,,,,,,,,,,,,,,,,,,,,,,,,,,,,,,,,,,,,,
,,5da7c6ecd11d560015a3d1da,2022-09-08_13h05.12.580,CGTgamblingSpanTasks,2022.2.1,Win32,72.04610951,,,,,,,,3.021,,,,,,,,,,,,,,1,v,0.979,13.84410806,1,4.021,1,,,,,,13.84410806,0,1.535873964,,,,,,,,,,,,,0,100,100,88,1,0.470209002,1,,,,,,,,,,,,,,,,,,,,,,,,,,,,,,,,,,,,,,,,,,,,,,,,,,,,,,,,,,,,,,,,,,,,,,,,,,,,,,,,
,,5da7c6ecd11d560015a3d1da,2022-09-08_13h05.12.580,CGTgamblingSpanTasks,2022.2.1,Win32,72.04610951,,,,,,,,3.362,,,,,,,,,,,,,,2,n,0.638,0,1,4.862,1.5,,,,,,28.14876717,0,3.117906378,,,,,,,,,,,,,0,101,101,76,1,0.470636736,1,,,,,,,,,,,,,,,,,,,,,,,,,,,,,,,,,,,,,,,,,,,,,,,,,,,,,,,,,,,,,,,,,,,,,,,,,,,,,,,,
,,5da7c6ecd11d560015a3d1da,2022-09-08_13h05.12.580,CGTgamblingSpanTasks,2022.2.1,Win32,72.04610951,,,,,,,,3.375,,,,,,,,,,,,,,1,v,0.625,0,1,4.875,1.5,,,,,,18.16238569,0,1.540604093,,,,,,,,,,,,,0,102,102,34,1,0.540092491,1,,,,,,,,,,,,,,,,,,,,,,,,,,,,,,,,,,,,,,,,,,,,,,,,,,,,,,,,,,,,,,,,,,,,,,,,,,,,,,,,
,,5da7c6ecd11d560015a3d1da,2022-09-08_13h05.12.580,CGTgamblingSpanTasks,2022.2.1,Win32,72.04610951,,,,,,,,3.278,,,,,,,,,,,,,,2,v,0.722,2.387726776,0,4.778,1.5,,,,,,23.0613391,0,2.387726776,,,,,,,,,,,,,0,103,103,69,1,0.488727763,1,,,,,,,,,,,,,,,,,,,,,,,,,,,,,,,,,,,,,,,,,,,,,,,,,,,,,,,,,,,,,,,,,,,,,,,,,,,,,,,,
,,5da7c6ecd11d560015a3d1da,2022-09-08_13h05.12.580,CGTgamblingSpanTasks,2022.2.1,Win32,72.04610951,,,,,,,,3.248,,,,,,,,,,,,,,2,n,0.752,0,1,4.248,1,,,,,,27.77179191,0,0.074524436,,,,,,,,,,,,,0,104,104,99,1,0.910114387,0,,,,,,,,,,,,,,,,,,,,,,,,,,,,,,,,,,,,,,,,,,,,,,,,,,,,,,,,,,,,,,,,,,,,,,,,,,,,,,,,
,,5da7c6ecd11d560015a3d1da,2022-09-08_13h05.12.580,CGTgamblingSpanTasks,2022.2.1,Win32,72.04610951,,,,,,,,3.346,,,,,,,,,,,,,,1,v,0.654,27.88092897,1,4.846,1.5,,,,,,27.88092897,0,2.771762788,,,,,,,,,,,,,0,105,105,117,1,0.499466648,1,,,,,,,,,,,,,,,,,,,,,,,,,,,,,,,,,,,,,,,,,,,,,,,,,,,,,,,,,,,,,,,,,,,,,,,,,,,,,,,,
,,5da7c6ecd11d560015a3d1da,2022-09-08_13h05.12.580,CGTgamblingSpanTasks,2022.2.1,Win32,72.04610951,,,,,,,,1.824,,,,,,,,,,,,,,1,v,2.176,13.96521039,1,2.824,1,,,,,,13.96521039,0,1.591282699,,,,,,,,,,,,,0,106,106,49,1,0.462956344,1,,,,,,,,,,,,,,,,,,,,,,,,,,,,,,,,,,,,,,,,,,,,,,,,,,,,,,,,,,,,,,,,,,,,,,,,,,,,,,,,
,,5da7c6ecd11d560015a3d1da,2022-09-08_13h05.12.580,CGTgamblingSpanTasks,2022.2.1,Win32,72.04610951,,,,,,,,3.343,,,,,,,,,,,,,,1,v,0.657,0,1,4.343,1,,,,,,17.30137174,0,1.716380842,,,,,,,,,,,,,0,107,107,20,1,0.500020285,1,,,,,,,,,,,,,,,,,,,,,,,,,,,,,,,,,,,,,,,,,,,,,,,,,,,,,,,,,,,,,,,,,,,,,,,,,,,,,,,,
,,5da7c6ecd11d560015a3d1da,2022-09-08_13h05.12.580,CGTgamblingSpanTasks,2022.2.1,Win32,72.04610951,,,,,,,,0.66,,,,,,,,,,,,,,1,v,3.34,0,1,1.66,1,,,,,,24.66627941,0,2.765426402,,,,,,,,,,,,,0,108,108,24,1,0.467360588,1,,,,,,,,,,,,,,,,,,,,,,,,,,,,,,,,,,,,,,,,,,,,,,,,,,,,,,,,,,,,,,,,,,,,,,,,,,,,,,,,
,,5da7c6ecd11d560015a3d1da,2022-09-08_13h05.12.580,CGTgamblingSpanTasks,2022.2.1,Win32,72.04610951,,,,,,,,2.619,,,,,,,,,,,,,,1,n,1.381,6.091504705,0,3.619,1,,,,,,6.662965216,0,6.091504705,,,,,,,,,,,,,0,109,109,102,1,0.035087099,0,,,,,,,,,,,,,,,,,,,,,,,,,,,,,,,,,,,,,,,,,,,,,,,,,,,,,,,,,,,,,,,,,,,,,,,,,,,,,,,,
,,5da7c6ecd11d560015a3d1da,2022-09-08_13h05.12.580,CGTgamblingSpanTasks,2022.2.1,Win32,72.04610951,,,,,,,,3.292,,,,,,,,,,,,,,2,n,0.708,0,1,4.792,1.5,,,,,,25.65316415,0,0.079652925,,,,,,,,,,,,,0,110,110,109,1,0.90568168,0,,,,,,,,,,,,,,,,,,,,,,,,,,,,,,,,,,,,,,,,,,,,,,,,,,,,,,,,,,,,,,,,,,,,,,,,,,,,,,,,
,,5da7c6ecd11d560015a3d1da,2022-09-08_13h05.12.580,CGTgamblingSpanTasks,2022.2.1,Win32,72.04610951,,,,,,,,3.201,,,,,,,,,,,,,,2,v,0.799,8.512335864,0,4.701,1.5,,,,,,10.05300841,0,8.512335864,,,,,,,,,,,,,0,111,111,74,1,0.040729225,0,,,,,,,,,,,,,,,,,,,,,,,,,,,,,,,,,,,,,,,,,,,,,,,,,,,,,,,,,,,,,,,,,,,,,,,,,,,,,,,,
,,5da7c6ecd11d560015a3d1da,2022-09-08_13h05.12.580,CGTgamblingSpanTasks,2022.2.1,Win32,72.04610951,,,,,,,,3.158,,,,,,,,,,,,,,2,n,0.842,23.24777057,1,4.658,1.5,,,,,,23.24777057,0,2.003482335,,,,,,,,,,,,,0,112,112,59,1,0.536135174,1,,,,,,,,,,,,,,,,,,,,,,,,,,,,,,,,,,,,,,,,,,,,,,,,,,,,,,,,,,,,,,,,,,,,,,,,,,,,,,,,
,,5da7c6ecd11d560015a3d1da,2022-09-08_13h05.12.580,CGTgamblingSpanTasks,2022.2.1,Win32,72.04610951,,,,,,,,3.015,,,,,,,,,,,,,,2,n,0.985,4.941039335,1,4.515,1.5,,,,,,4.941039335,0,5.683635938,,,,,,,,,,,,,0,113,113,9,1,0.025481984,0,,,,,,,,,,,,,,,,,,,,,,,,,,,,,,,,,,,,,,,,,,,,,,,,,,,,,,,,,,,,,,,,,,,,,,,,,,,,,,,,
,,5da7c6ecd11d560015a3d1da,2022-09-08_13h05.12.580,CGTgamblingSpanTasks,2022.2.1,Win32,72.04610951,,,,,,,,3.219,,,,,,,,,,,,,,2,n,0.781,21.00799273,1,4.719,1.5,,,,,,21.00799273,0,0.067969053,,,,,,,,,,,,,0,114,114,92,1,0.904360262,0,,,,,,,,,,,,,,,,,,,,,,,,,,,,,,,,,,,,,,,,,,,,,,,,,,,,,,,,,,,,,,,,,,,,,,,,,,,,,,,,
,,5da7c6ecd11d560015a3d1da,2022-09-08_13h05.12.580,CGTgamblingSpanTasks,2022.2.1,Win32,72.04610951,,,,,,,,3.225,,,,,,,,,,,,,,2,n,0.775,0,1,4.725,1.5,,,,,,24.57684014,0,0.061756244,,,,,,,,,,,,,0,115,115,68,1,0.911988903,0,,,,,,,,,,,,,,,,,,,,,,,,,,,,,,,,,,,,,,,,,,,,,,,,,,,,,,,,,,,,,,,,,,,,,,,,,,,,,,,,
,,5da7c6ecd11d560015a3d1da,2022-09-08_13h05.12.580,CGTgamblingSpanTasks,2022.2.1,Win32,72.04610951,,,,,,,,3.16,,,,,,,,,,,,,,2,n,0.84,25.76582409,1,4.66,1.5,,,,,,25.76582409,0,2.393193076,,,,,,,,,,,,,0,116,116,46,1,0.517129855,1,,,,,,,,,,,,,,,,,,,,,,,,,,,,,,,,,,,,,,,,,,,,,,,,,,,,,,,,,,,,,,,,,,,,,,,,,,,,,,,,
,,5da7c6ecd11d560015a3d1da,2022-09-08_13h05.12.580,CGTgamblingSpanTasks,2022.2.1,Win32,72.04610951,,,,,,,,3.28,,,,,,,,,,,,,,2,n,0.72,0,1,4.78,1.5,,,,,,21.17800335,0,0.059830985,,,,,,,,,,,,,0,117,117,67,1,0.908594974,0,,,,,,,,,,,,,,,,,,,,,,,,,,,,,,,,,,,,,,,,,,,,,,,,,,,,,,,,,,,,,,,,,,,,,,,,,,,,,,,,
,,5da7c6ecd11d560015a3d1da,2022-09-08_13h05.12.580,CGTgamblingSpanTasks,2022.2.1,Win32,72.04610951,,,,,,,,3.334,,,,,,,,,,,,,,2,v,0.666,10.31611309,0,4.334,1,,,,,,19.30622782,0,10.31611309,,,,,,,,,,,,,0,118,118,1,1,0.091105656,0,,,,,,,,,,,,,,,,,,,,,,,,,,,,,,,,,,,,,,,,,,,,,,,,,,,,,,,,,,,,,,,,,,,,,,,,,,,,,,,,
,,5da7c6ecd11d560015a3d1da,2022-09-08_13h05.12.580,CGTgamblingSpanTasks,2022.2.1,Win32,72.04610951,,,,,,,,3.313,,,,,,,,,,,,,,1,v,0.687,0,1,4.813,1.5,,,,,,17.92584289,0,1.878232496,,,,,,,,,,,,,0,119,119,5,1,0.485559263,1,,,,,,,,,,,,,,,,,,,,,,,,,,,,,,,,,,,,,,,,,,,,,,,,,,,,,,,,,,,,,,,,,,,,,,,,,,,,,,,,
,,5da7c6ecd11d560015a3d1da,2022-09-08_13h05.12.580,CGTgamblingSpanTasks,2022.2.1,Win32,72.04610951,,,,,,,,,,,,,,,,,,,,,,,,,,,,,,,,,,,,,,,,,,,,,,,,,,,,,,,,return,33.629,,,,,,,,,,,,,,,,,,,,,,,,,,,,,,,,,,,,,,,,,,,,,,,,,,,,,,,,,,,,,,,,,,,,,,,,,,,,,,
,,5da7c6ecd11d560015a3d1da,2022-09-08_13h05.12.580,CGTgamblingSpanTasks,2022.2.1,Win32,72.04610951,,,,,,,,,,,,,,,,,,,,,,,,,,,,,,,,,,,,,,,,,,,,,,,,,,,,,,,,,,return,53.876,,,,,,,,,,,,,,,,,,,,,,,,,,,,,,,,,,,,,,,,,,,,,,,,,,,,,,,,,,,,,,,,,,,,,,,,,,,,
,,5da7c6ecd11d560015a3d1da,2022-09-08_13h05.12.580,CGTgamblingSpanTasks,2022.2.1,Win32,72.04610951,,,,,,,,,,,,,,,,,,,,,,,,,,,,,,,,,,,,,,,,,,,,,,,,,,,,,,,,,,,,return,16.341,,,,,,,,,,,,,,,,,,,,,,,,,,,,,,,,,,,,,,,,,,,,,,,,,,,,,,,,,,,,,,,,,,,,,,,,,,
,,5da7c6ecd11d560015a3d1da,2022-09-08_13h05.12.580,CGTgamblingSpanTasks,2022.2.1,Win32,72.04610951,,,,,,,,,,,,,,,,,,,,,,,,,,,,,,,,,,,,,,,,,,,,,,,,,,,,,,,,,,,,,,342,1,-0.009259259,-0.37037037,1,0,0,cont_buttonPractice,0,0,0,0,1,3,342,24,2,42,,,,,,,,,,,,,,,,,,,,,,,,,,,,,,,,,,,,,,,,,,,,,,,,,,,,,,,,
,,5da7c6ecd11d560015a3d1da,2022-09-08_13h05.12.580,CGTgamblingSpanTasks,2022.2.1,Win32,72.04610951,,,,,,,,,,,,,,,,,,,,,,,,,,,,,,,,,,,,,,,,,,,,,,,,,,,,,,,,,,,,,,937,1,0.012962963,-0.385185185,1,0,0,cont_buttonPractice,0,1,1,1,1,3,937,73,2,37,,,,,,,,,,,,,,,,,,,,,,,,,,,,,,,,,,,,,,,,,,,,,,,,,,,,,,,,
,,5da7c6ecd11d560015a3d1da,2022-09-08_13h05.12.580,CGTgamblingSpanTasks,2022.2.1,Win32,72.04610951,,,,,,,,,,,,,,,,,,,,,,,,,,,,,,,,,,,,,,,,,,,,,,,,,,,,,,,,,,,,,,,,,,,,,,,,,,,,,,,,return,16.546,,,,,,,,,,,,,,,,,,,,,,,,,,,,,,,,,,,,,,,,,,,,,,,,,,,,,,
,,5da7c6ecd11d560015a3d1da,2022-09-08_13h05.12.580,CGTgamblingSpanTasks,2022.2.1,Win32,72.04610951,,,,,,,,,,,,,,,,,,,,,,,,,,,,,,,,,,,,,,,,,,,,,,,,,,,,,,,,,,,,,,,,,,,,,,,,,,,,,,,,,,"[5,6,4]",0,0,0,0,1,,,,,,,,,,,,,,,,,,,,,,,,,,,,,,,,,,,,,,,,,,,,,,,,
,,5da7c6ecd11d560015a3d1da,2022-09-08_13h05.12.580,CGTgamblingSpanTasks,2022.2.1,Win32,72.04610951,,,,,,,,,,,,,,,,,,,,,,,,,,,,,,,,,,,,,,,,,,,,,,,,,,,,,,,,,,,,,,,,,,,,,,,,,,,,,,,,,,"[5,6,4]",1,0,1,0,1,,,,,,,,,,,,,,,,,,,,,,,,,,,,,,,,,,,,,,,,,,,,,,,,
,,5da7c6ecd11d560015a3d1da,2022-09-08_13h05.12.580,CGTgamblingSpanTasks,2022.2.1,Win32,72.04610951,,,,,,,,,,,,,,,,,,,,,,,,,,,,,,,,,,,,,,,,,,,,,,,,,,,,,,,,,,,,,,,,,,,,,,,,,,,,,,,,,,"[5,6,4]",2,0,2,0,1,,,,,,,,,,,,,,,,,,,,,,,,,,,,,,,,,,,,,,,,,,,,,,,,
,,5da7c6ecd11d560015a3d1da,2022-09-08_13h05.12.580,CGTgamblingSpanTasks,2022.2.1,Win32,72.04610951,,,,,,,,,,,,,,,,,,,,,,,,,,,,,,,,,,,,,,,,,,,,,,,,,,,,,,,,,,,,,,,1,,,,,,,,,,,,,,,,,,,,,,,,,564,0.000925926,-0.411111111,1,0,0,cont_button,0,0,0,0,1,1,,,,,,,,,,,,,,,,,,,,,,,,,,,,,,,,,,,
,,5da7c6ecd11d560015a3d1da,2022-09-08_13h05.12.580,CGTgamblingSpanTasks,2022.2.1,Win32,72.04610951,,,,,,,,,,,,,,,,,,,,,,,,,,,,,,,,,,,,,,,,,,,,,,,,,,,,,,,,,,,,,,,,,,,,,,,,,,,,,,,,,,"[2,8,7,9]",0,0,0,0,1,,,,,,,,,,,,,,,,,,,,,,,,,,,,,,,,,,,,,,,,,,,,,,,,
,,5da7c6ecd11d560015a3d1da,2022-09-08_13h05.12.580,CGTgamblingSpanTasks,2022.2.1,Win32,72.04610951,,,,,,,,,,,,,,,,,,,,,,,,,,,,,,,,,,,,,,,,,,,,,,,,,,,,,,,,,,,,,,,,,,,,,,,,,,,,,,,,,,"[2,8,7,9]",1,0,1,0,1,,,,,,,,,,,,,,,,,,,,,,,,,,,,,,,,,,,,,,,,,,,,,,,,
,,5da7c6ecd11d560015a3d1da,2022-09-08_13h05.12.580,CGTgamblingSpanTasks,2022.2.1,Win32,72.04610951,,,,,,,,,,,,,,,,,,,,,,,,,,,,,,,,,,,,,,,,,,,,,,,,,,,,,,,,,,,,,,,,,,,,,,,,,,,,,,,,,,"[2,8,7,9]",2,0,2,0,1,,,,,,,,,,,,,,,,,,,,,,,,,,,,,,,,,,,,,,,,,,,,,,,,
,,5da7c6ecd11d560015a3d1da,2022-09-08_13h05.12.580,CGTgamblingSpanTasks,2022.2.1,Win32,72.04610951,,,,,,,,,,,,,,,,,,,,,,,,,,,,,,,,,,,,,,,,,,,,,,,,,,,,,,,,,,,,,,,,,,,,,,,,,,,,,,,,,,"[2,8,7,9]",3,0,3,0,1,,,,,,,,,,,,,,,,,,,,,,,,,,,,,,,,,,,,,,,,,,,,,,,,
,,5da7c6ecd11d560015a3d1da,2022-09-08_13h05.12.580,CGTgamblingSpanTasks,2022.2.1,Win32,72.04610951,,,,,,,,,,,,,,,,,,,,,,,,,,,,,,,,,,,,,,,,,,,,,,,,,,,,,,,,,,,,,,,1,,,,,,,,,,,,,,,,,,,,,,,,,2879,-0.013888889,-0.399074074,1,0,0,cont_button,0,1,1,1,1,2,,,,,,,,,,,,,,,,,,,,,,,,,,,,,,,,,,,
,,5da7c6ecd11d560015a3d1da,2022-09-08_13h05.12.580,CGTgamblingSpanTasks,2022.2.1,Win32,72.04610951,,,,,,,,,,,,,,,,,,,,,,,,,,,,,,,,,,,,,,,,,,,,,,,,,,,,,,,,,,,,,,,,,,,,,,,,,,,,,,,,,,"[2,7,9,1,3]",0,0,0,0,1,,,,,,,,,,,,,,,,,,,,,,,,,,,,,,,,,,,,,,,,,,,,,,,,
,,5da7c6ecd11d560015a3d1da,2022-09-08_13h05.12.580,CGTgamblingSpanTasks,2022.2.1,Win32,72.04610951,,,,,,,,,,,,,,,,,,,,,,,,,,,,,,,,,,,,,,,,,,,,,,,,,,,,,,,,,,,,,,,,,,,,,,,,,,,,,,,,,,"[2,7,9,1,3]",1,0,1,0,1,,,,,,,,,,,,,,,,,,,,,,,,,,,,,,,,,,,,,,,,,,,,,,,,
,,5da7c6ecd11d560015a3d1da,2022-09-08_13h05.12.580,CGTgamblingSpanTasks,2022.2.1,Win32,72.04610951,,,,,,,,,,,,,,,,,,,,,,,,,,,,,,,,,,,,,,,,,,,,,,,,,,,,,,,,,,,,,,,,,,,,,,,,,,,,,,,,,,"[2,7,9,1,3]",2,0,2,0,1,,,,,,,,,,,,,,,,,,,,,,,,,,,,,,,,,,,,,,,,,,,,,,,,
,,5da7c6ecd11d560015a3d1da,2022-09-08_13h05.12.580,CGTgamblingSpanTasks,2022.2.1,Win32,72.04610951,,,,,,,,,,,,,,,,,,,,,,,,,,,,,,,,,,,,,,,,,,,,,,,,,,,,,,,,,,,,,,,,,,,,,,,,,,,,,,,,,,"[2,7,9,1,3]",3,0,3,0,1,,,,,,,,,,,,,,,,,,,,,,,,,,,,,,,,,,,,,,,,,,,,,,,,
,,5da7c6ecd11d560015a3d1da,2022-09-08_13h05.12.580,CGTgamblingSpanTasks,2022.2.1,Win32,72.04610951,,,,,,,,,,,,,,,,,,,,,,,,,,,,,,,,,,,,,,,,,,,,,,,,,,,,,,,,,,,,,,,,,,,,,,,,,,,,,,,,,,"[2,7,9,1,3]",4,0,4,0,1,,,,,,,,,,,,,,,,,,,,,,,,,,,,,,,,,,,,,,,,,,,,,,,,
,,5da7c6ecd11d560015a3d1da,2022-09-08_13h05.12.580,CGTgamblingSpanTasks,2022.2.1,Win32,72.04610951,,,,,,,,,,,,,,,,,,,,,,,,,,,,,,,,,,,,,,,,,,,,,,,,,,,,,,,,,,,,,,,1,,,,,,,,,,,,,,,,,,,,,,,,,27913,0.025925926,-0.410185185,1,0,0,cont_button,0,2,2,2,1,3,,,,,,,,,,,,,,,,,,,,,,,,,,,,,,,,,,,
,,5da7c6ecd11d560015a3d1da,2022-09-08_13h05.12.580,CGTgamblingSpanTasks,2022.2.1,Win32,72.04610951,,,,,,,,,,,,,,,,,,,,,,,,,,,,,,,,,,,,,,,,,,,,,,,,,,,,,,,,,,,,,,,,,,,,,,,,,,,,,,,,,,"[2,5,7,8,6,4]",0,0,0,0,1,,,,,,,,,,,,,,,,,,,,,,,,,,,,,,,,,,,,,,,,,,,,,,,,
,,5da7c6ecd11d560015a3d1da,2022-09-08_13h05.12.580,CGTgamblingSpanTasks,2022.2.1,Win32,72.04610951,,,,,,,,,,,,,,,,,,,,,,,,,,,,,,,,,,,,,,,,,,,,,,,,,,,,,,,,,,,,,,,,,,,,,,,,,,,,,,,,,,"[2,5,7,8,6,4]",1,0,1,0,1,,,,,,,,,,,,,,,,,,,,,,,,,,,,,,,,,,,,,,,,,,,,,,,,
,,5da7c6ecd11d560015a3d1da,2022-09-08_13h05.12.580,CGTgamblingSpanTasks,2022.2.1,Win32,72.04610951,,,,,,,,,,,,,,,,,,,,,,,,,,,,,,,,,,,,,,,,,,,,,,,,,,,,,,,,,,,,,,,,,,,,,,,,,,,,,,,,,,"[2,5,7,8,6,4]",2,0,2,0,1,,,,,,,,,,,,,,,,,,,,,,,,,,,,,,,,,,,,,,,,,,,,,,,,
,,5da7c6ecd11d560015a3d1da,2022-09-08_13h05.12.580,CGTgamblingSpanTasks,2022.2.1,Win32,72.04610951,,,,,,,,,,,,,,,,,,,,,,,,,,,,,,,,,,,,,,,,,,,,,,,,,,,,,,,,,,,,,,,,,,,,,,,,,,,,,,,,,,"[2,5,7,8,6,4]",3,0,3,0,1,,,,,,,,,,,,,,,,,,,,,,,,,,,,,,,,,,,,,,,,,,,,,,,,
,,5da7c6ecd11d560015a3d1da,2022-09-08_13h05.12.580,CGTgamblingSpanTasks,2022.2.1,Win32,72.04610951,,,,,,,,,,,,,,,,,,,,,,,,,,,,,,,,,,,,,,,,,,,,,,,,,,,,,,,,,,,,,,,,,,,,,,,,,,,,,,,,,,"[2,5,7,8,6,4]",4,0,4,0,1,,,,,,,,,,,,,,,,,,,,,,,,,,,,,,,,,,,,,,,,,,,,,,,,
,,5da7c6ecd11d560015a3d1da,2022-09-08_13h05.12.580,CGTgamblingSpanTasks,2022.2.1,Win32,72.04610951,,,,,,,,,,,,,,,,,,,,,,,,,,,,,,,,,,,,,,,,,,,,,,,,,,,,,,,,,,,,,,,,,,,,,,,,,,,,,,,,,,"[2,5,7,8,6,4]",5,0,5,0,1,,,,,,,,,,,,,,,,,,,,,,,,,,,,,,,,,,,,,,,,,,,,,,,,
,,5da7c6ecd11d560015a3d1da,2022-09-08_13h05.12.580,CGTgamblingSpanTasks,2022.2.1,Win32,72.04610951,,,,,,,,,,,,,,,,,,,,,,,,,,,,,,,,,,,,,,,,,,,,,,,,,,,,,,,,,,,,,,,1,,,,,,,,,,,,,,,,,,,,,,,,,257864,-0.039814815,-0.385185185,1,0,0,cont_button,0,3,3,3,1,4,,,,,,,,,,,,,,,,,,,,,,,,,,,,,,,,,,,
,,5da7c6ecd11d560015a3d1da,2022-09-08_13h05.12.580,CGTgamblingSpanTasks,2022.2.1,Win32,72.04610951,,,,,,,,,,,,,,,,,,,,,,,,,,,,,,,,,,,,,,,,,,,,,,,,,,,,,,,,,,,,,,,,,,,,,,,,,,,,,,,,,,"[5,9,4,2,3,1,7]",0,0,0,0,1,,,,,,,,,,,,,,,,,,,,,,,,,,,,,,,,,,,,,,,,,,,,,,,,
,,5da7c6ecd11d560015a3d1da,2022-09-08_13h05.12.580,CGTgamblingSpanTasks,2022.2.1,Win32,72.04610951,,,,,,,,,,,,,,,,,,,,,,,,,,,,,,,,,,,,,,,,,,,,,,,,,,,,,,,,,,,,,,,,,,,,,,,,,,,,,,,,,,"[5,9,4,2,3,1,7]",1,0,1,0,1,,,,,,,,,,,,,,,,,,,,,,,,,,,,,,,,,,,,,,,,,,,,,,,,
,,5da7c6ecd11d560015a3d1da,2022-09-08_13h05.12.580,CGTgamblingSpanTasks,2022.2.1,Win32,72.04610951,,,,,,,,,,,,,,,,,,,,,,,,,,,,,,,,,,,,,,,,,,,,,,,,,,,,,,,,,,,,,,,,,,,,,,,,,,,,,,,,,,"[5,9,4,2,3,1,7]",2,0,2,0,1,,,,,,,,,,,,,,,,,,,,,,,,,,,,,,,,,,,,,,,,,,,,,,,,
,,5da7c6ecd11d560015a3d1da,2022-09-08_13h05.12.580,CGTgamblingSpanTasks,2022.2.1,Win32,72.04610951,,,,,,,,,,,,,,,,,,,,,,,,,,,,,,,,,,,,,,,,,,,,,,,,,,,,,,,,,,,,,,,,,,,,,,,,,,,,,,,,,,"[5,9,4,2,3,1,7]",3,0,3,0,1,,,,,,,,,,,,,,,,,,,,,,,,,,,,,,,,,,,,,,,,,,,,,,,,
,,5da7c6ecd11d560015a3d1da,2022-09-08_13h05.12.580,CGTgamblingSpanTasks,2022.2.1,Win32,72.04610951,,,,,,,,,,,,,,,,,,,,,,,,,,,,,,,,,,,,,,,,,,,,,,,,,,,,,,,,,,,,,,,,,,,,,,,,,,,,,,,,,,"[5,9,4,2,3,1,7]",4,0,4,0,1,,,,,,,,,,,,,,,,,,,,,,,,,,,,,,,,,,,,,,,,,,,,,,,,
,,5da7c6ecd11d560015a3d1da,2022-09-08_13h05.12.580,CGTgamblingSpanTasks,2022.2.1,Win32,72.04610951,,,,,,,,,,,,,,,,,,,,,,,,,,,,,,,,,,,,,,,,,,,,,,,,,,,,,,,,,,,,,,,,,,,,,,,,,,,,,,,,,,"[5,9,4,2,3,1,7]",5,0,5,0,1,,,,,,,,,,,,,,,,,,,,,,,,,,,,,,,,,,,,,,,,,,,,,,,,
,,5da7c6ecd11d560015a3d1da,2022-09-08_13h05.12.580,CGTgamblingSpanTasks,2022.2.1,Win32,72.04610951,,,,,,,,,,,,,,,,,,,,,,,,,,,,,,,,,,,,,,,,,,,,,,,,,,,,,,,,,,,,,,,,,,,,,,,,,,,,,,,,,,"[5,9,4,2,3,1,7]",6,0,6,0,1,,,,,,,,,,,,,,,,,,,,,,,,,,,,,,,,,,,,,,,,,,,,,,,,
,,5da7c6ecd11d560015a3d1da,2022-09-08_13h05.12.580,CGTgamblingSpanTasks,2022.2.1,Win32,72.04610951,,,,,,,,,,,,,,,,,,,,,,,,,,,,,,,,,,,,,,,,,,,,,,,,,,,,,,,,,,,,,,,1,,,,,,,,,,,,,,,,,,,,,,,,,5942317,-0.043518519,-0.394444444,1,0,0,cont_button,0,4,4,4,1,5,,,,,,,,,,,,,,,,,,,,,,,,,,,,,,,,,,,
,,5da7c6ecd11d560015a3d1da,2022-09-08_13h05.12.580,CGTgamblingSpanTasks,2022.2.1,Win32,72.04610951,,,,,,,,,,,,,,,,,,,,,,,,,,,,,,,,,,,,,,,,,,,,,,,,,,,,,,,,,,,,,,,,,,,,,,,,,,,,,,,,,,"[6,7,5,9,3,4,8,2]",0,0,0,0,1,,,,,,,,,,,,,,,,,,,,,,,,,,,,,,,,,,,,,,,,,,,,,,,,
,,5da7c6ecd11d560015a3d1da,2022-09-08_13h05.12.580,CGTgamblingSpanTasks,2022.2.1,Win32,72.04610951,,,,,,,,,,,,,,,,,,,,,,,,,,,,,,,,,,,,,,,,,,,,,,,,,,,,,,,,,,,,,,,,,,,,,,,,,,,,,,,,,,"[6,7,5,9,3,4,8,2]",1,0,1,0,1,,,,,,,,,,,,,,,,,,,,,,,,,,,,,,,,,,,,,,,,,,,,,,,,
,,5da7c6ecd11d560015a3d1da,2022-09-08_13h05.12.580,CGTgamblingSpanTasks,2022.2.1,Win32,72.04610951,,,,,,,,,,,,,,,,,,,,,,,,,,,,,,,,,,,,,,,,,,,,,,,,,,,,,,,,,,,,,,,,,,,,,,,,,,,,,,,,,,"[6,7,5,9,3,4,8,2]",2,0,2,0,1,,,,,,,,,,,,,,,,,,,,,,,,,,,,,,,,,,,,,,,,,,,,,,,,
,,5da7c6ecd11d560015a3d1da,2022-09-08_13h05.12.580,CGTgamblingSpanTasks,2022.2.1,Win32,72.04610951,,,,,,,,,,,,,,,,,,,,,,,,,,,,,,,,,,,,,,,,,,,,,,,,,,,,,,,,,,,,,,,,,,,,,,,,,,,,,,,,,,"[6,7,5,9,3,4,8,2]",3,0,3,0,1,,,,,,,,,,,,,,,,,,,,,,,,,,,,,,,,,,,,,,,,,,,,,,,,
,,5da7c6ecd11d560015a3d1da,2022-09-08_13h05.12.580,CGTgamblingSpanTasks,2022.2.1,Win32,72.04610951,,,,,,,,,,,,,,,,,,,,,,,,,,,,,,,,,,,,,,,,,,,,,,,,,,,,,,,,,,,,,,,,,,,,,,,,,,,,,,,,,,"[6,7,5,9,3,4,8,2]",4,0,4,0,1,,,,,,,,,,,,,,,,,,,,,,,,,,,,,,,,,,,,,,,,,,,,,,,,
,,5da7c6ecd11d560015a3d1da,2022-09-08_13h05.12.580,CGTgamblingSpanTasks,2022.2.1,Win32,72.04610951,,,,,,,,,,,,,,,,,,,,,,,,,,,,,,,,,,,,,,,,,,,,,,,,,,,,,,,,,,,,,,,,,,,,,,,,,,,,,,,,,,"[6,7,5,9,3,4,8,2]",5,0,5,0,1,,,,,,,,,,,,,,,,,,,,,,,,,,,,,,,,,,,,,,,,,,,,,,,,
,,5da7c6ecd11d560015a3d1da,2022-09-08_13h05.12.580,CGTgamblingSpanTasks,2022.2.1,Win32,72.04610951,,,,,,,,,,,,,,,,,,,,,,,,,,,,,,,,,,,,,,,,,,,,,,,,,,,,,,,,,,,,,,,,,,,,,,,,,,,,,,,,,,"[6,7,5,9,3,4,8,2]",6,0,6,0,1,,,,,,,,,,,,,,,,,,,,,,,,,,,,,,,,,,,,,,,,,,,,,,,,
,,5da7c6ecd11d560015a3d1da,2022-09-08_13h05.12.580,CGTgamblingSpanTasks,2022.2.1,Win32,72.04610951,,,,,,,,,,,,,,,,,,,,,,,,,,,,,,,,,,,,,,,,,,,,,,,,,,,,,,,,,,,,,,,,,,,,,,,,,,,,,,,,,,"[6,7,5,9,3,4,8,2]",7,0,7,0,1,,,,,,,,,,,,,,,,,,,,,,,,,,,,,,,,,,,,,,,,,,,,,,,,
,,5da7c6ecd11d560015a3d1da,2022-09-08_13h05.12.580,CGTgamblingSpanTasks,2022.2.1,Win32,72.04610951,,,,,,,,,,,,,,,,,,,,,,,,,,,,,,,,,,,,,,,,,,,,,,,,,,,,,,,,,,,,,,,1,,,,,,,,,,,,,,,,,,,,,,,,,67593482,-0.015740741,-0.411111111,1,0,0,cont_button,0,5,5,5,1,6,,,,,,,,,,,,,,,,,,,,,,,,,,,,,,,,,,,
,,5da7c6ecd11d560015a3d1da,2022-09-08_13h05.12.580,CGTgamblingSpanTasks,2022.2.1,Win32,72.04610951,,,,,,,,,,,,,,,,,,,,,,,,,,,,,,,,,,,,,,,,,,,,,,,,,,,,,,,,,,,,,,,,,,,,,,,,,,,,,,,,,,"[2,3,7,5,4,6,1,9,8]",0,0,0,0,1,,,,,,,,,,,,,,,,,,,,,,,,,,,,,,,,,,,,,,,,,,,,,,,,
,,5da7c6ecd11d560015a3d1da,2022-09-08_13h05.12.580,CGTgamblingSpanTasks,2022.2.1,Win32,72.04610951,,,,,,,,,,,,,,,,,,,,,,,,,,,,,,,,,,,,,,,,,,,,,,,,,,,,,,,,,,,,,,,,,,,,,,,,,,,,,,,,,,"[2,3,7,5,4,6,1,9,8]",1,0,1,0,1,,,,,,,,,,,,,,,,,,,,,,,,,,,,,,,,,,,,,,,,,,,,,,,,
,,5da7c6ecd11d560015a3d1da,2022-09-08_13h05.12.580,CGTgamblingSpanTasks,2022.2.1,Win32,72.04610951,,,,,,,,,,,,,,,,,,,,,,,,,,,,,,,,,,,,,,,,,,,,,,,,,,,,,,,,,,,,,,,,,,,,,,,,,,,,,,,,,,"[2,3,7,5,4,6,1,9,8]",2,0,2,0,1,,,,,,,,,,,,,,,,,,,,,,,,,,,,,,,,,,,,,,,,,,,,,,,,
,,5da7c6ecd11d560015a3d1da,2022-09-08_13h05.12.580,CGTgamblingSpanTasks,2022.2.1,Win32,72.04610951,,,,,,,,,,,,,,,,,,,,,,,,,,,,,,,,,,,,,,,,,,,,,,,,,,,,,,,,,,,,,,,,,,,,,,,,,,,,,,,,,,"[2,3,7,5,4,6,1,9,8]",3,0,3,0,1,,,,,,,,,,,,,,,,,,,,,,,,,,,,,,,,,,,,,,,,,,,,,,,,
,,5da7c6ecd11d560015a3d1da,2022-09-08_13h05.12.580,CGTgamblingSpanTasks,2022.2.1,Win32,72.04610951,,,,,,,,,,,,,,,,,,,,,,,,,,,,,,,,,,,,,,,,,,,,,,,,,,,,,,,,,,,,,,,,,,,,,,,,,,,,,,,,,,"[2,3,7,5,4,6,1,9,8]",4,0,4,0,1,,,,,,,,,,,,,,,,,,,,,,,,,,,,,,,,,,,,,,,,,,,,,,,,
,,5da7c6ecd11d560015a3d1da,2022-09-08_13h05.12.580,CGTgamblingSpanTasks,2022.2.1,Win32,72.04610951,,,,,,,,,,,,,,,,,,,,,,,,,,,,,,,,,,,,,,,,,,,,,,,,,,,,,,,,,,,,,,,,,,,,,,,,,,,,,,,,,,"[2,3,7,5,4,6,1,9,8]",5,0,5,0,1,,,,,,,,,,,,,,,,,,,,,,,,,,,,,,,,,,,,,,,,,,,,,,,,
,,5da7c6ecd11d560015a3d1da,2022-09-08_13h05.12.580,CGTgamblingSpanTasks,2022.2.1,Win32,72.04610951,,,,,,,,,,,,,,,,,,,,,,,,,,,,,,,,,,,,,,,,,,,,,,,,,,,,,,,,,,,,,,,,,,,,,,,,,,,,,,,,,,"[2,3,7,5,4,6,1,9,8]",6,0,6,0,1,,,,,,,,,,,,,,,,,,,,,,,,,,,,,,,,,,,,,,,,,,,,,,,,
,,5da7c6ecd11d560015a3d1da,2022-09-08_13h05.12.580,CGTgamblingSpanTasks,2022.2.1,Win32,72.04610951,,,,,,,,,,,,,,,,,,,,,,,,,,,,,,,,,,,,,,,,,,,,,,,,,,,,,,,,,,,,,,,,,,,,,,,,,,,,,,,,,,"[2,3,7,5,4,6,1,9,8]",7,0,7,0,1,,,,,,,,,,,,,,,,,,,,,,,,,,,,,,,,,,,,,,,,,,,,,,,,
,,5da7c6ecd11d560015a3d1da,2022-09-08_13h05.12.580,CGTgamblingSpanTasks,2022.2.1,Win32,72.04610951,,,,,,,,,,,,,,,,,,,,,,,,,,,,,,,,,,,,,,,,,,,,,,,,,,,,,,,,,,,,,,,,,,,,,,,,,,,,,,,,,,"[2,3,7,5,4,6,1,9,8]",8,0,8,0,1,,,,,,,,,,,,,,,,,,,,,,,,,,,,,,,,,,,,,,,,,,,,,,,,
,,5da7c6ecd11d560015a3d1da,2022-09-08_13h05.12.580,CGTgamblingSpanTasks,2022.2.1,Win32,72.04610951,,,,,,,,,,,,,,,,,,,,,,,,,,,,,,,,,,,,,,,,,,,,,,,,,,,,,,,,,,,,,,,0,,,,,,,,,,,,,,,,,,,,,,,,,,-0.012962963,-0.387962963,1,0,0,cont_button,0,6,6,6,1,7,,,,,,,,,,,,,,,,,,,,,,,,,,,,,,,,,,,
,,5da7c6ecd11d560015a3d1da,2022-09-08_13h05.12.580,CGTgamblingSpanTasks,2022.2.1,Win32,72.04610951,,,,,,,,,,,,,,,,,,,,,,,,,,,,,,,,,,,,,,,,,,,,,,,,,,,,,,,,,,,,,,,,,,,,,,,,,,,,,,,,,,"[4,8,5,9,3,2,7,1,6]",0,0,0,0,1,,,,,,,,,,,,,,,,,,,,,,,,,,,,,,,,,,,,,,,,,,,,,,,,
,,5da7c6ecd11d560015a3d1da,2022-09-08_13h05.12.580,CGTgamblingSpanTasks,2022.2.1,Win32,72.04610951,,,,,,,,,,,,,,,,,,,,,,,,,,,,,,,,,,,,,,,,,,,,,,,,,,,,,,,,,,,,,,,,,,,,,,,,,,,,,,,,,,"[4,8,5,9,3,2,7,1,6]",1,0,1,0,1,,,,,,,,,,,,,,,,,,,,,,,,,,,,,,,,,,,,,,,,,,,,,,,,
,,5da7c6ecd11d560015a3d1da,2022-09-08_13h05.12.580,CGTgamblingSpanTasks,2022.2.1,Win32,72.04610951,,,,,,,,,,,,,,,,,,,,,,,,,,,,,,,,,,,,,,,,,,,,,,,,,,,,,,,,,,,,,,,,,,,,,,,,,,,,,,,,,,"[4,8,5,9,3,2,7,1,6]",2,0,2,0,1,,,,,,,,,,,,,,,,,,,,,,,,,,,,,,,,,,,,,,,,,,,,,,,,
,,5da7c6ecd11d560015a3d1da,2022-09-08_13h05.12.580,CGTgamblingSpanTasks,2022.2.1,Win32,72.04610951,,,,,,,,,,,,,,,,,,,,,,,,,,,,,,,,,,,,,,,,,,,,,,,,,,,,,,,,,,,,,,,,,,,,,,,,,,,,,,,,,,"[4,8,5,9,3,2,7,1,6]",3,0,3,0,1,,,,,,,,,,,,,,,,,,,,,,,,,,,,,,,,,,,,,,,,,,,,,,,,
,,5da7c6ecd11d560015a3d1da,2022-09-08_13h05.12.580,CGTgamblingSpanTasks,2022.2.1,Win32,72.04610951,,,,,,,,,,,,,,,,,,,,,,,,,,,,,,,,,,,,,,,,,,,,,,,,,,,,,,,,,,,,,,,,,,,,,,,,,,,,,,,,,,"[4,8,5,9,3,2,7,1,6]",4,0,4,0,1,,,,,,,,,,,,,,,,,,,,,,,,,,,,,,,,,,,,,,,,,,,,,,,,
,,5da7c6ecd11d560015a3d1da,2022-09-08_13h05.12.580,CGTgamblingSpanTasks,2022.2.1,Win32,72.04610951,,,,,,,,,,,,,,,,,,,,,,,,,,,,,,,,,,,,,,,,,,,,,,,,,,,,,,,,,,,,,,,,,,,,,,,,,,,,,,,,,,"[4,8,5,9,3,2,7,1,6]",5,0,5,0,1,,,,,,,,,,,,,,,,,,,,,,,,,,,,,,,,,,,,,,,,,,,,,,,,
,,5da7c6ecd11d560015a3d1da,2022-09-08_13h05.12.580,CGTgamblingSpanTasks,2022.2.1,Win32,72.04610951,,,,,,,,,,,,,,,,,,,,,,,,,,,,,,,,,,,,,,,,,,,,,,,,,,,,,,,,,,,,,,,,,,,,,,,,,,,,,,,,,,"[4,8,5,9,3,2,7,1,6]",6,0,6,0,1,,,,,,,,,,,,,,,,,,,,,,,,,,,,,,,,,,,,,,,,,,,,,,,,
,,5da7c6ecd11d560015a3d1da,2022-09-08_13h05.12.580,CGTgamblingSpanTasks,2022.2.1,Win32,72.04610951,,,,,,,,,,,,,,,,,,,,,,,,,,,,,,,,,,,,,,,,,,,,,,,,,,,,,,,,,,,,,,,,,,,,,,,,,,,,,,,,,,"[4,8,5,9,3,2,7,1,6]",7,0,7,0,1,,,,,,,,,,,,,,,,,,,,,,,,,,,,,,,,,,,,,,,,,,,,,,,,
,,5da7c6ecd11d560015a3d1da,2022-09-08_13h05.12.580,CGTgamblingSpanTasks,2022.2.1,Win32,72.04610951,,,,,,,,,,,,,,,,,,,,,,,,,,,,,,,,,,,,,,,,,,,,,,,,,,,,,,,,,,,,,,,,,,,,,,,,,,,,,,,,,,"[4,8,5,9,3,2,7,1,6]",8,0,8,0,1,,,,,,,,,,,,,,,,,,,,,,,,,,,,,,,,,,,,,,,,,,,,,,,,
,,5da7c6ecd11d560015a3d1da,2022-09-08_13h05.12.580,CGTgamblingSpanTasks,2022.2.1,Win32,72.04610951,,,,,,,,,,,,,,,,,,,,,,,,,,,,,,,,,,,,,,,,,,,,,,,,,,,,,,,,,,,,,,,1,,,,,,,,,,,,,,,,,,,,,,,,,485932716,0.057407407,-0.407407407,1,0,0,cont_button,0,7,7,7,1,8,,,,,,,,,,,,,,,,,,,,,,,,,,,,,,,,,,,
,,5da7c6ecd11d560015a3d1da,2022-09-08_13h05.12.580,CGTgamblingSpanTasks,2022.2.1,Win32,72.04610951,,,,,,,,,,,,,,,,,,,,,,,,,,,,,,,,,,,,,,,,,,,,,,,,,,,,,,,,,,,,,,,,,,,,,,,,,,,,,,,,,,"[6,2,3,1,8,9,5,7,4,4]",0,0,0,0,1,,,,,,,,,,,,,,,,,,,,,,,,,,,,,,,,,,,,,,,,,,,,,,,,
,,5da7c6ecd11d560015a3d1da,2022-09-08_13h05.12.580,CGTgamblingSpanTasks,2022.2.1,Win32,72.04610951,,,,,,,,,,,,,,,,,,,,,,,,,,,,,,,,,,,,,,,,,,,,,,,,,,,,,,,,,,,,,,,,,,,,,,,,,,,,,,,,,,"[6,2,3,1,8,9,5,7,4,4]",1,0,1,0,1,,,,,,,,,,,,,,,,,,,,,,,,,,,,,,,,,,,,,,,,,,,,,,,,
,,5da7c6ecd11d560015a3d1da,2022-09-08_13h05.12.580,CGTgamblingSpanTasks,2022.2.1,Win32,72.04610951,,,,,,,,,,,,,,,,,,,,,,,,,,,,,,,,,,,,,,,,,,,,,,,,,,,,,,,,,,,,,,,,,,,,,,,,,,,,,,,,,,"[6,2,3,1,8,9,5,7,4,4]",2,0,2,0,1,,,,,,,,,,,,,,,,,,,,,,,,,,,,,,,,,,,,,,,,,,,,,,,,
,,5da7c6ecd11d560015a3d1da,2022-09-08_13h05.12.580,CGTgamblingSpanTasks,2022.2.1,Win32,72.04610951,,,,,,,,,,,,,,,,,,,,,,,,,,,,,,,,,,,,,,,,,,,,,,,,,,,,,,,,,,,,,,,,,,,,,,,,,,,,,,,,,,"[6,2,3,1,8,9,5,7,4,4]",3,0,3,0,1,,,,,,,,,,,,,,,,,,,,,,,,,,,,,,,,,,,,,,,,,,,,,,,,
,,5da7c6ecd11d560015a3d1da,2022-09-08_13h05.12.580,CGTgamblingSpanTasks,2022.2.1,Win32,72.04610951,,,,,,,,,,,,,,,,,,,,,,,,,,,,,,,,,,,,,,,,,,,,,,,,,,,,,,,,,,,,,,,,,,,,,,,,,,,,,,,,,,"[6,2,3,1,8,9,5,7,4,4]",4,0,4,0,1,,,,,,,,,,,,,,,,,,,,,,,,,,,,,,,,,,,,,,,,,,,,,,,,
,,5da7c6ecd11d560015a3d1da,2022-09-08_13h05.12.580,CGTgamblingSpanTasks,2022.2.1,Win32,72.04610951,,,,,,,,,,,,,,,,,,,,,,,,,,,,,,,,,,,,,,,,,,,,,,,,,,,,,,,,,,,,,,,,,,,,,,,,,,,,,,,,,,"[6,2,3,1,8,9,5,7,4,4]",5,0,5,0,1,,,,,,,,,,,,,,,,,,,,,,,,,,,,,,,,,,,,,,,,,,,,,,,,
,,5da7c6ecd11d560015a3d1da,2022-09-08_13h05.12.580,CGTgamblingSpanTasks,2022.2.1,Win32,72.04610951,,,,,,,,,,,,,,,,,,,,,,,,,,,,,,,,,,,,,,,,,,,,,,,,,,,,,,,,,,,,,,,,,,,,,,,,,,,,,,,,,,"[6,2,3,1,8,9,5,7,4,4]",6,0,6,0,1,,,,,,,,,,,,,,,,,,,,,,,,,,,,,,,,,,,,,,,,,,,,,,,,
,,5da7c6ecd11d560015a3d1da,2022-09-08_13h05.12.580,CGTgamblingSpanTasks,2022.2.1,Win32,72.04610951,,,,,,,,,,,,,,,,,,,,,,,,,,,,,,,,,,,,,,,,,,,,,,,,,,,,,,,,,,,,,,,,,,,,,,,,,,,,,,,,,,"[6,2,3,1,8,9,5,7,4,4]",7,0,7,0,1,,,,,,,,,,,,,,,,,,,,,,,,,,,,,,,,,,,,,,,,,,,,,,,,
,,5da7c6ecd11d560015a3d1da,2022-09-08_13h05.12.580,CGTgamblingSpanTasks,2022.2.1,Win32,72.04610951,,,,,,,,,,,,,,,,,,,,,,,,,,,,,,,,,,,,,,,,,,,,,,,,,,,,,,,,,,,,,,,,,,,,,,,,,,,,,,,,,,"[6,2,3,1,8,9,5,7,4,4]",8,0,8,0,1,,,,,,,,,,,,,,,,,,,,,,,,,,,,,,,,,,,,,,,,,,,,,,,,
,,5da7c6ecd11d560015a3d1da,2022-09-08_13h05.12.580,CGTgamblingSpanTasks,2022.2.1,Win32,72.04610951,,,,,,,,,,,,,,,,,,,,,,,,,,,,,,,,,,,,,,,,,,,,,,,,,,,,,,,,,,,,,,,,,,,,,,,,,,,,,,,,,,"[6,2,3,1,8,9,5,7,4,4]",9,0,9,0,1,,,,,,,,,,,,,,,,,,,,,,,,,,,,,,,,,,,,,,,,,,,,,,,,
,,5da7c6ecd11d560015a3d1da,2022-09-08_13h05.12.580,CGTgamblingSpanTasks,2022.2.1,Win32,72.04610951,,,,,,,,,,,,,,,,,,,,,,,,,,,,,,,,,,,,,,,,,,,,,,,,,,,,,,,,,,,,,,,0,,,,,,,,,,,,,,,,,,,,,,,,,6859827144,0.025,-0.4,1,0,0,cont_button,0,8,8,8,1,9,,,,,,,,,,,,,,,,,,,,,,,,,,,,,,,,,,,
,,5da7c6ecd11d560015a3d1da,2022-09-08_13h05.12.580,CGTgamblingSpanTasks,2022.2.1,Win32,72.04610951,,,,,,,,,,,,,,,,,,,,,,,,,,,,,,,,,,,,,,,,,,,,,,,,,,,,,,,,,,,,,,,,,,,,,,,,,,,,,,,,,,"[9,4,2,8,5,6,1,3,7,7]",0,0,0,0,1,,,,,,,,,,,,,,,,,,,,,,,,,,,,,,,,,,,,,,,,,,,,,,,,
,,5da7c6ecd11d560015a3d1da,2022-09-08_13h05.12.580,CGTgamblingSpanTasks,2022.2.1,Win32,72.04610951,,,,,,,,,,,,,,,,,,,,,,,,,,,,,,,,,,,,,,,,,,,,,,,,,,,,,,,,,,,,,,,,,,,,,,,,,,,,,,,,,,"[9,4,2,8,5,6,1,3,7,7]",1,0,1,0,1,,,,,,,,,,,,,,,,,,,,,,,,,,,,,,,,,,,,,,,,,,,,,,,,
,,5da7c6ecd11d560015a3d1da,2022-09-08_13h05.12.580,CGTgamblingSpanTasks,2022.2.1,Win32,72.04610951,,,,,,,,,,,,,,,,,,,,,,,,,,,,,,,,,,,,,,,,,,,,,,,,,,,,,,,,,,,,,,,,,,,,,,,,,,,,,,,,,,"[9,4,2,8,5,6,1,3,7,7]",2,0,2,0,1,,,,,,,,,,,,,,,,,,,,,,,,,,,,,,,,,,,,,,,,,,,,,,,,
,,5da7c6ecd11d560015a3d1da,2022-09-08_13h05.12.580,CGTgamblingSpanTasks,2022.2.1,Win32,72.04610951,,,,,,,,,,,,,,,,,,,,,,,,,,,,,,,,,,,,,,,,,,,,,,,,,,,,,,,,,,,,,,,,,,,,,,,,,,,,,,,,,,"[9,4,2,8,5,6,1,3,7,7]",3,0,3,0,1,,,,,,,,,,,,,,,,,,,,,,,,,,,,,,,,,,,,,,,,,,,,,,,,
,,5da7c6ecd11d560015a3d1da,2022-09-08_13h05.12.580,CGTgamblingSpanTasks,2022.2.1,Win32,72.04610951,,,,,,,,,,,,,,,,,,,,,,,,,,,,,,,,,,,,,,,,,,,,,,,,,,,,,,,,,,,,,,,,,,,,,,,,,,,,,,,,,,"[9,4,2,8,5,6,1,3,7,7]",4,0,4,0,1,,,,,,,,,,,,,,,,,,,,,,,,,,,,,,,,,,,,,,,,,,,,,,,,
,,5da7c6ecd11d560015a3d1da,2022-09-08_13h05.12.580,CGTgamblingSpanTasks,2022.2.1,Win32,72.04610951,,,,,,,,,,,,,,,,,,,,,,,,,,,,,,,,,,,,,,,,,,,,,,,,,,,,,,,,,,,,,,,,,,,,,,,,,,,,,,,,,,"[9,4,2,8,5,6,1,3,7,7]",5,0,5,0,1,,,,,,,,,,,,,,,,,,,,,,,,,,,,,,,,,,,,,,,,,,,,,,,,
,,5da7c6ecd11d560015a3d1da,2022-09-08_13h05.12.580,CGTgamblingSpanTasks,2022.2.1,Win32,72.04610951,,,,,,,,,,,,,,,,,,,,,,,,,,,,,,,,,,,,,,,,,,,,,,,,,,,,,,,,,,,,,,,,,,,,,,,,,,,,,,,,,,"[9,4,2,8,5,6,1,3,7,7]",6,0,6,0,1,,,,,,,,,,,,,,,,,,,,,,,,,,,,,,,,,,,,,,,,,,,,,,,,
,,5da7c6ecd11d560015a3d1da,2022-09-08_13h05.12.580,CGTgamblingSpanTasks,2022.2.1,Win32,72.04610951,,,,,,,,,,,,,,,,,,,,,,,,,,,,,,,,,,,,,,,,,,,,,,,,,,,,,,,,,,,,,,,,,,,,,,,,,,,,,,,,,,"[9,4,2,8,5,6,1,3,7,7]",7,0,7,0,1,,,,,,,,,,,,,,,,,,,,,,,,,,,,,,,,,,,,,,,,,,,,,,,,
,,5da7c6ecd11d560015a3d1da,2022-09-08_13h05.12.580,CGTgamblingSpanTasks,2022.2.1,Win32,72.04610951,,,,,,,,,,,,,,,,,,,,,,,,,,,,,,,,,,,,,,,,,,,,,,,,,,,,,,,,,,,,,,,,,,,,,,,,,,,,,,,,,,"[9,4,2,8,5,6,1,3,7,7]",8,0,8,0,1,,,,,,,,,,,,,,,,,,,,,,,,,,,,,,,,,,,,,,,,,,,,,,,,
,,5da7c6ecd11d560015a3d1da,2022-09-08_13h05.12.580,CGTgamblingSpanTasks,2022.2.1,Win32,72.04610951,,,,,,,,,,,,,,,,,,,,,,,,,,,,,,,,,,,,,,,,,,,,,,,,,,,,,,,,,,,,,,,,,,,,,,,,,,,,,,,,,,"[9,4,2,8,5,6,1,3,7,7]",9,0,9,0,1,,,,,,,,,,,,,,,,,,,,,,,,,,,,,,,,,,,,,,,,,,,,,,,,
,,5da7c6ecd11d560015a3d1da,2022-09-08_13h05.12.580,CGTgamblingSpanTasks,2022.2.1,Win32,72.04610951,,,,,,,,,,,,,,,,,,,,,,,,,,,,,,,,,,,,,,,,,,,,,,,,,,,,,,,,,,,,,,,0,,,,,,,,,,,,,,,,,,,,,,,,,,-0.001851852,-0.39537037,1,0,0,cont_button,0,9,9,9,1,10,,,,,,,,,,,,,,,,,,,,,,,,,,,,,,,,,,,
,,5da7c6ecd11d560015a3d1da,2022-09-08_13h05.12.580,CGTgamblingSpanTasks,2022.2.1,Win32,72.04610951,,,,,,,,,,,,,,,,,,,,,,,,,,,,,,,,,,,,,,,,,,,,,,,,,,,,,,,,,,,,,,,,,,,,,,,,,,,,,,,,,,"[3,8,5,2,9,4,7,6,1]",0,0,0,0,1,,,,,,,,,,,,,,,,,,,,,,,,,,,,,,,,,,,,,,,,,,,,,,,,
,,5da7c6ecd11d560015a3d1da,2022-09-08_13h05.12.580,CGTgamblingSpanTasks,2022.2.1,Win32,72.04610951,,,,,,,,,,,,,,,,,,,,,,,,,,,,,,,,,,,,,,,,,,,,,,,,,,,,,,,,,,,,,,,,,,,,,,,,,,,,,,,,,,"[3,8,5,2,9,4,7,6,1]",1,0,1,0,1,,,,,,,,,,,,,,,,,,,,,,,,,,,,,,,,,,,,,,,,,,,,,,,,
,,5da7c6ecd11d560015a3d1da,2022-09-08_13h05.12.580,CGTgamblingSpanTasks,2022.2.1,Win32,72.04610951,,,,,,,,,,,,,,,,,,,,,,,,,,,,,,,,,,,,,,,,,,,,,,,,,,,,,,,,,,,,,,,,,,,,,,,,,,,,,,,,,,"[3,8,5,2,9,4,7,6,1]",2,0,2,0,1,,,,,,,,,,,,,,,,,,,,,,,,,,,,,,,,,,,,,,,,,,,,,,,,
,,5da7c6ecd11d560015a3d1da,2022-09-08_13h05.12.580,CGTgamblingSpanTasks,2022.2.1,Win32,72.04610951,,,,,,,,,,,,,,,,,,,,,,,,,,,,,,,,,,,,,,,,,,,,,,,,,,,,,,,,,,,,,,,,,,,,,,,,,,,,,,,,,,"[3,8,5,2,9,4,7,6,1]",3,0,3,0,1,,,,,,,,,,,,,,,,,,,,,,,,,,,,,,,,,,,,,,,,,,,,,,,,
,,5da7c6ecd11d560015a3d1da,2022-09-08_13h05.12.580,CGTgamblingSpanTasks,2022.2.1,Win32,72.04610951,,,,,,,,,,,,,,,,,,,,,,,,,,,,,,,,,,,,,,,,,,,,,,,,,,,,,,,,,,,,,,,,,,,,,,,,,,,,,,,,,,"[3,8,5,2,9,4,7,6,1]",4,0,4,0,1,,,,,,,,,,,,,,,,,,,,,,,,,,,,,,,,,,,,,,,,,,,,,,,,
,,5da7c6ecd11d560015a3d1da,2022-09-08_13h05.12.580,CGTgamblingSpanTasks,2022.2.1,Win32,72.04610951,,,,,,,,,,,,,,,,,,,,,,,,,,,,,,,,,,,,,,,,,,,,,,,,,,,,,,,,,,,,,,,,,,,,,,,,,,,,,,,,,,"[3,8,5,2,9,4,7,6,1]",5,0,5,0,1,,,,,,,,,,,,,,,,,,,,,,,,,,,,,,,,,,,,,,,,,,,,,,,,
,,5da7c6ecd11d560015a3d1da,2022-09-08_13h05.12.580,CGTgamblingSpanTasks,2022.2.1,Win32,72.04610951,,,,,,,,,,,,,,,,,,,,,,,,,,,,,,,,,,,,,,,,,,,,,,,,,,,,,,,,,,,,,,,,,,,,,,,,,,,,,,,,,,"[3,8,5,2,9,4,7,6,1]",6,0,6,0,1,,,,,,,,,,,,,,,,,,,,,,,,,,,,,,,,,,,,,,,,,,,,,,,,
,,5da7c6ecd11d560015a3d1da,2022-09-08_13h05.12.580,CGTgamblingSpanTasks,2022.2.1,Win32,72.04610951,,,,,,,,,,,,,,,,,,,,,,,,,,,,,,,,,,,,,,,,,,,,,,,,,,,,,,,,,,,,,,,,,,,,,,,,,,,,,,,,,,"[3,8,5,2,9,4,7,6,1]",7,0,7,0,1,,,,,,,,,,,,,,,,,,,,,,,,,,,,,,,,,,,,,,,,,,,,,,,,
,,5da7c6ecd11d560015a3d1da,2022-09-08_13h05.12.580,CGTgamblingSpanTasks,2022.2.1,Win32,72.04610951,,,,,,,,,,,,,,,,,,,,,,,,,,,,,,,,,,,,,,,,,,,,,,,,,,,,,,,,,,,,,,,,,,,,,,,,,,,,,,,,,,"[3,8,5,2,9,4,7,6,1]",8,0,8,0,1,,,,,,,,,,,,,,,,,,,,,,,,,,,,,,,,,,,,,,,,,,,,,,,,
,,5da7c6ecd11d560015a3d1da,2022-09-08_13h05.12.580,CGTgamblingSpanTasks,2022.2.1,Win32,72.04610951,,,,,,,,,,,,,,,,,,,,,,,,,,,,,,,,,,,,,,,,,,,,,,,,,,,,,,,,,,,,,,,0,,,,,,,,,,,,,,,,,,,,,,,,,,-0.001851852,-0.39537037,1,0,0,cont_button,0,10,10,10,1,11,,,,,,,,,,,,,,,,,,,,,,,,,,,,,,,,,,,
,,5da7c6ecd11d560015a3d1da,2022-09-08_13h05.12.580,CGTgamblingSpanTasks,2022.2.1,Win32,72.04610951,,,,,,,,,,,,,,,,,,,,,,,,,,,,,,,,,,,,,,,,,,,,,,,,,,,,,,,,,,,,,,,,,,,,,,,,,,,,,,,,,,"[9,7,2,6,1,5,4,8,3]",0,0,0,0,1,,,,,,,,,,,,,,,,,,,,,,,,,,,,,,,,,,,,,,,,,,,,,,,,
,,5da7c6ecd11d560015a3d1da,2022-09-08_13h05.12.580,CGTgamblingSpanTasks,2022.2.1,Win32,72.04610951,,,,,,,,,,,,,,,,,,,,,,,,,,,,,,,,,,,,,,,,,,,,,,,,,,,,,,,,,,,,,,,,,,,,,,,,,,,,,,,,,,"[9,7,2,6,1,5,4,8,3]",1,0,1,0,1,,,,,,,,,,,,,,,,,,,,,,,,,,,,,,,,,,,,,,,,,,,,,,,,
,,5da7c6ecd11d560015a3d1da,2022-09-08_13h05.12.580,CGTgamblingSpanTasks,2022.2.1,Win32,72.04610951,,,,,,,,,,,,,,,,,,,,,,,,,,,,,,,,,,,,,,,,,,,,,,,,,,,,,,,,,,,,,,,,,,,,,,,,,,,,,,,,,,"[9,7,2,6,1,5,4,8,3]",2,0,2,0,1,,,,,,,,,,,,,,,,,,,,,,,,,,,,,,,,,,,,,,,,,,,,,,,,
,,5da7c6ecd11d560015a3d1da,2022-09-08_13h05.12.580,CGTgamblingSpanTasks,2022.2.1,Win32,72.04610951,,,,,,,,,,,,,,,,,,,,,,,,,,,,,,,,,,,,,,,,,,,,,,,,,,,,,,,,,,,,,,,,,,,,,,,,,,,,,,,,,,"[9,7,2,6,1,5,4,8,3]",3,0,3,0,1,,,,,,,,,,,,,,,,,,,,,,,,,,,,,,,,,,,,,,,,,,,,,,,,
,,5da7c6ecd11d560015a3d1da,2022-09-08_13h05.12.580,CGTgamblingSpanTasks,2022.2.1,Win32,72.04610951,,,,,,,,,,,,,,,,,,,,,,,,,,,,,,,,,,,,,,,,,,,,,,,,,,,,,,,,,,,,,,,,,,,,,,,,,,,,,,,,,,"[9,7,2,6,1,5,4,8,3]",4,0,4,0,1,,,,,,,,,,,,,,,,,,,,,,,,,,,,,,,,,,,,,,,,,,,,,,,,
,,5da7c6ecd11d560015a3d1da,2022-09-08_13h05.12.580,CGTgamblingSpanTasks,2022.2.1,Win32,72.04610951,,,,,,,,,,,,,,,,,,,,,,,,,,,,,,,,,,,,,,,,,,,,,,,,,,,,,,,,,,,,,,,,,,,,,,,,,,,,,,,,,,"[9,7,2,6,1,5,4,8,3]",5,0,5,0,1,,,,,,,,,,,,,,,,,,,,,,,,,,,,,,,,,,,,,,,,,,,,,,,,
,,5da7c6ecd11d560015a3d1da,2022-09-08_13h05.12.580,CGTgamblingSpanTasks,2022.2.1,Win32,72.04610951,,,,,,,,,,,,,,,,,,,,,,,,,,,,,,,,,,,,,,,,,,,,,,,,,,,,,,,,,,,,,,,,,,,,,,,,,,,,,,,,,,"[9,7,2,6,1,5,4,8,3]",6,0,6,0,1,,,,,,,,,,,,,,,,,,,,,,,,,,,,,,,,,,,,,,,,,,,,,,,,
,,5da7c6ecd11d560015a3d1da,2022-09-08_13h05.12.580,CGTgamblingSpanTasks,2022.2.1,Win32,72.04610951,,,,,,,,,,,,,,,,,,,,,,,,,,,,,,,,,,,,,,,,,,,,,,,,,,,,,,,,,,,,,,,,,,,,,,,,,,,,,,,,,,"[9,7,2,6,1,5,4,8,3]",7,0,7,0,1,,,,,,,,,,,,,,,,,,,,,,,,,,,,,,,,,,,,,,,,,,,,,,,,
,,5da7c6ecd11d560015a3d1da,2022-09-08_13h05.12.580,CGTgamblingSpanTasks,2022.2.1,Win32,72.04610951,,,,,,,,,,,,,,,,,,,,,,,,,,,,,,,,,,,,,,,,,,,,,,,,,,,,,,,,,,,,,,,,,,,,,,,,,,,,,,,,,,"[9,7,2,6,1,5,4,8,3]",8,0,8,0,1,,,,,,,,,,,,,,,,,,,,,,,,,,,,,,,,,,,,,,,,,,,,,,,,
,,5da7c6ecd11d560015a3d1da,2022-09-08_13h05.12.580,CGTgamblingSpanTasks,2022.2.1,Win32,72.04610951,,,,,,,,,,,,,,,,,,,,,,,,,,,,,,,,,,,,,,,,,,,,,,,,,,,,,,,,,,,,,,,0,,,,,,,,,,,,,,,,,,,,,,,,,972865143,-0.04537037,-0.40462963,1,0,0,cont_button,0,11,11,11,1,12,,,,,,,,,,,,,,,,,,,,,,,,,,,,,,,,,,,
,,5da7c6ecd11d560015a3d1da,2022-09-08_13h05.12.580,CGTgamblingSpanTasks,2022.2.1,Win32,72.04610951,,,,,,,,,,,,,,,,,,,,,,,,,,,,,,,,,,,,,,,,,,,,,,,,,,,,,,,,,,,,,,,,,,,,,,,,,,,,,,,,,,"[6,1,9,4,8,7,2,3]",0,0,0,0,1,,,,,,,,,,,,,,,,,,,,,,,,,,,,,,,,,,,,,,,,,,,,,,,,
,,5da7c6ecd11d560015a3d1da,2022-09-08_13h05.12.580,CGTgamblingSpanTasks,2022.2.1,Win32,72.04610951,,,,,,,,,,,,,,,,,,,,,,,,,,,,,,,,,,,,,,,,,,,,,,,,,,,,,,,,,,,,,,,,,,,,,,,,,,,,,,,,,,"[6,1,9,4,8,7,2,3]",1,0,1,0,1,,,,,,,,,,,,,,,,,,,,,,,,,,,,,,,,,,,,,,,,,,,,,,,,
,,5da7c6ecd11d560015a3d1da,2022-09-08_13h05.12.580,CGTgamblingSpanTasks,2022.2.1,Win32,72.04610951,,,,,,,,,,,,,,,,,,,,,,,,,,,,,,,,,,,,,,,,,,,,,,,,,,,,,,,,,,,,,,,,,,,,,,,,,,,,,,,,,,"[6,1,9,4,8,7,2,3]",2,0,2,0,1,,,,,,,,,,,,,,,,,,,,,,,,,,,,,,,,,,,,,,,,,,,,,,,,
,,5da7c6ecd11d560015a3d1da,2022-09-08_13h05.12.580,CGTgamblingSpanTasks,2022.2.1,Win32,72.04610951,,,,,,,,,,,,,,,,,,,,,,,,,,,,,,,,,,,,,,,,,,,,,,,,,,,,,,,,,,,,,,,,,,,,,,,,,,,,,,,,,,"[6,1,9,4,8,7,2,3]",3,0,3,0,1,,,,,,,,,,,,,,,,,,,,,,,,,,,,,,,,,,,,,,,,,,,,,,,,
,,5da7c6ecd11d560015a3d1da,2022-09-08_13h05.12.580,CGTgamblingSpanTasks,2022.2.1,Win32,72.04610951,,,,,,,,,,,,,,,,,,,,,,,,,,,,,,,,,,,,,,,,,,,,,,,,,,,,,,,,,,,,,,,,,,,,,,,,,,,,,,,,,,"[6,1,9,4,8,7,2,3]",4,0,4,0,1,,,,,,,,,,,,,,,,,,,,,,,,,,,,,,,,,,,,,,,,,,,,,,,,
,,5da7c6ecd11d560015a3d1da,2022-09-08_13h05.12.580,CGTgamblingSpanTasks,2022.2.1,Win32,72.04610951,,,,,,,,,,,,,,,,,,,,,,,,,,,,,,,,,,,,,,,,,,,,,,,,,,,,,,,,,,,,,,,,,,,,,,,,,,,,,,,,,,"[6,1,9,4,8,7,2,3]",5,0,5,0,1,,,,,,,,,,,,,,,,,,,,,,,,,,,,,,,,,,,,,,,,,,,,,,,,
,,5da7c6ecd11d560015a3d1da,2022-09-08_13h05.12.580,CGTgamblingSpanTasks,2022.2.1,Win32,72.04610951,,,,,,,,,,,,,,,,,,,,,,,,,,,,,,,,,,,,,,,,,,,,,,,,,,,,,,,,,,,,,,,,,,,,,,,,,,,,,,,,,,"[6,1,9,4,8,7,2,3]",6,0,6,0,1,,,,,,,,,,,,,,,,,,,,,,,,,,,,,,,,,,,,,,,,,,,,,,,,
,,5da7c6ecd11d560015a3d1da,2022-09-08_13h05.12.580,CGTgamblingSpanTasks,2022.2.1,Win32,72.04610951,,,,,,,,,,,,,,,,,,,,,,,,,,,,,,,,,,,,,,,,,,,,,,,,,,,,,,,,,,,,,,,,,,,,,,,,,,,,,,,,,,"[6,1,9,4,8,7,2,3]",7,0,7,0,1,,,,,,,,,,,,,,,,,,,,,,,,,,,,,,,,,,,,,,,,,,,,,,,,
,,5da7c6ecd11d560015a3d1da,2022-09-08_13h05.12.580,CGTgamblingSpanTasks,2022.2.1,Win32,72.04610951,,,,,,,,,,,,,,,,,,,,,,,,,,,,,,,,,,,,,,,,,,,,,,,,,,,,,,,,,,,,,,,0,,,,,,,,,,,,,,,,,,,,,,,,,,-0.043518519,-0.409259259,1,0,0,cont_button,0,12,12,12,1,13,,,,,,,,,,,,,,,,,,,,,,,,,,,,,,,,,,,
,,5da7c6ecd11d560015a3d1da,2022-09-08_13h05.12.580,CGTgamblingSpanTasks,2022.2.1,Win32,72.04610951,,,,,,,,,,,,,,,,,,,,,,,,,,,,,,,,,,,,,,,,,,,,,,,,,,,,,,,,,,,,,,,,,,,,,,,,,,,,,,,,,,"[7,1,4,9,3,8,5,6]",0,0,0,0,1,,,,,,,,,,,,,,,,,,,,,,,,,,,,,,,,,,,,,,,,,,,,,,,,
,,5da7c6ecd11d560015a3d1da,2022-09-08_13h05.12.580,CGTgamblingSpanTasks,2022.2.1,Win32,72.04610951,,,,,,,,,,,,,,,,,,,,,,,,,,,,,,,,,,,,,,,,,,,,,,,,,,,,,,,,,,,,,,,,,,,,,,,,,,,,,,,,,,"[7,1,4,9,3,8,5,6]",1,0,1,0,1,,,,,,,,,,,,,,,,,,,,,,,,,,,,,,,,,,,,,,,,,,,,,,,,
,,5da7c6ecd11d560015a3d1da,2022-09-08_13h05.12.580,CGTgamblingSpanTasks,2022.2.1,Win32,72.04610951,,,,,,,,,,,,,,,,,,,,,,,,,,,,,,,,,,,,,,,,,,,,,,,,,,,,,,,,,,,,,,,,,,,,,,,,,,,,,,,,,,"[7,1,4,9,3,8,5,6]",2,0,2,0,1,,,,,,,,,,,,,,,,,,,,,,,,,,,,,,,,,,,,,,,,,,,,,,,,
,,5da7c6ecd11d560015a3d1da,2022-09-08_13h05.12.580,CGTgamblingSpanTasks,2022.2.1,Win32,72.04610951,,,,,,,,,,,,,,,,,,,,,,,,,,,,,,,,,,,,,,,,,,,,,,,,,,,,,,,,,,,,,,,,,,,,,,,,,,,,,,,,,,"[7,1,4,9,3,8,5,6]",3,0,3,0,1,,,,,,,,,,,,,,,,,,,,,,,,,,,,,,,,,,,,,,,,,,,,,,,,
,,5da7c6ecd11d560015a3d1da,2022-09-08_13h05.12.580,CGTgamblingSpanTasks,2022.2.1,Win32,72.04610951,,,,,,,,,,,,,,,,,,,,,,,,,,,,,,,,,,,,,,,,,,,,,,,,,,,,,,,,,,,,,,,,,,,,,,,,,,,,,,,,,,"[7,1,4,9,3,8,5,6]",4,0,4,0,1,,,,,,,,,,,,,,,,,,,,,,,,,,,,,,,,,,,,,,,,,,,,,,,,
,,5da7c6ecd11d560015a3d1da,2022-09-08_13h05.12.580,CGTgamblingSpanTasks,2022.2.1,Win32,72.04610951,,,,,,,,,,,,,,,,,,,,,,,,,,,,,,,,,,,,,,,,,,,,,,,,,,,,,,,,,,,,,,,,,,,,,,,,,,,,,,,,,,"[7,1,4,9,3,8,5,6]",5,0,5,0,1,,,,,,,,,,,,,,,,,,,,,,,,,,,,,,,,,,,,,,,,,,,,,,,,
,,5da7c6ecd11d560015a3d1da,2022-09-08_13h05.12.580,CGTgamblingSpanTasks,2022.2.1,Win32,72.04610951,,,,,,,,,,,,,,,,,,,,,,,,,,,,,,,,,,,,,,,,,,,,,,,,,,,,,,,,,,,,,,,,,,,,,,,,,,,,,,,,,,"[7,1,4,9,3,8,5,6]",6,0,6,0,1,,,,,,,,,,,,,,,,,,,,,,,,,,,,,,,,,,,,,,,,,,,,,,,,
,,5da7c6ecd11d560015a3d1da,2022-09-08_13h05.12.580,CGTgamblingSpanTasks,2022.2.1,Win32,72.04610951,,,,,,,,,,,,,,,,,,,,,,,,,,,,,,,,,,,,,,,,,,,,,,,,,,,,,,,,,,,,,,,,,,,,,,,,,,,,,,,,,,"[7,1,4,9,3,8,5,6]",7,0,7,0,1,,,,,,,,,,,,,,,,,,,,,,,,,,,,,,,,,,,,,,,,,,,,,,,,
,,5da7c6ecd11d560015a3d1da,2022-09-08_13h05.12.580,CGTgamblingSpanTasks,2022.2.1,Win32,72.04610951,,,,,,,,,,,,,,,,,,,,,,,,,,,,,,,,,,,,,,,,,,,,,,,,,,,,,,,,,,,,,,,0,,,,,,,,,,,,,,,,,,,,,,,,,,-0.043518519,-0.409259259,1,0,0,cont_button,0,13,13,13,1,14,,,,,,,,,,,,,,,,,,,,,,,,,,,,,,,,,,,
,,5da7c6ecd11d560015a3d1da,2022-09-08_13h05.12.580,CGTgamblingSpanTasks,2022.2.1,Win32,72.04610951,,,,,,,,,,,,,,,,,,,,,,,,,,,,,,,,,,,,,,,,,,,,,,,,,,,,,,,,,,,,,,,,,,,,,,,,,,,,,,,,,,,,,,,,,,,,,,,,,,,,,return,13.27,,,,,,,,,,,,,,,,,,,,,,,,,,,,,,,,,
,,5da7c6ecd11d560015a3d1da,2022-09-08_13h05.12.580,CGTgamblingSpanTasks,2022.2.1,Win32,72.04610951,,,,,,,,,,,,,,,,,,,,,,,,,,,,,,,,,,,,,,,,,,,,,,,,,,,,,,,,,,,,,,,,,,,,,,,,,,,,,,,,,,,,,,,,,,,,,,,,,,,,,,,return,11.679,,,,,,,,,,,,,,,,,,,,,,,,,,,,,,,
,,5da7c6ecd11d560015a3d1da,2022-09-08_13h05.12.580,CGTgamblingSpanTasks,2022.2.1,Win32,72.04610951,,,,,,,,,,,,,,,,,,,,,,,,,,,,,,,,,,,,,,,,,,,,,,,,,,,,,,,,,,,,,,,1,,,,,,,,,,,,3,342,24,2,42,,,,,,,,,,,,,,,,,,,,,,,,,,42,-0.049074074,-0.418518519,1,0,0,cont_buttonPractice_2,0,0,0,0,1,,,,,,,,,,,,,,,,,,,
,,5da7c6ecd11d560015a3d1da,2022-09-08_13h05.12.580,CGTgamblingSpanTasks,2022.2.1,Win32,72.04610951,,,,,,,,,,,,,,,,,,,,,,,,,,,,,,,,,,,,,,,,,,,,,,,,,,,,,,,,,,,,,,,1,,,,,,,,,,,,3,937,73,2,37,,,,,,,,,,,,,,,,,,,,,,,,,,37,-0.034259259,-0.386111111,1,0,0,cont_buttonPractice_2,0,1,1,1,1,,,,,,,,,,,,,,,,,,,
,,5da7c6ecd11d560015a3d1da,2022-09-08_13h05.12.580,CGTgamblingSpanTasks,2022.2.1,Win32,72.04610951,,,,,,,,,,,,,,,,,,,,,,,,,,,,,,,,,,,,,,,,,,,,,,,,,,,,,,,,,,,,,,,,,,,,,,,,,,,,,,,,,,,,,,,,,,,,,,,,,,,,,,,,,,,,,,,,,,,,,return,11.709,,,,,,,,,,,,,,,,,
,,5da7c6ecd11d560015a3d1da,2022-09-08_13h05.12.580,CGTgamblingSpanTasks,2022.2.1,Win32,72.04610951,,,,,,,,,,,,,,,,,,,,,,,,,,,,,,,,,,,,,,,,,,,,,,,,,,,,,,,,,,,,,,,,,,,,,,,,,,,,,,,,,,"[4,1]",,,,,,,,,,,,,,,,,,,,,,,,,,,,,,,,,,,,,0,0,0,0,1,,,,,,,,,,,,
,,5da7c6ecd11d560015a3d1da,2022-09-08_13h05.12.580,CGTgamblingSpanTasks,2022.2.1,Win32,72.04610951,,,,,,,,,,,,,,,,,,,,,,,,,,,,,,,,,,,,,,,,,,,,,,,,,,,,,,,,,,,,,,,,,,,,,,,,,,,,,,,,,,"[4,1]",,,,,,,,,,,,,,,,,,,,,,,,,,,,,,,,,,,,,1,0,1,0,1,,,,,,,,,,,,
,,5da7c6ecd11d560015a3d1da,2022-09-08_13h05.12.580,CGTgamblingSpanTasks,2022.2.1,Win32,72.04610951,,,,,,,,,,,,,,,,,,,,,,,,,,,,,,,,,,,,,,,,,,,,,,,,,,,,,,,,,,,,,,,1,,,,,,,,,,,,,,,,,,,,,,,,,,,,,,,,,,,,,1,,,,,,,,,,,,,,,,,,,,,,,,14,-0.028703704,-0.408333333,1,0,0,cont_buttonBS,0,0,0,0,1
,,5da7c6ecd11d560015a3d1da,2022-09-08_13h05.12.580,CGTgamblingSpanTasks,2022.2.1,Win32,72.04610951,,,,,,,,,,,,,,,,,,,,,,,,,,,,,,,,,,,,,,,,,,,,,,,,,,,,,,,,,,,,,,,,,,,,,,,,,,,,,,,,,,"[6,5,7]",,,,,,,,,,,,,,,,,,,,,,,,,,,,,,,,,,,,,0,0,0,0,1,,,,,,,,,,,,
,,5da7c6ecd11d560015a3d1da,2022-09-08_13h05.12.580,CGTgamblingSpanTasks,2022.2.1,Win32,72.04610951,,,,,,,,,,,,,,,,,,,,,,,,,,,,,,,,,,,,,,,,,,,,,,,,,,,,,,,,,,,,,,,,,,,,,,,,,,,,,,,,,,"[6,5,7]",,,,,,,,,,,,,,,,,,,,,,,,,,,,,,,,,,,,,1,0,1,0,1,,,,,,,,,,,,
,,5da7c6ecd11d560015a3d1da,2022-09-08_13h05.12.580,CGTgamblingSpanTasks,2022.2.1,Win32,72.04610951,,,,,,,,,,,,,,,,,,,,,,,,,,,,,,,,,,,,,,,,,,,,,,,,,,,,,,,,,,,,,,,,,,,,,,,,,,,,,,,,,,"[6,5,7]",,,,,,,,,,,,,,,,,,,,,,,,,,,,,,,,,,,,,2,0,2,0,1,,,,,,,,,,,,
,,5da7c6ecd11d560015a3d1da,2022-09-08_13h05.12.580,CGTgamblingSpanTasks,2022.2.1,Win32,72.04610951,,,,,,,,,,,,,,,,,,,,,,,,,,,,,,,,,,,,,,,,,,,,,,,,,,,,,,,,,,,,,,,0,,,,,,,,,,,,,,,,,,,,,,,,,,,,,,,,,,,,,2,,,,,,,,,,,,,,,,,,,,,,,,765,-0.063888889,-0.392592593,1,0,0,cont_buttonBS,0,1,1,1,1
,,5da7c6ecd11d560015a3d1da,2022-09-08_13h05.12.580,CGTgamblingSpanTasks,2022.2.1,Win32,72.04610951,,,,,,,,,,,,,,,,,,,,,,,,,,,,,,,,,,,,,,,,,,,,,,,,,,,,,,,,,,,,,,,,,,,,,,,,,,,,,,,,,,"[3,4,1]",,,,,,,,,,,,,,,,,,,,,,,,,,,,,,,,,,,,,0,0,0,0,1,,,,,,,,,,,,
,,5da7c6ecd11d560015a3d1da,2022-09-08_13h05.12.580,CGTgamblingSpanTasks,2022.2.1,Win32,72.04610951,,,,,,,,,,,,,,,,,,,,,,,,,,,,,,,,,,,,,,,,,,,,,,,,,,,,,,,,,,,,,,,,,,,,,,,,,,,,,,,,,,"[3,4,1]",,,,,,,,,,,,,,,,,,,,,,,,,,,,,,,,,,,,,1,0,1,0,1,,,,,,,,,,,,
,,5da7c6ecd11d560015a3d1da,2022-09-08_13h05.12.580,CGTgamblingSpanTasks,2022.2.1,Win32,72.04610951,,,,,,,,,,,,,,,,,,,,,,,,,,,,,,,,,,,,,,,,,,,,,,,,,,,,,,,,,,,,,,,,,,,,,,,,,,,,,,,,,,"[3,4,1]",,,,,,,,,,,,,,,,,,,,,,,,,,,,,,,,,,,,,2,0,2,0,1,,,,,,,,,,,,
,,5da7c6ecd11d560015a3d1da,2022-09-08_13h05.12.580,CGTgamblingSpanTasks,2022.2.1,Win32,72.04610951,,,,,,,,,,,,,,,,,,,,,,,,,,,,,,,,,,,,,,,,,,,,,,,,,,,,,,,,,,,,,,,0,,,,,,,,,,,,,,,,,,,,,,,,,,,,,,,,,,,,,3,,,,,,,,,,,,,,,,,,,,,,,,,-0.018518519,-0.411111111,1,0,0,cont_buttonBS,0,2,2,2,1
,,5da7c6ecd11d560015a3d1da,2022-09-08_13h05.12.580,CGTgamblingSpanTasks,2022.2.1,Win32,72.04610951,,,,,,,,,,,,,,,,,,,,,,,,,,,,,,,,,,,,,,,,,,,,,,,,,,,,,,,,,,,,,,,,,,,,,,,,,,,,,,,,,,"[9,4]",,,,,,,,,,,,,,,,,,,,,,,,,,,,,,,,,,,,,0,0,0,0,1,,,,,,,,,,,,
,,5da7c6ecd11d560015a3d1da,2022-09-08_13h05.12.580,CGTgamblingSpanTasks,2022.2.1,Win32,72.04610951,,,,,,,,,,,,,,,,,,,,,,,,,,,,,,,,,,,,,,,,,,,,,,,,,,,,,,,,,,,,,,,,,,,,,,,,,,,,,,,,,,"[9,4]",,,,,,,,,,,,,,,,,,,,,,,,,,,,,,,,,,,,,1,0,1,0,1,,,,,,,,,,,,
,,5da7c6ecd11d560015a3d1da,2022-09-08_13h05.12.580,CGTgamblingSpanTasks,2022.2.1,Win32,72.04610951,,,,,,,,,,,,,,,,,,,,,,,,,,,,,,,,,,,,,,,,,,,,,,,,,,,,,,,,,,,,,,,1,,,,,,,,,,,,,,,,,,,,,,,,,,,,,,,,,,,,,4,,,,,,,,,,,,,,,,,,,,,,,,49,-0.047222222,-0.406481481,1,0,0,cont_buttonBS,0,3,3,3,1
,,5da7c6ecd11d560015a3d1da,2022-09-08_13h05.12.580,CGTgamblingSpanTasks,2022.2.1,Win32,72.04610951,,,,,,,,,,,,,,,,,,,,,,,,,,,,,,,,,,,,,,,,,,,,,,,,,,,,,,,,,,,,,,,,,,,,,,,,,,,,,,,,,,"[6,8,5]",,,,,,,,,,,,,,,,,,,,,,,,,,,,,,,,,,,,,0,0,0,0,1,,,,,,,,,,,,
,,5da7c6ecd11d560015a3d1da,2022-09-08_13h05.12.580,CGTgamblingSpanTasks,2022.2.1,Win32,72.04610951,,,,,,,,,,,,,,,,,,,,,,,,,,,,,,,,,,,,,,,,,,,,,,,,,,,,,,,,,,,,,,,,,,,,,,,,,,,,,,,,,,"[6,8,5]",,,,,,,,,,,,,,,,,,,,,,,,,,,,,,,,,,,,,1,0,1,0,1,,,,,,,,,,,,
,,5da7c6ecd11d560015a3d1da,2022-09-08_13h05.12.580,CGTgamblingSpanTasks,2022.2.1,Win32,72.04610951,,,,,,,,,,,,,,,,,,,,,,,,,,,,,,,,,,,,,,,,,,,,,,,,,,,,,,,,,,,,,,,,,,,,,,,,,,,,,,,,,,"[6,8,5]",,,,,,,,,,,,,,,,,,,,,,,,,,,,,,,,,,,,,2,0,2,0,1,,,,,,,,,,,,
,,5da7c6ecd11d560015a3d1da,2022-09-08_13h05.12.580,CGTgamblingSpanTasks,2022.2.1,Win32,72.04610951,,,,,,,,,,,,,,,,,,,,,,,,,,,,,,,,,,,,,,,,,,,,,,,,,,,,,,,,,,,,,,,1,,,,,,,,,,,,,,,,,,,,,,,,,,,,,,,,,,,,,5,,,,,,,,,,,,,,,,,,,,,,,,586,-0.074074074,-0.432407407,1,0,0,cont_buttonBS,0,4,4,4,1
,,5da7c6ecd11d560015a3d1da,2022-09-08_13h05.12.580,CGTgamblingSpanTasks,2022.2.1,Win32,72.04610951,,,,,,,,,,,,,,,,,,,,,,,,,,,,,,,,,,,,,,,,,,,,,,,,,,,,,,,,,,,,,,,,,,,,,,,,,,,,,,,,,,"[7,9,3,5]",,,,,,,,,,,,,,,,,,,,,,,,,,,,,,,,,,,,,0,0,0,0,1,,,,,,,,,,,,
,,5da7c6ecd11d560015a3d1da,2022-09-08_13h05.12.580,CGTgamblingSpanTasks,2022.2.1,Win32,72.04610951,,,,,,,,,,,,,,,,,,,,,,,,,,,,,,,,,,,,,,,,,,,,,,,,,,,,,,,,,,,,,,,,,,,,,,,,,,,,,,,,,,"[7,9,3,5]",,,,,,,,,,,,,,,,,,,,,,,,,,,,,,,,,,,,,1,0,1,0,1,,,,,,,,,,,,
,,5da7c6ecd11d560015a3d1da,2022-09-08_13h05.12.580,CGTgamblingSpanTasks,2022.2.1,Win32,72.04610951,,,,,,,,,,,,,,,,,,,,,,,,,,,,,,,,,,,,,,,,,,,,,,,,,,,,,,,,,,,,,,,,,,,,,,,,,,,,,,,,,,"[7,9,3,5]",,,,,,,,,,,,,,,,,,,,,,,,,,,,,,,,,,,,,2,0,2,0,1,,,,,,,,,,,,
,,5da7c6ecd11d560015a3d1da,2022-09-08_13h05.12.580,CGTgamblingSpanTasks,2022.2.1,Win32,72.04610951,,,,,,,,,,,,,,,,,,,,,,,,,,,,,,,,,,,,,,,,,,,,,,,,,,,,,,,,,,,,,,,,,,,,,,,,,,,,,,,,,,"[7,9,3,5]",,,,,,,,,,,,,,,,,,,,,,,,,,,,,,,,,,,,,3,0,3,0,1,,,,,,,,,,,,
,,5da7c6ecd11d560015a3d1da,2022-09-08_13h05.12.580,CGTgamblingSpanTasks,2022.2.1,Win32,72.04610951,,,,,,,,,,,,,,,,,,,,,,,,,,,,,,,,,,,,,,,,,,,,,,,,,,,,,,,,,,,,,,,0,,,,,,,,,,,,,,,,,,,,,,,,,,,,,,,,,,,,,6,,,,,,,,,,,,,,,,,,,,,,,,5379,-0.065740741,-0.389814815,1,0,0,cont_buttonBS,0,5,5,5,1
,,5da7c6ecd11d560015a3d1da,2022-09-08_13h05.12.580,CGTgamblingSpanTasks,2022.2.1,Win32,72.04610951,,,,,,,,,,,,,,,,,,,,,,,,,,,,,,,,,,,,,,,,,,,,,,,,,,,,,,,,,,,,,,,,,,,,,,,,,,,,,,,,,,"[3,8,1,4]",,,,,,,,,,,,,,,,,,,,,,,,,,,,,,,,,,,,,0,0,0,0,1,,,,,,,,,,,,
,,5da7c6ecd11d560015a3d1da,2022-09-08_13h05.12.580,CGTgamblingSpanTasks,2022.2.1,Win32,72.04610951,,,,,,,,,,,,,,,,,,,,,,,,,,,,,,,,,,,,,,,,,,,,,,,,,,,,,,,,,,,,,,,,,,,,,,,,,,,,,,,,,,"[3,8,1,4]",,,,,,,,,,,,,,,,,,,,,,,,,,,,,,,,,,,,,1,0,1,0,1,,,,,,,,,,,,
,,5da7c6ecd11d560015a3d1da,2022-09-08_13h05.12.580,CGTgamblingSpanTasks,2022.2.1,Win32,72.04610951,,,,,,,,,,,,,,,,,,,,,,,,,,,,,,,,,,,,,,,,,,,,,,,,,,,,,,,,,,,,,,,,,,,,,,,,,,,,,,,,,,"[3,8,1,4]",,,,,,,,,,,,,,,,,,,,,,,,,,,,,,,,,,,,,2,0,2,0,1,,,,,,,,,,,,
,,5da7c6ecd11d560015a3d1da,2022-09-08_13h05.12.580,CGTgamblingSpanTasks,2022.2.1,Win32,72.04610951,,,,,,,,,,,,,,,,,,,,,,,,,,,,,,,,,,,,,,,,,,,,,,,,,,,,,,,,,,,,,,,,,,,,,,,,,,,,,,,,,,"[3,8,1,4]",,,,,,,,,,,,,,,,,,,,,,,,,,,,,,,,,,,,,3,0,3,0,1,,,,,,,,,,,,
,,5da7c6ecd11d560015a3d1da,2022-09-08_13h05.12.580,CGTgamblingSpanTasks,2022.2.1,Win32,72.04610951,,,,,,,,,,,,,,,,,,,,,,,,,,,,,,,,,,,,,,,,,,,,,,,,,,,,,,,,,,,,,,,0,,,,,,,,,,,,,,,,,,,,,,,,,,,,,,,,,,,,,7,,,,,,,,,,,,,,,,,,,,,,,,4138,-0.065740741,-0.389814815,1,0,0,cont_buttonBS,0,6,6,6,1
,,5da7c6ecd11d560015a3d1da,2022-09-08_13h05.12.580,CGTgamblingSpanTasks,2022.2.1,Win32,72.04610951,,,,,,,,,,,,,,,,,,,,,,,,,,,,,,,,,,,,,,,,,,,,,,,,,,,,,,,,,,,,,,,,,,,,,,,,,,,,,,,,,,"[4,8,2]",,,,,,,,,,,,,,,,,,,,,,,,,,,,,,,,,,,,,0,0,0,0,1,,,,,,,,,,,,
,,5da7c6ecd11d560015a3d1da,2022-09-08_13h05.12.580,CGTgamblingSpanTasks,2022.2.1,Win32,72.04610951,,,,,,,,,,,,,,,,,,,,,,,,,,,,,,,,,,,,,,,,,,,,,,,,,,,,,,,,,,,,,,,,,,,,,,,,,,,,,,,,,,"[4,8,2]",,,,,,,,,,,,,,,,,,,,,,,,,,,,,,,,,,,,,1,0,1,0,1,,,,,,,,,,,,
,,5da7c6ecd11d560015a3d1da,2022-09-08_13h05.12.580,CGTgamblingSpanTasks,2022.2.1,Win32,72.04610951,,,,,,,,,,,,,,,,,,,,,,,,,,,,,,,,,,,,,,,,,,,,,,,,,,,,,,,,,,,,,,,,,,,,,,,,,,,,,,,,,,"[4,8,2]",,,,,,,,,,,,,,,,,,,,,,,,,,,,,,,,,,,,,2,0,2,0,1,,,,,,,,,,,,
,,5da7c6ecd11d560015a3d1da,2022-09-08_13h05.12.580,CGTgamblingSpanTasks,2022.2.1,Win32,72.04610951,,,,,,,,,,,,,,,,,,,,,,,,,,,,,,,,,,,,,,,,,,,,,,,,,,,,,,,,,,,,,,,1,,,,,,,,,,,,,,,,,,,,,,,,,,,,,,,,,,,,,8,,,,,,,,,,,,,,,,,,,,,,,,284,-0.065740741,-0.389814815,1,0,0,cont_buttonBS,0,7,7,7,1
,,5da7c6ecd11d560015a3d1da,2022-09-08_13h05.12.580,CGTgamblingSpanTasks,2022.2.1,Win32,72.04610951,,,,,,,,,,,,,,,,,,,,,,,,,,,,,,,,,,,,,,,,,,,,,,,,,,,,,,,,,,,,,,,,,,,,,,,,,,,,,,,,,,"[2,7,5,9]",,,,,,,,,,,,,,,,,,,,,,,,,,,,,,,,,,,,,0,0,0,0,1,,,,,,,,,,,,
,,5da7c6ecd11d560015a3d1da,2022-09-08_13h05.12.580,CGTgamblingSpanTasks,2022.2.1,Win32,72.04610951,,,,,,,,,,,,,,,,,,,,,,,,,,,,,,,,,,,,,,,,,,,,,,,,,,,,,,,,,,,,,,,,,,,,,,,,,,,,,,,,,,"[2,7,5,9]",,,,,,,,,,,,,,,,,,,,,,,,,,,,,,,,,,,,,1,0,1,0,1,,,,,,,,,,,,
,,5da7c6ecd11d560015a3d1da,2022-09-08_13h05.12.580,CGTgamblingSpanTasks,2022.2.1,Win32,72.04610951,,,,,,,,,,,,,,,,,,,,,,,,,,,,,,,,,,,,,,,,,,,,,,,,,,,,,,,,,,,,,,,,,,,,,,,,,,,,,,,,,,"[2,7,5,9]",,,,,,,,,,,,,,,,,,,,,,,,,,,,,,,,,,,,,2,0,2,0,1,,,,,,,,,,,,
,,5da7c6ecd11d560015a3d1da,2022-09-08_13h05.12.580,CGTgamblingSpanTasks,2022.2.1,Win32,72.04610951,,,,,,,,,,,,,,,,,,,,,,,,,,,,,,,,,,,,,,,,,,,,,,,,,,,,,,,,,,,,,,,,,,,,,,,,,,,,,,,,,,"[2,7,5,9]",,,,,,,,,,,,,,,,,,,,,,,,,,,,,,,,,,,,,3,0,3,0,1,,,,,,,,,,,,
