initITIstatic,initITIdynamic,participant,date,expName,psychopyVersion,OS,frameRate,inst1.keys,inst1.rt,startPracResp.keys,startPracResp.rt,choice1.keys,choice1.rt,outcome,extraITI,trials.thisRepN,trials.thisTrialN,trials.thisN,trials.thisIndex,trials.ran,riskyGain,riskyLoss,alternative,isi,iti,loc,postPractResp.keys,postPractResp.rt,realloc,realChoice.keys,realChoice.rt,outcomes,choices,actualITI,init ITI,staticRDM.thisRepN,staticRDM.thisTrialN,staticRDM.thisN,staticRDM.thisIndex,staticRDM.ran,riskyoption1,riskyoption2,safeoption,ischecktrial,dynamicChoiceSetName,dynamicChoiceSetPath,bestRho,bestMu,trials_2.thisRepN,trials_2.thisTrialN,trials_2.thisN,trials_2.thisIndex,trials_2.ran,key_resp.keys,key_resp.rt,dynamicRDM.thisRepN,dynamicRDM.thisTrialN,dynamicRDM.thisN,dynamicRDM.thisIndex,dynamicRDM.ran,choiceP,easy0difficult1,stopBreak.keys,stopBreak.rt,movealong.keys,movealong.rt,startPractice.keys,startPractice.rt,textboxPractice.text,correct,mousePractice.x,mousePractice.y,mousePractice.leftButton,mousePractice.midButton,mousePractice.rightButton,mousePractice.clicked_name,trialFSPractice.thisRepN,trialFSPractice.thisTrialN,trialFSPractice.thisN,trialFSPractice.thisIndex,trialFSPractice.ran,digitSpanForward,digits,digitsReverse,digitSpanReverse,digitsReverseCorrAnswer,startFSreal.keys,startFSreal.rt,digitsForTrial,digitLoop.thisRepN,digitLoop.thisTrialN,digitLoop.thisN,digitLoop.thisIndex,digitLoop.ran,textbox.text,mouse_3.x,mouse_3.y,mouse_3.leftButton,mouse_3.midButton,mouse_3.rightButton,mouse_3.clicked_name,trialsFS.thisRepN,trialsFS.thisTrialN,trialsFS.thisN,trialsFS.thisIndex,trialsFS.ran,trialNumber,moveToBS.keys,moveToBS.rt,startBSprac.keys,startBSprac.rt,textboxPractice_2.text,mousePractice_2.x,mousePractice_2.y,mousePractice_2.leftButton,mousePractice_2.midButton,mousePractice_2.rightButton,mousePractice_2.clicked_name,trialsPracticeBS.thisRepN,trialsPracticeBS.thisTrialN,trialsPracticeBS.thisN,trialsPracticeBS.thisIndex,trialsPracticeBS.ran,startBSreal.keys,startBSreal.rt,digitLoopBS.thisRepN,digitLoopBS.thisTrialN,digitLoopBS.thisN,digitLoopBS.thisIndex,digitLoopBS.ran,textboxBS.text,mouseBS.x,mouseBS.y,mouseBS.leftButton,mouseBS.midButton,mouseBS.rightButton,mouseBS.clicked_name,trialsBS.thisRepN,trialsBS.thisTrialN,trialsBS.thisN,trialsBS.thisIndex,trialsBS.ran
"[1.5,1,1,1,1,1,1,1.5,1.5,1,1.5,1,1.5,1,1,1.5,1.5,1,1.5,1,1,1,1.5,1,1.5,1.5,1.5,1.5,1.5,1.5,1,1.5,1,1.5,1,1.5,1.5,1.5,1,1.5,1.5,1.5,1.5,1,1,1.5,1,1,1,1]","[1.5,1.5,1.5,1,1.5,1.5,1.5,1,1,1.5,1.5,1,1.5,1,1,1.5,1,1.5,1.5,1.5,1.5,1,1.5,1,1,1.5,1,1,1,1,1,1.5,1.5,1,1,1,1.5,1,1,1.5,1.5,1.5,1,1.5,1,1.5,1,1,1,1,1.5,1,1.5,1,1,1.5,1,1.5,1.5,1,1,1,1,1,1,1,1.5,1,1.5,1.5,1.5,1.5,1.5,1.5,1.5,1.5,1.5,1.5,1,1.5,1.5,1.5,1,1.5,1,1.5,1.5,1.5,1,1,1.5,1.5,1,1,1.5,1.5,1,1,1,1,1,1,1.5,1.5,1.5,1.5,1.5,1.5,1,1.5,1.5,1,1,1,1,1,1,1.5,1,1]",5ae090dadee8590001b078c8,2022-09-08_13h01.11.539,CGTgamblingSpanTasks,2022.2.1,Win32,144.0299582,,,,,,,,,,,,,,,,,,,,,,,,,,,,,,,,,,,,,,,,,,,,,,,,,,,,,,,,,,,,,,,,,,,,,,,,,,,,,,,,,,,,,,,,,,,,,,,,,,,,,,,,,,,,,,,,,,,,,,,,,,,,,,,,,,,,,,,
,,5ae090dadee8590001b078c8,2022-09-08_13h01.11.539,CGTgamblingSpanTasks,2022.2.1,Win32,144.0299582,return,5.8138,,,,,,,,,,,,,,,,,,,,,,,,,,,,,,,,,,,,,,,,,,,,,,,,,,,,,,,,,,,,,,,,,,,,,,,,,,,,,,,,,,,,,,,,,,,,,,,,,,,,,,,,,,,,,,,,,,,,,,,,,,,,,,,,,,,,,
,,5ae090dadee8590001b078c8,2022-09-08_13h01.11.539,CGTgamblingSpanTasks,2022.2.1,Win32,144.0299582,,,v,1.8301,,,,,,,,,,,,,,,,,,,,,,,,,,,,,,,,,,,,,,,,,,,,,,,,,,,,,,,,,,,,,,,,,,,,,,,,,,,,,,,,,,,,,,,,,,,,,,,,,,,,,,,,,,,,,,,,,,,,,,,,,,,,,,,,,,,
,,5ae090dadee8590001b078c8,2022-09-08_13h01.11.539,CGTgamblingSpanTasks,2022.2.1,Win32,144.0299582,,,,,n,2.0868,9.45,1.9132,0,0,0,0,1,18.23,0,9.45,2,1,1,,,,,,,,,,,,,,,,,,,,,,,,,,,,,,,,,,,,,,,,,,,,,,,,,,,,,,,,,,,,,,,,,,,,,,,,,,,,,,,,,,,,,,,,,,,,,,,,,,,,,,,,,,,,,,,,,,,,
,,5ae090dadee8590001b078c8,2022-09-08_13h01.11.539,CGTgamblingSpanTasks,2022.2.1,Win32,144.0299582,,,,,n,1.9995,35.16,2.0005,0,1,1,1,1,53.27,0,35.16,1,1.5,1,,,,,,,,,,,,,,,,,,,,,,,,,,,,,,,,,,,,,,,,,,,,,,,,,,,,,,,,,,,,,,,,,,,,,,,,,,,,,,,,,,,,,,,,,,,,,,,,,,,,,,,,,,,,,,,,,,,,
,,5ae090dadee8590001b078c8,2022-09-08_13h01.11.539,CGTgamblingSpanTasks,2022.2.1,Win32,144.0299582,,,,,n,1.3869,0,2.6131,0,2,2,2,1,8.27,0,1.15,1,1.5,2,,,,,,,,,,,,,,,,,,,,,,,,,,,,,,,,,,,,,,,,,,,,,,,,,,,,,,,,,,,,,,,,,,,,,,,,,,,,,,,,,,,,,,,,,,,,,,,,,,,,,,,,,,,,,,,,,,,,
,,5ae090dadee8590001b078c8,2022-09-08_13h01.11.539,CGTgamblingSpanTasks,2022.2.1,Win32,144.0299582,,,,,n,1.5619,40.41,2.4381,0,3,3,3,1,45.88,0,40.41,3,1,1,,,,,,,,,,,,,,,,,,,,,,,,,,,,,,,,,,,,,,,,,,,,,,,,,,,,,,,,,,,,,,,,,,,,,,,,,,,,,,,,,,,,,,,,,,,,,,,,,,,,,,,,,,,,,,,,,,,,
,,5ae090dadee8590001b078c8,2022-09-08_13h01.11.539,CGTgamblingSpanTasks,2022.2.1,Win32,144.0299582,,,,,n,1.3898,0,2.6102,0,4,4,4,1,21.56,0,11.96,1,1.5,2,,,,,,,,,,,,,,,,,,,,,,,,,,,,,,,,,,,,,,,,,,,,,,,,,,,,,,,,,,,,,,,,,,,,,,,,,,,,,,,,,,,,,,,,,,,,,,,,,,,,,,,,,,,,,,,,,,,,
,,5ae090dadee8590001b078c8,2022-09-08_13h01.11.539,CGTgamblingSpanTasks,2022.2.1,Win32,144.0299582,,,,,,,,,,,,,,,,,,,,n,2.7177,,,,,,,,,,,,,,,,,,,,,,,,,,,,,,,,,,,,,,,,,,,,,,,,,,,,,,,,,,,,,,,,,,,,,,,,,,,,,,,,,,,,,,,,,,,,,,,,,,,,,,,,,,,,,,,,,,
,,5ae090dadee8590001b078c8,2022-09-08_13h01.11.539,CGTgamblingSpanTasks,2022.2.1,Win32,144.0299582,,,,,,,,2.1469,,,,,,,,,,,,,,1,v,1.8531,13.45,1,3.6469,1.5,0,0,0,10,1,13.45,0,5.27,0,,,,,,,,,,,,,,,,,,,,,,,,,,,,,,,,,,,,,,,,,,,,,,,,,,,,,,,,,,,,,,,,,,,,,,,,,,,,,,,,,,,,,,,,,,,,,,,,,,
,,5ae090dadee8590001b078c8,2022-09-08_13h01.11.539,CGTgamblingSpanTasks,2022.2.1,Win32,144.0299582,,,,,,,,3.001,,,,,,,,,,,,,,1,n,0.999,3.13,0,4.001,1,0,1,1,47,1,0,0,3.13,1,,,,,,,,,,,,,,,,,,,,,,,,,,,,,,,,,,,,,,,,,,,,,,,,,,,,,,,,,,,,,,,,,,,,,,,,,,,,,,,,,,,,,,,,,,,,,,,,,,
,,5ae090dadee8590001b078c8,2022-09-08_13h01.11.539,CGTgamblingSpanTasks,2022.2.1,Win32,144.0299582,,,,,,,,3.001,,,,,,,,,,,,,,2,n,0.999,17.73,1,4.001,1,0,2,2,2,1,17.73,0,3.13,0,,,,,,,,,,,,,,,,,,,,,,,,,,,,,,,,,,,,,,,,,,,,,,,,,,,,,,,,,,,,,,,,,,,,,,,,,,,,,,,,,,,,,,,,,,,,,,,,,,
,,5ae090dadee8590001b078c8,2022-09-08_13h01.11.539,CGTgamblingSpanTasks,2022.2.1,Win32,144.0299582,,,,,,,,2.9964,,,,,,,,,,,,,,2,v,1.0036,10.27,0,3.9964,1,0,3,3,35,1,15.47,0,10.27,0,,,,,,,,,,,,,,,,,,,,,,,,,,,,,,,,,,,,,,,,,,,,,,,,,,,,,,,,,,,,,,,,,,,,,,,,,,,,,,,,,,,,,,,,,,,,,,,,,,
,,5ae090dadee8590001b078c8,2022-09-08_13h01.11.539,CGTgamblingSpanTasks,2022.2.1,Win32,144.0299582,,,,,,,,3.2057,,,,,,,,,,,,,,1,v,0.7943,0,1,4.2057,1,0,4,4,40,1,10.35,0,0,1,,,,,,,,,,,,,,,,,,,,,,,,,,,,,,,,,,,,,,,,,,,,,,,,,,,,,,,,,,,,,,,,,,,,,,,,,,,,,,,,,,,,,,,,,,,,,,,,,,
,,5ae090dadee8590001b078c8,2022-09-08_13h01.11.539,CGTgamblingSpanTasks,2022.2.1,Win32,144.0299582,,,,,,,,2.8289,,,,,,,,,,,,,,1,v,1.1711,19.86,1,3.8289,1,0,5,5,11,1,19.86,0,8.07,0,,,,,,,,,,,,,,,,,,,,,,,,,,,,,,,,,,,,,,,,,,,,,,,,,,,,,,,,,,,,,,,,,,,,,,,,,,,,,,,,,,,,,,,,,,,,,,,,,,
,,5ae090dadee8590001b078c8,2022-09-08_13h01.11.539,CGTgamblingSpanTasks,2022.2.1,Win32,144.0299582,,,,,,,,2.789,,,,,,,,,,,,,,1,v,1.211,16,1,3.789,1,0,6,6,4,1,16,0,4,0,,,,,,,,,,,,,,,,,,,,,,,,,,,,,,,,,,,,,,,,,,,,,,,,,,,,,,,,,,,,,,,,,,,,,,,,,,,,,,,,,,,,,,,,,,,,,,,,,,
,,5ae090dadee8590001b078c8,2022-09-08_13h01.11.539,CGTgamblingSpanTasks,2022.2.1,Win32,144.0299582,,,,,,,,2.2597,,,,,,,,,,,,,,2,v,1.7403,5.82,0,3.7597,1.5,0,7,7,16,1,12.36,0,5.82,0,,,,,,,,,,,,,,,,,,,,,,,,,,,,,,,,,,,,,,,,,,,,,,,,,,,,,,,,,,,,,,,,,,,,,,,,,,,,,,,,,,,,,,,,,,,,,,,,,,
,,5ae090dadee8590001b078c8,2022-09-08_13h01.11.539,CGTgamblingSpanTasks,2022.2.1,Win32,144.0299582,,,,,,,,3.0911,,,,,,,,,,,,,,1,v,0.9089,0,1,4.5911,1.5,0,8,8,0,1,20.03,0,1.99,0,,,,,,,,,,,,,,,,,,,,,,,,,,,,,,,,,,,,,,,,,,,,,,,,,,,,,,,,,,,,,,,,,,,,,,,,,,,,,,,,,,,,,,,,,,,,,,,,,,
,,5ae090dadee8590001b078c8,2022-09-08_13h01.11.539,CGTgamblingSpanTasks,2022.2.1,Win32,144.0299582,,,,,,,,2.8821,,,,,,,,,,,,,,1,v,1.1179,0,1,3.8821,1,0,9,9,12,1,13.04,0,5.48,0,,,,,,,,,,,,,,,,,,,,,,,,,,,,,,,,,,,,,,,,,,,,,,,,,,,,,,,,,,,,,,,,,,,,,,,,,,,,,,,,,,,,,,,,,,,,,,,,,,
,,5ae090dadee8590001b078c8,2022-09-08_13h01.11.539,CGTgamblingSpanTasks,2022.2.1,Win32,144.0299582,,,,,,,,3.0696,,,,,,,,,,,,,,2,n,0.9304,18.77,1,4.5696,1.5,0,10,10,15,1,18.77,0,8.61,0,,,,,,,,,,,,,,,,,,,,,,,,,,,,,,,,,,,,,,,,,,,,,,,,,,,,,,,,,,,,,,,,,,,,,,,,,,,,,,,,,,,,,,,,,,,,,,,,,,
,,5ae090dadee8590001b078c8,2022-09-08_13h01.11.539,CGTgamblingSpanTasks,2022.2.1,Win32,144.0299582,,,,,,,,3.0752,,,,,,,,,,,,,,2,v,0.9248,6.4,0,4.0752,1,0,11,11,26,1,11.2,0,6.4,0,,,,,,,,,,,,,,,,,,,,,,,,,,,,,,,,,,,,,,,,,,,,,,,,,,,,,,,,,,,,,,,,,,,,,,,,,,,,,,,,,,,,,,,,,,,,,,,,,,
,,5ae090dadee8590001b078c8,2022-09-08_13h01.11.539,CGTgamblingSpanTasks,2022.2.1,Win32,144.0299582,,,,,,,,2.9902,,,,,,,,,,,,,,2,v,1.0098,10.46,0,4.4902,1.5,0,12,12,39,1,15.09,0,10.46,0,,,,,,,,,,,,,,,,,,,,,,,,,,,,,,,,,,,,,,,,,,,,,,,,,,,,,,,,,,,,,,,,,,,,,,,,,,,,,,,,,,,,,,,,,,,,,,,,,,
,,5ae090dadee8590001b078c8,2022-09-08_13h01.11.539,CGTgamblingSpanTasks,2022.2.1,Win32,144.0299582,,,,,,,,3.2731,,,,,,,,,,,,,,2,n,0.7269,14.26,1,4.2731,1,0,13,13,41,1,14.26,0,0,1,,,,,,,,,,,,,,,,,,,,,,,,,,,,,,,,,,,,,,,,,,,,,,,,,,,,,,,,,,,,,,,,,,,,,,,,,,,,,,,,,,,,,,,,,,,,,,,,,,
,,5ae090dadee8590001b078c8,2022-09-08_13h01.11.539,CGTgamblingSpanTasks,2022.2.1,Win32,144.0299582,,,,,,,,2.8895,,,,,,,,,,,,,,2,v,1.1105,10.68,0,3.8895,1,0,14,14,48,1,10.68,0,10.68,1,,,,,,,,,,,,,,,,,,,,,,,,,,,,,,,,,,,,,,,,,,,,,,,,,,,,,,,,,,,,,,,,,,,,,,,,,,,,,,,,,,,,,,,,,,,,,,,,,,
,,5ae090dadee8590001b078c8,2022-09-08_13h01.11.539,CGTgamblingSpanTasks,2022.2.1,Win32,144.0299582,,,,,,,,2.8465,,,,,,,,,,,,,,1,n,1.1535,10.02,0,4.3465,1.5,0,15,15,31,1,15.96,0,10.02,0,,,,,,,,,,,,,,,,,,,,,,,,,,,,,,,,,,,,,,,,,,,,,,,,,,,,,,,,,,,,,,,,,,,,,,,,,,,,,,,,,,,,,,,,,,,,,,,,,,
,,5ae090dadee8590001b078c8,2022-09-08_13h01.11.539,CGTgamblingSpanTasks,2022.2.1,Win32,144.0299582,,,,,,,,3.0628,,,,,,,,,,,,,,2,n,0.9372,0,1,4.5628,1.5,0,16,16,5,1,22.97,0,6.51,0,,,,,,,,,,,,,,,,,,,,,,,,,,,,,,,,,,,,,,,,,,,,,,,,,,,,,,,,,,,,,,,,,,,,,,,,,,,,,,,,,,,,,,,,,,,,,,,,,,
,,5ae090dadee8590001b078c8,2022-09-08_13h01.11.539,CGTgamblingSpanTasks,2022.2.1,Win32,144.0299582,,,,,,,,2.6156,,,,,,,,,,,,,,1,v,1.3844,0,1,3.6156,1,0,17,17,13,1,19.28,0,8.36,0,,,,,,,,,,,,,,,,,,,,,,,,,,,,,,,,,,,,,,,,,,,,,,,,,,,,,,,,,,,,,,,,,,,,,,,,,,,,,,,,,,,,,,,,,,,,,,,,,,
,,5ae090dadee8590001b078c8,2022-09-08_13h01.11.539,CGTgamblingSpanTasks,2022.2.1,Win32,144.0299582,,,,,,,,3.0568,,,,,,,,,,,,,,2,v,0.9432,10.25,0,4.5568,1.5,0,18,18,46,1,0,0,10.25,1,,,,,,,,,,,,,,,,,,,,,,,,,,,,,,,,,,,,,,,,,,,,,,,,,,,,,,,,,,,,,,,,,,,,,,,,,,,,,,,,,,,,,,,,,,,,,,,,,,
,,5ae090dadee8590001b078c8,2022-09-08_13h01.11.539,CGTgamblingSpanTasks,2022.2.1,Win32,144.0299582,,,,,,,,2.7554,,,,,,,,,,,,,,1,n,1.2446,9.03,0,3.7554,1,0,19,19,19,1,17.94,0,9.03,0,,,,,,,,,,,,,,,,,,,,,,,,,,,,,,,,,,,,,,,,,,,,,,,,,,,,,,,,,,,,,,,,,,,,,,,,,,,,,,,,,,,,,,,,,,,,,,,,,,
,,5ae090dadee8590001b078c8,2022-09-08_13h01.11.539,CGTgamblingSpanTasks,2022.2.1,Win32,144.0299582,,,,,,,,2.6064,,,,,,,,,,,,,,2,n,1.3936,17,1,3.6064,1,0,20,20,25,1,17,0,9.5,0,,,,,,,,,,,,,,,,,,,,,,,,,,,,,,,,,,,,,,,,,,,,,,,,,,,,,,,,,,,,,,,,,,,,,,,,,,,,,,,,,,,,,,,,,,,,,,,,,,
,,5ae090dadee8590001b078c8,2022-09-08_13h01.11.539,CGTgamblingSpanTasks,2022.2.1,Win32,144.0299582,,,,,,,,2.6181,,,,,,,,,,,,,,2,v,1.3819,6.81,0,3.6181,1,0,21,21,34,1,10.39,0,6.81,0,,,,,,,,,,,,,,,,,,,,,,,,,,,,,,,,,,,,,,,,,,,,,,,,,,,,,,,,,,,,,,,,,,,,,,,,,,,,,,,,,,,,,,,,,,,,,,,,,,
,,5ae090dadee8590001b078c8,2022-09-08_13h01.11.539,CGTgamblingSpanTasks,2022.2.1,Win32,144.0299582,,,,,,,,2.9862,,,,,,,,,,,,,,1,v,1.0138,0,1,4.4862,1.5,0,22,22,1,1,28.21,0,3.89,0,,,,,,,,,,,,,,,,,,,,,,,,,,,,,,,,,,,,,,,,,,,,,,,,,,,,,,,,,,,,,,,,,,,,,,,,,,,,,,,,,,,,,,,,,,,,,,,,,,
,,5ae090dadee8590001b078c8,2022-09-08_13h01.11.539,CGTgamblingSpanTasks,2022.2.1,Win32,144.0299582,,,,,,,,2.8515,,,,,,,,,,,,,,1,v,1.1485,6.99,1,3.8515,1,0,23,23,43,1,16.11,6.99,6.99,1,,,,,,,,,,,,,,,,,,,,,,,,,,,,,,,,,,,,,,,,,,,,,,,,,,,,,,,,,,,,,,,,,,,,,,,,,,,,,,,,,,,,,,,,,,,,,,,,,,
,,5ae090dadee8590001b078c8,2022-09-08_13h01.11.539,CGTgamblingSpanTasks,2022.2.1,Win32,144.0299582,,,,,,,,2.6239,,,,,,,,,,,,,,1,n,1.3761,6.53,0,4.1239,1.5,0,24,24,28,1,10.95,0,6.53,0,,,,,,,,,,,,,,,,,,,,,,,,,,,,,,,,,,,,,,,,,,,,,,,,,,,,,,,,,,,,,,,,,,,,,,,,,,,,,,,,,,,,,,,,,,,,,,,,,,
,,5ae090dadee8590001b078c8,2022-09-08_13h01.11.539,CGTgamblingSpanTasks,2022.2.1,Win32,144.0299582,,,,,,,,2.9547,,,,,,,,,,,,,,2,n,1.0453,25.2,1,4.4547,1.5,0,25,25,3,1,25.2,0,5.4,0,,,,,,,,,,,,,,,,,,,,,,,,,,,,,,,,,,,,,,,,,,,,,,,,,,,,,,,,,,,,,,,,,,,,,,,,,,,,,,,,,,,,,,,,,,,,,,,,,,
,,5ae090dadee8590001b078c8,2022-09-08_13h01.11.539,CGTgamblingSpanTasks,2022.2.1,Win32,144.0299582,,,,,,,,2.8589,,,,,,,,,,,,,,2,v,1.1411,9.87,0,4.3589,1.5,0,26,26,29,1,16.26,0,9.87,0,,,,,,,,,,,,,,,,,,,,,,,,,,,,,,,,,,,,,,,,,,,,,,,,,,,,,,,,,,,,,,,,,,,,,,,,,,,,,,,,,,,,,,,,,,,,,,,,,,
,,5ae090dadee8590001b078c8,2022-09-08_13h01.11.539,CGTgamblingSpanTasks,2022.2.1,Win32,144.0299582,,,,,,,,3.2294,,,,,,,,,,,,,,2,v,0.7706,10.15,0,4.7294,1.5,0,27,27,33,1,15.7,0,10.15,0,,,,,,,,,,,,,,,,,,,,,,,,,,,,,,,,,,,,,,,,,,,,,,,,,,,,,,,,,,,,,,,,,,,,,,,,,,,,,,,,,,,,,,,,,,,,,,,,,,
,,5ae090dadee8590001b078c8,2022-09-08_13h01.11.539,CGTgamblingSpanTasks,2022.2.1,Win32,144.0299582,,,,,,,,2.7281,,,,,,,,,,,,,,1,v,1.2719,0,1,4.2281,1.5,0,28,28,17,1,18.33,0,8.84,0,,,,,,,,,,,,,,,,,,,,,,,,,,,,,,,,,,,,,,,,,,,,,,,,,,,,,,,,,,,,,,,,,,,,,,,,,,,,,,,,,,,,,,,,,,,,,,,,,,
,,5ae090dadee8590001b078c8,2022-09-08_13h01.11.539,CGTgamblingSpanTasks,2022.2.1,Win32,144.0299582,,,,,,,,2.8755,,,,,,,,,,,,,,1,v,1.1245,7.73,1,4.3755,1.5,0,29,29,44,1,13.1,7.73,4.68,1,,,,,,,,,,,,,,,,,,,,,,,,,,,,,,,,,,,,,,,,,,,,,,,,,,,,,,,,,,,,,,,,,,,,,,,,,,,,,,,,,,,,,,,,,,,,,,,,,,
,,5ae090dadee8590001b078c8,2022-09-08_13h01.11.539,CGTgamblingSpanTasks,2022.2.1,Win32,144.0299582,,,,,,,,2.8932,,,,,,,,,,,,,,2,v,1.1068,6.29,0,3.8932,1,0,30,30,24,1,11.43,0,6.29,0,,,,,,,,,,,,,,,,,,,,,,,,,,,,,,,,,,,,,,,,,,,,,,,,,,,,,,,,,,,,,,,,,,,,,,,,,,,,,,,,,,,,,,,,,,,,,,,,,,
,,5ae090dadee8590001b078c8,2022-09-08_13h01.11.539,CGTgamblingSpanTasks,2022.2.1,Win32,144.0299582,,,,,,,,3.2481,,,,,,,,,,,,,,2,n,0.7519,0,1,4.7481,1.5,0,31,31,42,1,19.86,0,0,1,,,,,,,,,,,,,,,,,,,,,,,,,,,,,,,,,,,,,,,,,,,,,,,,,,,,,,,,,,,,,,,,,,,,,,,,,,,,,,,,,,,,,,,,,,,,,,,,,,
,,5ae090dadee8590001b078c8,2022-09-08_13h01.11.539,CGTgamblingSpanTasks,2022.2.1,Win32,144.0299582,,,,,,,,3.0203,,,,,,,,,,,,,,2,v,0.9797,6.63,0,4.0203,1,0,32,32,30,1,10.73,0,6.63,0,,,,,,,,,,,,,,,,,,,,,,,,,,,,,,,,,,,,,,,,,,,,,,,,,,,,,,,,,,,,,,,,,,,,,,,,,,,,,,,,,,,,,,,,,,,,,,,,,,
,,5ae090dadee8590001b078c8,2022-09-08_13h01.11.539,CGTgamblingSpanTasks,2022.2.1,Win32,144.0299582,,,,,,,,3.049,,,,,,,,,,,,,,1,v,0.951,14.72,1,4.549,1.5,0,33,33,6,1,14.72,0,4.64,0,,,,,,,,,,,,,,,,,,,,,,,,,,,,,,,,,,,,,,,,,,,,,,,,,,,,,,,,,,,,,,,,,,,,,,,,,,,,,,,,,,,,,,,,,,,,,,,,,,
,,5ae090dadee8590001b078c8,2022-09-08_13h01.11.539,CGTgamblingSpanTasks,2022.2.1,Win32,144.0299582,,,,,,,,2.7734,,,,,,,,,,,,,,1,n,1.2266,6.08,0,3.7734,1,0,34,34,20,1,11.84,0,6.08,0,,,,,,,,,,,,,,,,,,,,,,,,,,,,,,,,,,,,,,,,,,,,,,,,,,,,,,,,,,,,,,,,,,,,,,,,,,,,,,,,,,,,,,,,,,,,,,,,,,
,,5ae090dadee8590001b078c8,2022-09-08_13h01.11.539,CGTgamblingSpanTasks,2022.2.1,Win32,144.0299582,,,,,,,,3.0877,,,,,,,,,,,,,,1,v,0.9123,20.53,1,4.5877,1.5,0,35,35,9,1,20.53,0,7.73,0,,,,,,,,,,,,,,,,,,,,,,,,,,,,,,,,,,,,,,,,,,,,,,,,,,,,,,,,,,,,,,,,,,,,,,,,,,,,,,,,,,,,,,,,,,,,,,,,,,
,,5ae090dadee8590001b078c8,2022-09-08_13h01.11.539,CGTgamblingSpanTasks,2022.2.1,Win32,144.0299582,,,,,,,,3.096,,,,,,,,,,,,,,2,v,0.904,6.88,0,4.596,1.5,0,36,36,36,1,10.24,0,6.88,0,,,,,,,,,,,,,,,,,,,,,,,,,,,,,,,,,,,,,,,,,,,,,,,,,,,,,,,,,,,,,,,,,,,,,,,,,,,,,,,,,,,,,,,,,,,,,,,,,,
,,5ae090dadee8590001b078c8,2022-09-08_13h01.11.539,CGTgamblingSpanTasks,2022.2.1,Win32,144.0299582,,,,,,,,2.9083,,,,,,,,,,,,,,2,v,1.0917,9.92,0,4.4083,1.5,0,37,37,49,1,6.79,0,9.92,1,,,,,,,,,,,,,,,,,,,,,,,,,,,,,,,,,,,,,,,,,,,,,,,,,,,,,,,,,,,,,,,,,,,,,,,,,,,,,,,,,,,,,,,,,,,,,,,,,,
,,5ae090dadee8590001b078c8,2022-09-08_13h01.11.539,CGTgamblingSpanTasks,2022.2.1,Win32,144.0299582,,,,,,,,2.9268,,,,,,,,,,,,,,1,n,1.0732,10.37,0,3.9268,1,0,38,38,37,1,15.27,0,10.37,0,,,,,,,,,,,,,,,,,,,,,,,,,,,,,,,,,,,,,,,,,,,,,,,,,,,,,,,,,,,,,,,,,,,,,,,,,,,,,,,,,,,,,,,,,,,,,,,,,,
,,5ae090dadee8590001b078c8,2022-09-08_13h01.11.539,CGTgamblingSpanTasks,2022.2.1,Win32,144.0299582,,,,,,,,2.6945,,,,,,,,,,,,,,1,n,1.3055,9.2,0,4.1945,1.5,0,39,39,21,1,17.59,0,9.2,0,,,,,,,,,,,,,,,,,,,,,,,,,,,,,,,,,,,,,,,,,,,,,,,,,,,,,,,,,,,,,,,,,,,,,,,,,,,,,,,,,,,,,,,,,,,,,,,,,,
,,5ae090dadee8590001b078c8,2022-09-08_13h01.11.539,CGTgamblingSpanTasks,2022.2.1,Win32,144.0299582,,,,,,,,2.557,,,,,,,,,,,,,,1,n,1.443,6.19,0,4.057,1.5,0,40,40,22,1,11.62,0,6.19,0,,,,,,,,,,,,,,,,,,,,,,,,,,,,,,,,,,,,,,,,,,,,,,,,,,,,,,,,,,,,,,,,,,,,,,,,,,,,,,,,,,,,,,,,,,,,,,,,,,
,,5ae090dadee8590001b078c8,2022-09-08_13h01.11.539,CGTgamblingSpanTasks,2022.2.1,Win32,144.0299582,,,,,,,,3.0027,,,,,,,,,,,,,,1,v,0.9973,21.32,1,4.5027,1.5,0,41,41,7,1,21.32,0,7.34,0,,,,,,,,,,,,,,,,,,,,,,,,,,,,,,,,,,,,,,,,,,,,,,,,,,,,,,,,,,,,,,,,,,,,,,,,,,,,,,,,,,,,,,,,,,,,,,,,,,
,,5ae090dadee8590001b078c8,2022-09-08_13h01.11.539,CGTgamblingSpanTasks,2022.2.1,Win32,144.0299582,,,,,,,,2.6083,,,,,,,,,,,,,,2,v,1.3917,5.96,0,4.1083,1.5,0,42,42,18,1,12.08,0,5.96,0,,,,,,,,,,,,,,,,,,,,,,,,,,,,,,,,,,,,,,,,,,,,,,,,,,,,,,,,,,,,,,,,,,,,,,,,,,,,,,,,,,,,,,,,,,,,,,,,,,
,,5ae090dadee8590001b078c8,2022-09-08_13h01.11.539,CGTgamblingSpanTasks,2022.2.1,Win32,144.0299582,,,,,,,,2.9994,,,,,,,,,,,,,,1,n,1.0006,7.55,0,3.9994,1,0,43,43,45,1,0,0,7.55,1,,,,,,,,,,,,,,,,,,,,,,,,,,,,,,,,,,,,,,,,,,,,,,,,,,,,,,,,,,,,,,,,,,,,,,,,,,,,,,,,,,,,,,,,,,,,,,,,,,
,,5ae090dadee8590001b078c8,2022-09-08_13h01.11.539,CGTgamblingSpanTasks,2022.2.1,Win32,144.0299582,,,,,,,,3.0347,,,,,,,,,,,,,,1,v,0.9653,12.68,1,4.0347,1,0,44,44,14,1,12.68,0,5.66,0,,,,,,,,,,,,,,,,,,,,,,,,,,,,,,,,,,,,,,,,,,,,,,,,,,,,,,,,,,,,,,,,,,,,,,,,,,,,,,,,,,,,,,,,,,,,,,,,,,
,,5ae090dadee8590001b078c8,2022-09-08_13h01.11.539,CGTgamblingSpanTasks,2022.2.1,Win32,144.0299582,,,,,,,,2.896,,,,,,,,,,,,,,1,n,1.104,6.94,0,4.396,1.5,0,45,45,38,1,10.12,0,6.94,0,,,,,,,,,,,,,,,,,,,,,,,,,,,,,,,,,,,,,,,,,,,,,,,,,,,,,,,,,,,,,,,,,,,,,,,,,,,,,,,,,,,,,,,,,,,,,,,,,,
,,5ae090dadee8590001b078c8,2022-09-08_13h01.11.539,CGTgamblingSpanTasks,2022.2.1,Win32,144.0299582,,,,,,,,2.8454,,,,,,,,,,,,,,2,v,1.1546,9.36,0,3.8454,1,0,46,46,23,1,17.28,0,9.36,0,,,,,,,,,,,,,,,,,,,,,,,,,,,,,,,,,,,,,,,,,,,,,,,,,,,,,,,,,,,,,,,,,,,,,,,,,,,,,,,,,,,,,,,,,,,,,,,,,,
,,5ae090dadee8590001b078c8,2022-09-08_13h01.11.539,CGTgamblingSpanTasks,2022.2.1,Win32,144.0299582,,,,,,,,2.8867,,,,,,,,,,,,,,2,v,1.1133,6.73,0,3.8867,1,0,47,47,32,1,10.55,0,6.73,0,,,,,,,,,,,,,,,,,,,,,,,,,,,,,,,,,,,,,,,,,,,,,,,,,,,,,,,,,,,,,,,,,,,,,,,,,,,,,,,,,,,,,,,,,,,,,,,,,,
,,5ae090dadee8590001b078c8,2022-09-08_13h01.11.539,CGTgamblingSpanTasks,2022.2.1,Win32,144.0299582,,,,,,,,2.8399,,,,,,,,,,,,,,1,v,1.1601,13.94,1,3.8399,1,0,48,48,8,1,13.94,0,5.03,0,,,,,,,,,,,,,,,,,,,,,,,,,,,,,,,,,,,,,,,,,,,,,,,,,,,,,,,,,,,,,,,,,,,,,,,,,,,,,,,,,,,,,,,,,,,,,,,,,,
,,5ae090dadee8590001b078c8,2022-09-08_13h01.11.539,CGTgamblingSpanTasks,2022.2.1,Win32,144.0299582,,,,,,,,2.4984,,,,,,,,,,,,,,1,n,1.5016,9.7,0,3.4984,1,0,49,49,27,1,16.6,0,9.7,0,,,,,,,,,,,,,,,,,,,,,,,,,,,,,,,,,,,,,,,,,,,,,,,,,,,,,,,,,,,,,,,,,,,,,,,,,,,,,,,,,,,,,,,,,,,,,,,,,,
,,5ae090dadee8590001b078c8,2022-09-08_13h01.11.539,CGTgamblingSpanTasks,2022.2.1,Win32,144.0299582,,,,,,,,,,,,,,,,,,,,,,,,,,,,,,,,,,,,,,bespoke_choiceset_rhoInd071_muInd188.csv,bespoke_choicesets/bespoke_choiceset_rhoInd071_muInd188.csv,71,188,0,0,0,0,1,,,,,,,,,,,,,,,,,,,,,,,,,,,,,,,,,,,,,,,,,,,,,,,,,,,,,,,,,,,,,,,,,,,,,,,,,,,,,,,,,,,,,,,,,
,,5ae090dadee8590001b078c8,2022-09-08_13h01.11.539,CGTgamblingSpanTasks,2022.2.1,Win32,144.0299582,,,,,,,,,,,,,,,,,,,,,,,,,,,,,,,,,,,,,,,,,,,,,,,,,,,,,,,,,,,,,,,,,,,,,,,,,,,,,,,,,,,,,,,,,,,,,,,,,,,,,,,,,,,,,,,,,,,,,,,,,,,,,,,,,,,,,,,
,,5ae090dadee8590001b078c8,2022-09-08_13h01.11.539,CGTgamblingSpanTasks,2022.2.1,Win32,144.0299582,,,,,,,,,,,,,,,,,,,,,,,,,,,,,,,,,,,,,,,,,,,,,,,n,13.5999,,,,,,,,,,,,,,,,,,,,,,,,,,,,,,,,,,,,,,,,,,,,,,,,,,,,,,,,,,,,,,,,,,,,,,,,,,,,,,,,,,,,,,,
,,5ae090dadee8590001b078c8,2022-09-08_13h01.11.539,CGTgamblingSpanTasks,2022.2.1,Win32,144.0299582,,,,,,,,2.6301,,,,,,,,,,,,,,1,v,1.3699,0,1,4.1301,1.5,,,,,,27.39221343,0,2.743407746,,,,,,,,,,,,,0,0,0,47,1,0.49752044,1,,,,,,,,,,,,,,,,,,,,,,,,,,,,,,,,,,,,,,,,,,,,,,,,,,,,,,,,,,,,,,,,,,,,,,,,,,,,,,,,
,,5ae090dadee8590001b078c8,2022-09-08_13h01.11.539,CGTgamblingSpanTasks,2022.2.1,Win32,144.0299582,,,,,,,,3.1602,,,,,,,,,,,,,,1,v,0.8398,17.4320197,1,4.6602,1.5,,,,,,17.4320197,0,1.448620949,,,,,,,,,,,,,0,1,1,30,1,0.545178213,1,,,,,,,,,,,,,,,,,,,,,,,,,,,,,,,,,,,,,,,,,,,,,,,,,,,,,,,,,,,,,,,,,,,,,,,,,,,,,,,,
,,5ae090dadee8590001b078c8,2022-09-08_13h01.11.539,CGTgamblingSpanTasks,2022.2.1,Win32,144.0299582,,,,,,,,3.1118,,,,,,,,,,,,,,1,v,0.8882,0,1,4.6118,1.5,,,,,,27.88092897,0,2.771762788,,,,,,,,,,,,,0,2,2,117,1,0.499466648,1,,,,,,,,,,,,,,,,,,,,,,,,,,,,,,,,,,,,,,,,,,,,,,,,,,,,,,,,,,,,,,,,,,,,,,,,,,,,,,,,
,,5ae090dadee8590001b078c8,2022-09-08_13h01.11.539,CGTgamblingSpanTasks,2022.2.1,Win32,144.0299582,,,,,,,,2.9636,,,,,,,,,,,,,,1,n,1.0364,11.61882862,0,3.9636,1,,,,,,4.022743614,0,11.61882862,,,,,,,,,,,,,0,3,3,38,1,0.011499376,0,,,,,,,,,,,,,,,,,,,,,,,,,,,,,,,,,,,,,,,,,,,,,,,,,,,,,,,,,,,,,,,,,,,,,,,,,,,,,,,,
,,5ae090dadee8590001b078c8,2022-09-08_13h01.11.539,CGTgamblingSpanTasks,2022.2.1,Win32,144.0299582,,,,,,,,3.1998,,,,,,,,,,,,,,1,v,0.8002,0,1,4.6998,1.5,,,,,,14.3363647,0,1.396635362,,,,,,,,,,,,,0,4,4,78,1,0.504775474,1,,,,,,,,,,,,,,,,,,,,,,,,,,,,,,,,,,,,,,,,,,,,,,,,,,,,,,,,,,,,,,,,,,,,,,,,,,,,,,,,
,,5ae090dadee8590001b078c8,2022-09-08_13h01.11.539,CGTgamblingSpanTasks,2022.2.1,Win32,144.0299582,,,,,,,,3.0437,,,,,,,,,,,,,,1,n,0.9563,4.904872644,0,4.5437,1.5,,,,,,4.698775357,0,4.904872644,,,,,,,,,,,,,0,5,5,75,1,0.028064484,0,,,,,,,,,,,,,,,,,,,,,,,,,,,,,,,,,,,,,,,,,,,,,,,,,,,,,,,,,,,,,,,,,,,,,,,,,,,,,,,,
,,5ae090dadee8590001b078c8,2022-09-08_13h01.11.539,CGTgamblingSpanTasks,2022.2.1,Win32,144.0299582,,,,,,,,3.079,,,,,,,,,,,,,,2,n,0.921,26.36733703,1,4.579,1.5,,,,,,26.36733703,0,2.201057101,,,,,,,,,,,,,0,6,6,90,1,0.544064207,1,,,,,,,,,,,,,,,,,,,,,,,,,,,,,,,,,,,,,,,,,,,,,,,,,,,,,,,,,,,,,,,,,,,,,,,,,,,,,,,,
,,5ae090dadee8590001b078c8,2022-09-08_13h01.11.539,CGTgamblingSpanTasks,2022.2.1,Win32,144.0299582,,,,,,,,2.5286,,,,,,,,,,,,,,2,v,1.4714,11.39288827,0,3.5286,1,,,,,,20.97851654,0,11.39288827,,,,,,,,,,,,,0,7,7,2,1,0.088791079,0,,,,,,,,,,,,,,,,,,,,,,,,,,,,,,,,,,,,,,,,,,,,,,,,,,,,,,,,,,,,,,,,,,,,,,,,,,,,,,,,
,,5ae090dadee8590001b078c8,2022-09-08_13h01.11.539,CGTgamblingSpanTasks,2022.2.1,Win32,144.0299582,,,,,,,,2.7445,,,,,,,,,,,,,,1,n,1.2555,6.781500919,0,3.7445,1,,,,,,8.363821911,0,6.781500919,,,,,,,,,,,,,0,8,8,61,1,0.044227959,0,,,,,,,,,,,,,,,,,,,,,,,,,,,,,,,,,,,,,,,,,,,,,,,,,,,,,,,,,,,,,,,,,,,,,,,,,,,,,,,,
,,5ae090dadee8590001b078c8,2022-09-08_13h01.11.539,CGTgamblingSpanTasks,2022.2.1,Win32,144.0299582,,,,,,,,3.172,,,,,,,,,,,,,,1,v,0.828,0,1,4.672,1.5,,,,,,18.16238569,0,1.540604093,,,,,,,,,,,,,0,9,9,34,1,0.540092491,1,,,,,,,,,,,,,,,,,,,,,,,,,,,,,,,,,,,,,,,,,,,,,,,,,,,,,,,,,,,,,,,,,,,,,,,,,,,,,,,,
,,5ae090dadee8590001b078c8,2022-09-08_13h01.11.539,CGTgamblingSpanTasks,2022.2.1,Win32,144.0299582,,,,,,,,3.1527,,,,,,,,,,,,,,2,n,0.8473,0,1,4.6527,1.5,,,,,,21.17800335,0,0.059830985,,,,,,,,,,,,,0,10,10,67,1,0.908594974,0,,,,,,,,,,,,,,,,,,,,,,,,,,,,,,,,,,,,,,,,,,,,,,,,,,,,,,,,,,,,,,,,,,,,,,,,,,,,,,,,
,,5ae090dadee8590001b078c8,2022-09-08_13h01.11.539,CGTgamblingSpanTasks,2022.2.1,Win32,144.0299582,,,,,,,,3.0252,,,,,,,,,,,,,,1,v,0.9748,0,1,4.0252,1,,,,,,25.21882231,0,0.085746782,,,,,,,,,,,,,0,11,11,64,1,0.90272076,0,,,,,,,,,,,,,,,,,,,,,,,,,,,,,,,,,,,,,,,,,,,,,,,,,,,,,,,,,,,,,,,,,,,,,,,,,,,,,,,,
,,5ae090dadee8590001b078c8,2022-09-08_13h01.11.539,CGTgamblingSpanTasks,2022.2.1,Win32,144.0299582,,,,,,,,2.7706,,,,,,,,,,,,,,1,n,1.2294,11.41737518,0,4.2706,1.5,,,,,,18.11029021,0,11.41737518,,,,,,,,,,,,,0,12,12,48,1,0.069445859,0,,,,,,,,,,,,,,,,,,,,,,,,,,,,,,,,,,,,,,,,,,,,,,,,,,,,,,,,,,,,,,,,,,,,,,,,,,,,,,,,
,,5ae090dadee8590001b078c8,2022-09-08_13h01.11.539,CGTgamblingSpanTasks,2022.2.1,Win32,144.0299582,,,,,,,,3.1979,,,,,,,,,,,,,,2,n,0.8021,0,1,4.1979,1,,,,,,27.93093084,0,0.050207531,,,,,,,,,,,,,0,13,13,83,1,0.920505936,0,,,,,,,,,,,,,,,,,,,,,,,,,,,,,,,,,,,,,,,,,,,,,,,,,,,,,,,,,,,,,,,,,,,,,,,,,,,,,,,,
,,5ae090dadee8590001b078c8,2022-09-08_13h01.11.539,CGTgamblingSpanTasks,2022.2.1,Win32,144.0299582,,,,,,,,3.0329,,,,,,,,,,,,,,2,n,0.9671,0,1,4.0329,1,,,,,,28.94627214,0,2.701896413,,,,,,,,,,,,,0,14,14,111,1,0.515860759,1,,,,,,,,,,,,,,,,,,,,,,,,,,,,,,,,,,,,,,,,,,,,,,,,,,,,,,,,,,,,,,,,,,,,,,,,,,,,,,,,
,,5ae090dadee8590001b078c8,2022-09-08_13h01.11.539,CGTgamblingSpanTasks,2022.2.1,Win32,144.0299582,,,,,,,,2.9374,,,,,,,,,,,,,,2,v,1.0626,8.653432553,0,4.4374,1.5,,,,,,15.13999312,0,8.653432553,,,,,,,,,,,,,0,15,15,54,1,0.081767484,0,,,,,,,,,,,,,,,,,,,,,,,,,,,,,,,,,,,,,,,,,,,,,,,,,,,,,,,,,,,,,,,,,,,,,,,,,,,,,,,,
,,5ae090dadee8590001b078c8,2022-09-08_13h01.11.539,CGTgamblingSpanTasks,2022.2.1,Win32,144.0299582,,,,,,,,3.1718,,,,,,,,,,,,,,1,v,0.8282,0,1,4.1718,1,,,,,,24.479109,0,0.089582697,,,,,,,,,,,,,0,16,16,89,1,0.900200232,0,,,,,,,,,,,,,,,,,,,,,,,,,,,,,,,,,,,,,,,,,,,,,,,,,,,,,,,,,,,,,,,,,,,,,,,,,,,,,,,,
,,5ae090dadee8590001b078c8,2022-09-08_13h01.11.539,CGTgamblingSpanTasks,2022.2.1,Win32,144.0299582,,,,,,,,3.1479,,,,,,,,,,,,,,2,n,0.8521,18.20422443,1,4.6479,1.5,,,,,,18.20422443,0,1.635040165,,,,,,,,,,,,,0,17,17,82,1,0.525708991,1,,,,,,,,,,,,,,,,,,,,,,,,,,,,,,,,,,,,,,,,,,,,,,,,,,,,,,,,,,,,,,,,,,,,,,,,,,,,,,,,
,,5ae090dadee8590001b078c8,2022-09-08_13h01.11.539,CGTgamblingSpanTasks,2022.2.1,Win32,144.0299582,,,,,,,,3.1112,,,,,,,,,,,,,,2,n,0.8888,20.5726842,1,4.6112,1.5,,,,,,20.5726842,0,0.073558523,,,,,,,,,,,,,0,18,18,26,1,0.901008565,0,,,,,,,,,,,,,,,,,,,,,,,,,,,,,,,,,,,,,,,,,,,,,,,,,,,,,,,,,,,,,,,,,,,,,,,,,,,,,,,,
,,5ae090dadee8590001b078c8,2022-09-08_13h01.11.539,CGTgamblingSpanTasks,2022.2.1,Win32,144.0299582,,,,,,,,3.0866,,,,,,,,,,,,,,1,v,0.9134,17.92584289,1,4.5866,1.5,,,,,,17.92584289,0,1.878232496,,,,,,,,,,,,,0,19,19,5,1,0.485559263,1,,,,,,,,,,,,,,,,,,,,,,,,,,,,,,,,,,,,,,,,,,,,,,,,,,,,,,,,,,,,,,,,,,,,,,,,,,,,,,,,
,,5ae090dadee8590001b078c8,2022-09-08_13h01.11.539,CGTgamblingSpanTasks,2022.2.1,Win32,144.0299582,,,,,,,,3.1038,,,,,,,,,,,,,,1,v,0.8962,0,1,4.6038,1.5,,,,,,25.76582409,0,2.393193076,,,,,,,,,,,,,0,20,20,46,1,0.517129855,1,,,,,,,,,,,,,,,,,,,,,,,,,,,,,,,,,,,,,,,,,,,,,,,,,,,,,,,,,,,,,,,,,,,,,,,,,,,,,,,,
,,5ae090dadee8590001b078c8,2022-09-08_13h01.11.539,CGTgamblingSpanTasks,2022.2.1,Win32,144.0299582,,,,,,,,3.118,,,,,,,,,,,,,,2,n,0.882,28.18900855,1,4.118,1,,,,,,28.18900855,0,0.05384276,,,,,,,,,,,,,0,21,21,55,1,0.919081308,0,,,,,,,,,,,,,,,,,,,,,,,,,,,,,,,,,,,,,,,,,,,,,,,,,,,,,,,,,,,,,,,,,,,,,,,,,,,,,,,,
,,5ae090dadee8590001b078c8,2022-09-08_13h01.11.539,CGTgamblingSpanTasks,2022.2.1,Win32,144.0299582,,,,,,,,3.2668,,,,,,,,,,,,,,1,v,0.7332,21.48443242,1,4.7668,1.5,,,,,,21.48443242,0,2.229247341,,,,,,,,,,,,,0,22,22,63,1,0.488155912,1,,,,,,,,,,,,,,,,,,,,,,,,,,,,,,,,,,,,,,,,,,,,,,,,,,,,,,,,,,,,,,,,,,,,,,,,,,,,,,,,
,,5ae090dadee8590001b078c8,2022-09-08_13h01.11.539,CGTgamblingSpanTasks,2022.2.1,Win32,144.0299582,,,,,,,,3.063,,,,,,,,,,,,,,2,n,0.937,0,1,4.063,1,,,,,,8.217594828,0,0.951019374,,,,,,,,,,,,,0,23,23,87,1,0.458722936,1,,,,,,,,,,,,,,,,,,,,,,,,,,,,,,,,,,,,,,,,,,,,,,,,,,,,,,,,,,,,,,,,,,,,,,,,,,,,,,,,
,,5ae090dadee8590001b078c8,2022-09-08_13h01.11.539,CGTgamblingSpanTasks,2022.2.1,Win32,144.0299582,,,,,,,,3.1275,,,,,,,,,,,,,,1,v,0.8725,27.77179191,1,4.1275,1,,,,,,27.77179191,0,0.074524436,,,,,,,,,,,,,0,24,24,99,1,0.910114387,0,,,,,,,,,,,,,,,,,,,,,,,,,,,,,,,,,,,,,,,,,,,,,,,,,,,,,,,,,,,,,,,,,,,,,,,,,,,,,,,,
,,5ae090dadee8590001b078c8,2022-09-08_13h01.11.539,CGTgamblingSpanTasks,2022.2.1,Win32,144.0299582,,,,,,,,3.171,,,,,,,,,,,,,,1,v,0.829,0,1,4.671,1.5,,,,,,27.57491653,0,2.99133314,,,,,,,,,,,,,0,25,25,10,1,0.47625893,1,,,,,,,,,,,,,,,,,,,,,,,,,,,,,,,,,,,,,,,,,,,,,,,,,,,,,,,,,,,,,,,,,,,,,,,,,,,,,,,,
,,5ae090dadee8590001b078c8,2022-09-08_13h01.11.539,CGTgamblingSpanTasks,2022.2.1,Win32,144.0299582,,,,,,,,3.0485,,,,,,,,,,,,,,2,n,0.9515,23.24777057,1,4.0485,1,,,,,,23.24777057,0,2.003482335,,,,,,,,,,,,,0,26,26,59,1,0.536135174,1,,,,,,,,,,,,,,,,,,,,,,,,,,,,,,,,,,,,,,,,,,,,,,,,,,,,,,,,,,,,,,,,,,,,,,,,,,,,,,,,
,,5ae090dadee8590001b078c8,2022-09-08_13h01.11.539,CGTgamblingSpanTasks,2022.2.1,Win32,144.0299582,,,,,,,,3.1018,,,,,,,,,,,,,,2,n,0.8982,0,1,4.1018,1,,,,,,27.53810185,0,0.097022401,,,,,,,,,,,,,0,27,27,50,1,0.901515865,0,,,,,,,,,,,,,,,,,,,,,,,,,,,,,,,,,,,,,,,,,,,,,,,,,,,,,,,,,,,,,,,,,,,,,,,,,,,,,,,,
,,5ae090dadee8590001b078c8,2022-09-08_13h01.11.539,CGTgamblingSpanTasks,2022.2.1,Win32,144.0299582,,,,,,,,3.018,,,,,,,,,,,,,,1,v,0.982,0,1,4.018,1,,,,,,17.5608285,0,1.825111303,,,,,,,,,,,,,0,28,28,104,1,0.487721116,1,,,,,,,,,,,,,,,,,,,,,,,,,,,,,,,,,,,,,,,,,,,,,,,,,,,,,,,,,,,,,,,,,,,,,,,,,,,,,,,,
,,5ae090dadee8590001b078c8,2022-09-08_13h01.11.539,CGTgamblingSpanTasks,2022.2.1,Win32,144.0299582,,,,,,,,3.0333,,,,,,,,,,,,,,2,n,0.9667,17.23907308,1,4.0333,1,,,,,,17.23907308,0,2.055848574,,,,,,,,,,,,,0,29,29,66,1,0.450504458,1,,,,,,,,,,,,,,,,,,,,,,,,,,,,,,,,,,,,,,,,,,,,,,,,,,,,,,,,,,,,,,,,,,,,,,,,,,,,,,,,
,,5ae090dadee8590001b078c8,2022-09-08_13h01.11.539,CGTgamblingSpanTasks,2022.2.1,Win32,144.0299582,,,,,,,,3.1644,,,,,,,,,,,,,,2,n,0.8356,17.30137174,1,4.1644,1,,,,,,17.30137174,0,1.716380842,,,,,,,,,,,,,0,30,30,20,1,0.500020285,1,,,,,,,,,,,,,,,,,,,,,,,,,,,,,,,,,,,,,,,,,,,,,,,,,,,,,,,,,,,,,,,,,,,,,,,,,,,,,,,,
,,5ae090dadee8590001b078c8,2022-09-08_13h01.11.539,CGTgamblingSpanTasks,2022.2.1,Win32,144.0299582,,,,,,,,3.1356,,,,,,,,,,,,,,1,v,0.8644,22.25959835,1,4.6356,1.5,,,,,,22.25959835,0,0.065383587,,,,,,,,,,,,,0,31,31,97,1,0.907413875,0,,,,,,,,,,,,,,,,,,,,,,,,,,,,,,,,,,,,,,,,,,,,,,,,,,,,,,,,,,,,,,,,,,,,,,,,,,,,,,,,
,,5ae090dadee8590001b078c8,2022-09-08_13h01.11.539,CGTgamblingSpanTasks,2022.2.1,Win32,144.0299582,,,,,,,,3.0592,,,,,,,,,,,,,,1,v,0.9408,26.11188619,1,4.5592,1.5,,,,,,26.11188619,0,0.081942421,,,,,,,,,,,,,0,32,32,105,1,0.905343856,0,,,,,,,,,,,,,,,,,,,,,,,,,,,,,,,,,,,,,,,,,,,,,,,,,,,,,,,,,,,,,,,,,,,,,,,,,,,,,,,,
,,5ae090dadee8590001b078c8,2022-09-08_13h01.11.539,CGTgamblingSpanTasks,2022.2.1,Win32,144.0299582,,,,,,,,3.0728,,,,,,,,,,,,,,2,n,0.9272,28.33977875,1,4.0728,1,,,,,,28.33977875,0,2.768313633,,,,,,,,,,,,,0,33,33,116,1,0.50406901,1,,,,,,,,,,,,,,,,,,,,,,,,,,,,,,,,,,,,,,,,,,,,,,,,,,,,,,,,,,,,,,,,,,,,,,,,,,,,,,,,
,,5ae090dadee8590001b078c8,2022-09-08_13h01.11.539,CGTgamblingSpanTasks,2022.2.1,Win32,144.0299582,,,,,,,,3.1021,,,,,,,,,,,,,,1,v,0.8979,21.16780451,1,4.1021,1,,,,,,21.16780451,0,2.469465385,,,,,,,,,,,,,0,34,34,32,1,0.456531699,1,,,,,,,,,,,,,,,,,,,,,,,,,,,,,,,,,,,,,,,,,,,,,,,,,,,,,,,,,,,,,,,,,,,,,,,,,,,,,,,,
,,5ae090dadee8590001b078c8,2022-09-08_13h01.11.539,CGTgamblingSpanTasks,2022.2.1,Win32,144.0299582,,,,,,,,3.1091,,,,,,,,,,,,,,2,n,0.8909,22.87092517,1,4.1091,1,,,,,,22.87092517,0,0.059276504,,,,,,,,,,,,,0,35,35,27,1,0.911114935,0,,,,,,,,,,,,,,,,,,,,,,,,,,,,,,,,,,,,,,,,,,,,,,,,,,,,,,,,,,,,,,,,,,,,,,,,,,,,,,,,
,,5ae090dadee8590001b078c8,2022-09-08_13h01.11.539,CGTgamblingSpanTasks,2022.2.1,Win32,144.0299582,,,,,,,,3.139,,,,,,,,,,,,,,1,v,0.861,0,1,4.639,1.5,,,,,,23.4214135,0,2.485985001,,,,,,,,,,,,,0,36,36,81,1,0.482105905,1,,,,,,,,,,,,,,,,,,,,,,,,,,,,,,,,,,,,,,,,,,,,,,,,,,,,,,,,,,,,,,,,,,,,,,,,,,,,,,,,
,,5ae090dadee8590001b078c8,2022-09-08_13h01.11.539,CGTgamblingSpanTasks,2022.2.1,Win32,144.0299582,,,,,,,,3.0932,,,,,,,,,,,,,,1,v,0.9068,29.76099779,1,4.0932,1,,,,,,29.76099779,0,0.095763086,,,,,,,,,,,,,0,37,37,35,1,0.904537896,0,,,,,,,,,,,,,,,,,,,,,,,,,,,,,,,,,,,,,,,,,,,,,,,,,,,,,,,,,,,,,,,,,,,,,,,,,,,,,,,,
,,5ae090dadee8590001b078c8,2022-09-08_13h01.11.539,CGTgamblingSpanTasks,2022.2.1,Win32,144.0299582,,,,,,,,2.991,,,,,,,,,,,,,,1,v,1.009,0,1,3.991,1,,,,,,24.57684014,0,0.061756244,,,,,,,,,,,,,0,38,38,68,1,0.911988903,0,,,,,,,,,,,,,,,,,,,,,,,,,,,,,,,,,,,,,,,,,,,,,,,,,,,,,,,,,,,,,,,,,,,,,,,,,,,,,,,,
,,5ae090dadee8590001b078c8,2022-09-08_13h01.11.539,CGTgamblingSpanTasks,2022.2.1,Win32,144.0299582,,,,,,,,2.7495,,,,,,,,,,,,,,1,v,1.2505,0,1,4.2495,1.5,,,,,,29.30724159,0,3.247012935,,,,,,,,,,,,,0,39,39,71,1,0.470571125,1,,,,,,,,,,,,,,,,,,,,,,,,,,,,,,,,,,,,,,,,,,,,,,,,,,,,,,,,,,,,,,,,,,,,,,,,,,,,,,,,
,,5ae090dadee8590001b078c8,2022-09-08_13h01.11.539,CGTgamblingSpanTasks,2022.2.1,Win32,144.0299582,,,,,,,,3.1943,,,,,,,,,,,,,,2,n,0.8057,28.68598705,1,4.6943,1.5,,,,,,28.68598705,0,0.050674956,,,,,,,,,,,,,0,40,40,62,1,0.920905497,0,,,,,,,,,,,,,,,,,,,,,,,,,,,,,,,,,,,,,,,,,,,,,,,,,,,,,,,,,,,,,,,,,,,,,,,,,,,,,,,,
,,5ae090dadee8590001b078c8,2022-09-08_13h01.11.539,CGTgamblingSpanTasks,2022.2.1,Win32,144.0299582,,,,,,,,3.0769,,,,,,,,,,,,,,2,n,0.9231,19.3050342,1,4.5769,1.5,,,,,,19.3050342,0,2.030232342,,,,,,,,,,,,,0,41,41,73,1,0.484573227,1,,,,,,,,,,,,,,,,,,,,,,,,,,,,,,,,,,,,,,,,,,,,,,,,,,,,,,,,,,,,,,,,,,,,,,,,,,,,,,,,
,,5ae090dadee8590001b078c8,2022-09-08_13h01.11.539,CGTgamblingSpanTasks,2022.2.1,Win32,144.0299582,,,,,,,,3.0788,,,,,,,,,,,,,,1,v,0.9212,25.26994993,1,4.0788,1,,,,,,25.26994993,0,2.78925142,,,,,,,,,,,,,0,42,42,108,1,0.471582922,1,,,,,,,,,,,,,,,,,,,,,,,,,,,,,,,,,,,,,,,,,,,,,,,,,,,,,,,,,,,,,,,,,,,,,,,,,,,,,,,,
,,5ae090dadee8590001b078c8,2022-09-08_13h01.11.539,CGTgamblingSpanTasks,2022.2.1,Win32,144.0299582,,,,,,,,3.0925,,,,,,,,,,,,,,1,v,0.9075,0,1,4.5925,1.5,,,,,,22.86604061,0,2.293289792,,,,,,,,,,,,,0,43,43,51,1,0.49715382,1,,,,,,,,,,,,,,,,,,,,,,,,,,,,,,,,,,,,,,,,,,,,,,,,,,,,,,,,,,,,,,,,,,,,,,,,,,,,,,,,
,,5ae090dadee8590001b078c8,2022-09-08_13h01.11.539,CGTgamblingSpanTasks,2022.2.1,Win32,144.0299582,,,,,,,,3.2469,,,,,,,,,,,,,,2,n,0.7531,27.76752685,1,4.2469,1,,,,,,27.76752685,0,0.083968035,,,,,,,,,,,,,0,44,44,13,1,0.906513967,0,,,,,,,,,,,,,,,,,,,,,,,,,,,,,,,,,,,,,,,,,,,,,,,,,,,,,,,,,,,,,,,,,,,,,,,,,,,,,,,,
,,5ae090dadee8590001b078c8,2022-09-08_13h01.11.539,CGTgamblingSpanTasks,2022.2.1,Win32,144.0299582,,,,,,,,2.823,,,,,,,,,,,,,,1,v,1.177,23.0613391,1,4.323,1.5,,,,,,23.0613391,0,2.387726776,,,,,,,,,,,,,0,45,45,69,1,0.488727763,1,,,,,,,,,,,,,,,,,,,,,,,,,,,,,,,,,,,,,,,,,,,,,,,,,,,,,,,,,,,,,,,,,,,,,,,,,,,,,,,,
,,5ae090dadee8590001b078c8,2022-09-08_13h01.11.539,CGTgamblingSpanTasks,2022.2.1,Win32,144.0299582,,,,,,,,2.7813,,,,,,,,,,,,,,2,n,1.2187,0,1,3.7813,1,,,,,,28.14876717,0,3.117906378,,,,,,,,,,,,,0,46,46,76,1,0.470636736,1,,,,,,,,,,,,,,,,,,,,,,,,,,,,,,,,,,,,,,,,,,,,,,,,,,,,,,,,,,,,,,,,,,,,,,,,,,,,,,,,
,,5ae090dadee8590001b078c8,2022-09-08_13h01.11.539,CGTgamblingSpanTasks,2022.2.1,Win32,144.0299582,,,,,,,,3.1528,,,,,,,,,,,,,,2,n,0.8472,0,1,4.1528,1,,,,,,25.54604005,0,0.088845411,,,,,,,,,,,,,0,47,47,79,1,0.901957831,0,,,,,,,,,,,,,,,,,,,,,,,,,,,,,,,,,,,,,,,,,,,,,,,,,,,,,,,,,,,,,,,,,,,,,,,,,,,,,,,,
,,5ae090dadee8590001b078c8,2022-09-08_13h01.11.539,CGTgamblingSpanTasks,2022.2.1,Win32,144.0299582,,,,,,,,3.2473,,,,,,,,,,,,,,1,v,0.7527,26.16821818,1,4.2473,1,,,,,,26.16821818,0,0.093528069,,,,,,,,,,,,,0,48,48,42,1,0.901022427,0,,,,,,,,,,,,,,,,,,,,,,,,,,,,,,,,,,,,,,,,,,,,,,,,,,,,,,,,,,,,,,,,,,,,,,,,,,,,,,,,
,,5ae090dadee8590001b078c8,2022-09-08_13h01.11.539,CGTgamblingSpanTasks,2022.2.1,Win32,144.0299582,,,,,,,,2.781,,,,,,,,,,,,,,1,n,1.219,5.526483034,0,3.781,1,,,,,,9.725876653,0,5.526483034,,,,,,,,,,,,,0,49,49,44,1,0.082550696,0,,,,,,,,,,,,,,,,,,,,,,,,,,,,,,,,,,,,,,,,,,,,,,,,,,,,,,,,,,,,,,,,,,,,,,,,,,,,,,,,
,,5ae090dadee8590001b078c8,2022-09-08_13h01.11.539,CGTgamblingSpanTasks,2022.2.1,Win32,144.0299582,,,,,,,,3.0595,,,,,,,,,,,,,,1,v,0.9405,22.0050376,1,4.5595,1.5,,,,,,22.0050376,0,2.257683666,,,,,,,,,,,,,0,50,50,4,1,0.491147312,1,,,,,,,,,,,,,,,,,,,,,,,,,,,,,,,,,,,,,,,,,,,,,,,,,,,,,,,,,,,,,,,,,,,,,,,,,,,,,,,,
,,5ae090dadee8590001b078c8,2022-09-08_13h01.11.539,CGTgamblingSpanTasks,2022.2.1,Win32,144.0299582,,,,,,,,2.1862,,,,,,,,,,,,,,2,v,1.8138,7.50753835,0,3.1862,1,,,,,,2.231316635,0,7.50753835,,,,,,,,,,,,,0,51,51,29,1,0.010273427,0,,,,,,,,,,,,,,,,,,,,,,,,,,,,,,,,,,,,,,,,,,,,,,,,,,,,,,,,,,,,,,,,,,,,,,,,,,,,,,,,
,,5ae090dadee8590001b078c8,2022-09-08_13h01.11.539,CGTgamblingSpanTasks,2022.2.1,Win32,144.0299582,,,,,,,,2.9486,,,,,,,,,,,,,,1,v,1.0514,18.51345298,1,4.4486,1.5,,,,,,18.51345298,0,1.932334278,,,,,,,,,,,,,0,52,52,31,1,0.48658696,1,,,,,,,,,,,,,,,,,,,,,,,,,,,,,,,,,,,,,,,,,,,,,,,,,,,,,,,,,,,,,,,,,,,,,,,,,,,,,,,,
,,5ae090dadee8590001b078c8,2022-09-08_13h01.11.539,CGTgamblingSpanTasks,2022.2.1,Win32,144.0299582,,,,,,,,3.0238,,,,,,,,,,,,,,1,v,0.9762,28.9381277,1,4.0238,1,,,,,,28.9381277,0,2.663622024,,,,,,,,,,,,,0,53,53,103,1,0.519453367,1,,,,,,,,,,,,,,,,,,,,,,,,,,,,,,,,,,,,,,,,,,,,,,,,,,,,,,,,,,,,,,,,,,,,,,,,,,,,,,,,
,,5ae090dadee8590001b078c8,2022-09-08_13h01.11.539,CGTgamblingSpanTasks,2022.2.1,Win32,144.0299582,,,,,,,,3.1876,,,,,,,,,,,,,,1,v,0.8124,0,1,4.1876,1,,,,,,27.7711693,0,2.320849632,,,,,,,,,,,,,0,54,54,94,1,0.543786368,1,,,,,,,,,,,,,,,,,,,,,,,,,,,,,,,,,,,,,,,,,,,,,,,,,,,,,,,,,,,,,,,,,,,,,,,,,,,,,,,,
,,5ae090dadee8590001b078c8,2022-09-08_13h01.11.539,CGTgamblingSpanTasks,2022.2.1,Win32,144.0299582,,,,,,,,3.2532,,,,,,,,,,,,,,1,v,0.7468,21.46599803,1,4.7532,1.5,,,,,,21.46599803,0,0.059789256,,,,,,,,,,,,,0,55,55,8,1,0.909019081,0,,,,,,,,,,,,,,,,,,,,,,,,,,,,,,,,,,,,,,,,,,,,,,,,,,,,,,,,,,,,,,,,,,,,,,,,,,,,,,,,
,,5ae090dadee8590001b078c8,2022-09-08_13h01.11.539,CGTgamblingSpanTasks,2022.2.1,Win32,144.0299582,,,,,,,,2.6772,,,,,,,,,,,,,,1,n,1.3228,4.251676631,0,3.6772,1,,,,,,3.395192929,0,4.251676631,,,,,,,,,,,,,0,56,56,7,1,0.023467153,0,,,,,,,,,,,,,,,,,,,,,,,,,,,,,,,,,,,,,,,,,,,,,,,,,,,,,,,,,,,,,,,,,,,,,,,,,,,,,,,,
,,5ae090dadee8590001b078c8,2022-09-08_13h01.11.539,CGTgamblingSpanTasks,2022.2.1,Win32,144.0299582,,,,,,,,2.9969,,,,,,,,,,,,,,1,v,1.0031,0,1,4.4969,1.5,,,,,,11.08143071,0,1.207538756,,,,,,,,,,,,,0,57,57,84,1,0.475047453,1,,,,,,,,,,,,,,,,,,,,,,,,,,,,,,,,,,,,,,,,,,,,,,,,,,,,,,,,,,,,,,,,,,,,,,,,,,,,,,,,
,,5ae090dadee8590001b078c8,2022-09-08_13h01.11.539,CGTgamblingSpanTasks,2022.2.1,Win32,144.0299582,,,,,,,,3.0375,,,,,,,,,,,,,,2,n,0.9625,0,1,4.5375,1.5,,,,,,29.75778644,0,2.810531415,,,,,,,,,,,,,0,58,58,113,1,0.512824233,1,,,,,,,,,,,,,,,,,,,,,,,,,,,,,,,,,,,,,,,,,,,,,,,,,,,,,,,,,,,,,,,,,,,,,,,,,,,,,,,,
,,5ae090dadee8590001b078c8,2022-09-08_13h01.11.539,CGTgamblingSpanTasks,2022.2.1,Win32,144.0299582,,,,,,,,3.1505,,,,,,,,,,,,,,1,v,0.8495,0,1,4.1505,1,,,,,,22.62475578,0,2.397643354,,,,,,,,,,,,,0,59,59,93,1,0.482527609,1,,,,,,,,,,,,,,,,,,,,,,,,,,,,,,,,,,,,,,,,,,,,,,,,,,,,,,,,,,,,,,,,,,,,,,,,,,,,,,,,
,,5ae090dadee8590001b078c8,2022-09-08_13h01.11.539,CGTgamblingSpanTasks,2022.2.1,Win32,144.0299582,,,,,,,,3.0901,,,,,,,,,,,,,,2,n,0.9099,0,1,4.0901,1,,,,,,24.8002852,0,0.071848086,,,,,,,,,,,,,0,60,60,16,1,0.90783559,0,,,,,,,,,,,,,,,,,,,,,,,,,,,,,,,,,,,,,,,,,,,,,,,,,,,,,,,,,,,,,,,,,,,,,,,,,,,,,,,,
,,5ae090dadee8590001b078c8,2022-09-08_13h01.11.539,CGTgamblingSpanTasks,2022.2.1,Win32,144.0299582,,,,,,,,3.0262,,,,,,,,,,,,,,1,v,0.9738,19.5450126,1,4.0262,1,,,,,,19.5450126,0,2.123581464,,,,,,,,,,,,,0,61,61,65,1,0.475836144,1,,,,,,,,,,,,,,,,,,,,,,,,,,,,,,,,,,,,,,,,,,,,,,,,,,,,,,,,,,,,,,,,,,,,,,,,,,,,,,,,
,,5ae090dadee8590001b078c8,2022-09-08_13h01.11.539,CGTgamblingSpanTasks,2022.2.1,Win32,144.0299582,,,,,,,,2.5469,,,,,,,,,,,,,,2,n,1.4531,27.94544945,1,3.5469,1,,,,,,27.94544945,0,2.32030209,,,,,,,,,,,,,0,62,62,115,1,0.545390564,1,,,,,,,,,,,,,,,,,,,,,,,,,,,,,,,,,,,,,,,,,,,,,,,,,,,,,,,,,,,,,,,,,,,,,,,,,,,,,,,,
,,5ae090dadee8590001b078c8,2022-09-08_13h01.11.539,CGTgamblingSpanTasks,2022.2.1,Win32,144.0299582,,,,,,,,2.8033,,,,,,,,,,,,,,1,v,1.1967,0,1,3.8033,1,,,,,,27.2532142,0,0.08089327,,,,,,,,,,,,,0,63,63,119,1,0.907091845,0,,,,,,,,,,,,,,,,,,,,,,,,,,,,,,,,,,,,,,,,,,,,,,,,,,,,,,,,,,,,,,,,,,,,,,,,,,,,,,,,
,,5ae090dadee8590001b078c8,2022-09-08_13h01.11.539,CGTgamblingSpanTasks,2022.2.1,Win32,144.0299582,,,,,,,,2.5099,,,,,,,,,,,,,,1,n,1.4901,10.3417501,0,3.5099,1,,,,,,15.21435748,0,10.3417501,,,,,,,,,,,,,0,64,64,72,1,0.060969226,0,,,,,,,,,,,,,,,,,,,,,,,,,,,,,,,,,,,,,,,,,,,,,,,,,,,,,,,,,,,,,,,,,,,,,,,,,,,,,,,,
,,5ae090dadee8590001b078c8,2022-09-08_13h01.11.539,CGTgamblingSpanTasks,2022.2.1,Win32,144.0299582,,,,,,,,2.9218,,,,,,,,,,,,,,1,v,1.0782,13.84410806,1,3.9218,1,,,,,,13.84410806,0,1.535873964,,,,,,,,,,,,,0,65,65,88,1,0.470209002,1,,,,,,,,,,,,,,,,,,,,,,,,,,,,,,,,,,,,,,,,,,,,,,,,,,,,,,,,,,,,,,,,,,,,,,,,,,,,,,,,
,,5ae090dadee8590001b078c8,2022-09-08_13h01.11.539,CGTgamblingSpanTasks,2022.2.1,Win32,144.0299582,,,,,,,,2.8111,,,,,,,,,,,,,,1,v,1.1889,0,1,4.3111,1.5,,,,,,20.31034258,0,1.870404296,,,,,,,,,,,,,0,66,66,85,1,0.519325853,1,,,,,,,,,,,,,,,,,,,,,,,,,,,,,,,,,,,,,,,,,,,,,,,,,,,,,,,,,,,,,,,,,,,,,,,,,,,,,,,,
,,5ae090dadee8590001b078c8,2022-09-08_13h01.11.539,CGTgamblingSpanTasks,2022.2.1,Win32,144.0299582,,,,,,,,3.2404,,,,,,,,,,,,,,1,v,0.7596,0,1,4.2404,1,,,,,,21.39646914,0,0.072474078,,,,,,,,,,,,,0,67,67,3,1,0.902848133,0,,,,,,,,,,,,,,,,,,,,,,,,,,,,,,,,,,,,,,,,,,,,,,,,,,,,,,,,,,,,,,,,,,,,,,,,,,,,,,,,
,,5ae090dadee8590001b078c8,2022-09-08_13h01.11.539,CGTgamblingSpanTasks,2022.2.1,Win32,144.0299582,,,,,,,,2.7241,,,,,,,,,,,,,,2,n,1.2759,0,1,4.2241,1.5,,,,,,17.85020524,0,2.058701084,,,,,,,,,,,,,0,68,68,25,1,0.459662216,1,,,,,,,,,,,,,,,,,,,,,,,,,,,,,,,,,,,,,,,,,,,,,,,,,,,,,,,,,,,,,,,,,,,,,,,,,,,,,,,,
,,5ae090dadee8590001b078c8,2022-09-08_13h01.11.539,CGTgamblingSpanTasks,2022.2.1,Win32,144.0299582,,,,,,,,2.9099,,,,,,,,,,,,,,1,v,1.0901,22.72923833,1,4.4099,1.5,,,,,,22.72923833,0,0.067170781,,,,,,,,,,,,,0,69,69,86,1,0.907226703,0,,,,,,,,,,,,,,,,,,,,,,,,,,,,,,,,,,,,,,,,,,,,,,,,,,,,,,,,,,,,,,,,,,,,,,,,,,,,,,,,
,,5ae090dadee8590001b078c8,2022-09-08_13h01.11.539,CGTgamblingSpanTasks,2022.2.1,Win32,144.0299582,,,,,,,,2.822,,,,,,,,,,,,,,2,n,1.178,27.37527992,1,4.322,1.5,,,,,,27.37527992,0,2.860319095,,,,,,,,,,,,,0,70,70,39,1,0.486304156,1,,,,,,,,,,,,,,,,,,,,,,,,,,,,,,,,,,,,,,,,,,,,,,,,,,,,,,,,,,,,,,,,,,,,,,,,,,,,,,,,
,,5ae090dadee8590001b078c8,2022-09-08_13h01.11.539,CGTgamblingSpanTasks,2022.2.1,Win32,144.0299582,,,,,,,,3.0171,,,,,,,,,,,,,,1,v,0.9829,0,1,4.5171,1.5,,,,,,28.13634754,0,2.532806323,,,,,,,,,,,,,0,71,71,28,1,0.525136524,1,,,,,,,,,,,,,,,,,,,,,,,,,,,,,,,,,,,,,,,,,,,,,,,,,,,,,,,,,,,,,,,,,,,,,,,,,,,,,,,,
,,5ae090dadee8590001b078c8,2022-09-08_13h01.11.539,CGTgamblingSpanTasks,2022.2.1,Win32,144.0299582,,,,,,,,2.9912,,,,,,,,,,,,,,2,n,1.0088,19.36415485,1,4.4912,1.5,,,,,,19.36415485,0,1.966229494,,,,,,,,,,,,,0,72,72,96,1,0.493893111,1,,,,,,,,,,,,,,,,,,,,,,,,,,,,,,,,,,,,,,,,,,,,,,,,,,,,,,,,,,,,,,,,,,,,,,,,,,,,,,,,
,,5ae090dadee8590001b078c8,2022-09-08_13h01.11.539,CGTgamblingSpanTasks,2022.2.1,Win32,144.0299582,,,,,,,,3.066,,,,,,,,,,,,,,1,v,0.934,0,1,4.566,1.5,,,,,,27.4965044,0,2.461467004,,,,,,,,,,,,,0,73,73,36,1,0.526550878,1,,,,,,,,,,,,,,,,,,,,,,,,,,,,,,,,,,,,,,,,,,,,,,,,,,,,,,,,,,,,,,,,,,,,,,,,,,,,,,,,
,,5ae090dadee8590001b078c8,2022-09-08_13h01.11.539,CGTgamblingSpanTasks,2022.2.1,Win32,144.0299582,,,,,,,,2.915,,,,,,,,,,,,,,1,n,1.085,6.091504705,0,4.415,1.5,,,,,,6.662965216,0,6.091504705,,,,,,,,,,,,,0,74,74,102,1,0.035087099,0,,,,,,,,,,,,,,,,,,,,,,,,,,,,,,,,,,,,,,,,,,,,,,,,,,,,,,,,,,,,,,,,,,,,,,,,,,,,,,,,
,,5ae090dadee8590001b078c8,2022-09-08_13h01.11.539,CGTgamblingSpanTasks,2022.2.1,Win32,144.0299582,,,,,,,,2.5538,,,,,,,,,,,,,,2,n,1.4462,0,1,4.0538,1.5,,,,,,4.622707531,0,7.850775577,,,,,,,,,,,,,0,75,75,6,1,0.017737407,0,,,,,,,,,,,,,,,,,,,,,,,,,,,,,,,,,,,,,,,,,,,,,,,,,,,,,,,,,,,,,,,,,,,,,,,,,,,,,,,,
,,5ae090dadee8590001b078c8,2022-09-08_13h01.11.539,CGTgamblingSpanTasks,2022.2.1,Win32,144.0299582,,,,,,,,2.705,,,,,,,,,,,,,,1,v,1.295,28.9323758,1,4.205,1.5,,,,,,28.9323758,0,2.893007023,,,,,,,,,,,,,0,76,76,11,1,0.497943321,1,,,,,,,,,,,,,,,,,,,,,,,,,,,,,,,,,,,,,,,,,,,,,,,,,,,,,,,,,,,,,,,,,,,,,,,,,,,,,,,,
,,5ae090dadee8590001b078c8,2022-09-08_13h01.11.539,CGTgamblingSpanTasks,2022.2.1,Win32,144.0299582,,,,,,,,2.865,,,,,,,,,,,,,,1,n,1.135,6.833409611,0,4.365,1.5,,,,,,6.325091157,0,6.833409611,,,,,,,,,,,,,0,77,77,58,1,0.027113638,0,,,,,,,,,,,,,,,,,,,,,,,,,,,,,,,,,,,,,,,,,,,,,,,,,,,,,,,,,,,,,,,,,,,,,,,,,,,,,,,,
,,5ae090dadee8590001b078c8,2022-09-08_13h01.11.539,CGTgamblingSpanTasks,2022.2.1,Win32,144.0299582,,,,,,,,3.1096,,,,,,,,,,,,,,2,v,0.8904,10.41201161,0,4.1096,1,,,,,,6.307062696,0,10.41201161,,,,,,,,,,,,,0,78,78,23,1,0.018187109,0,,,,,,,,,,,,,,,,,,,,,,,,,,,,,,,,,,,,,,,,,,,,,,,,,,,,,,,,,,,,,,,,,,,,,,,,,,,,,,,,
,,5ae090dadee8590001b078c8,2022-09-08_13h01.11.539,CGTgamblingSpanTasks,2022.2.1,Win32,144.0299582,,,,,,,,3.0377,,,,,,,,,,,,,,1,v,0.9623,0,1,4.5377,1.5,,,,,,7.066129113,0,0.585581699,,,,,,,,,,,,,0,79,79,19,1,0.545860632,1,,,,,,,,,,,,,,,,,,,,,,,,,,,,,,,,,,,,,,,,,,,,,,,,,,,,,,,,,,,,,,,,,,,,,,,,,,,,,,,,
,,5ae090dadee8590001b078c8,2022-09-08_13h01.11.539,CGTgamblingSpanTasks,2022.2.1,Win32,144.0299582,,,,,,,,2.9854,,,,,,,,,,,,,,2,v,1.0146,8.512335864,0,4.4854,1.5,,,,,,10.05300841,0,8.512335864,,,,,,,,,,,,,0,80,80,74,1,0.040729225,0,,,,,,,,,,,,,,,,,,,,,,,,,,,,,,,,,,,,,,,,,,,,,,,,,,,,,,,,,,,,,,,,,,,,,,,,,,,,,,,,
,,5ae090dadee8590001b078c8,2022-09-08_13h01.11.539,CGTgamblingSpanTasks,2022.2.1,Win32,144.0299582,,,,,,,,2.9689,,,,,,,,,,,,,,1,v,1.0311,24.35708027,1,4.4689,1.5,,,,,,24.35708027,0,2.738695417,,,,,,,,,,,,,0,81,81,114,1,0.466573634,1,,,,,,,,,,,,,,,,,,,,,,,,,,,,,,,,,,,,,,,,,,,,,,,,,,,,,,,,,,,,,,,,,,,,,,,,,,,,,,,,
,,5ae090dadee8590001b078c8,2022-09-08_13h01.11.539,CGTgamblingSpanTasks,2022.2.1,Win32,144.0299582,,,,,,,,3.0841,,,,,,,,,,,,,,1,v,0.9159,25.0707644,1,4.0841,1,,,,,,25.0707644,0,0.067651625,,,,,,,,,,,,,0,82,82,70,1,0.909952349,0,,,,,,,,,,,,,,,,,,,,,,,,,,,,,,,,,,,,,,,,,,,,,,,,,,,,,,,,,,,,,,,,,,,,,,,,,,,,,,,,
,,5ae090dadee8590001b078c8,2022-09-08_13h01.11.539,CGTgamblingSpanTasks,2022.2.1,Win32,144.0299582,,,,,,,,3.1661,,,,,,,,,,,,,,1,v,0.8339,0,1,4.6661,1.5,,,,,,27.12325385,0,0.080932047,,,,,,,,,,,,,0,83,83,14,1,0.906929184,0,,,,,,,,,,,,,,,,,,,,,,,,,,,,,,,,,,,,,,,,,,,,,,,,,,,,,,,,,,,,,,,,,,,,,,,,,,,,,,,,
,,5ae090dadee8590001b078c8,2022-09-08_13h01.11.539,CGTgamblingSpanTasks,2022.2.1,Win32,144.0299582,,,,,,,,3.1233,,,,,,,,,,,,,,1,n,0.8767,5.683635938,0,4.1233,1,,,,,,4.941039335,0,5.683635938,,,,,,,,,,,,,0,84,84,9,1,0.025481984,0,,,,,,,,,,,,,,,,,,,,,,,,,,,,,,,,,,,,,,,,,,,,,,,,,,,,,,,,,,,,,,,,,,,,,,,,,,,,,,,,
,,5ae090dadee8590001b078c8,2022-09-08_13h01.11.539,CGTgamblingSpanTasks,2022.2.1,Win32,144.0299582,,,,,,,,3.0833,,,,,,,,,,,,,,1,v,0.9167,25.56803059,1,4.5833,1.5,,,,,,25.56803059,0,2.543951743,,,,,,,,,,,,,0,85,85,41,1,0.499247217,1,,,,,,,,,,,,,,,,,,,,,,,,,,,,,,,,,,,,,,,,,,,,,,,,,,,,,,,,,,,,,,,,,,,,,,,,,,,,,,,,
,,5ae090dadee8590001b078c8,2022-09-08_13h01.11.539,CGTgamblingSpanTasks,2022.2.1,Win32,144.0299582,,,,,,,,2.9061,,,,,,,,,,,,,,1,n,1.0939,11.35147481,0,4.4061,1.5,,,,,,17.67865084,0,11.35147481,,,,,,,,,,,,,0,86,86,91,1,0.067304606,0,,,,,,,,,,,,,,,,,,,,,,,,,,,,,,,,,,,,,,,,,,,,,,,,,,,,,,,,,,,,,,,,,,,,,,,,,,,,,,,,
,,5ae090dadee8590001b078c8,2022-09-08_13h01.11.539,CGTgamblingSpanTasks,2022.2.1,Win32,144.0299582,,,,,,,,3.0556,,,,,,,,,,,,,,2,n,0.9444,13.96521039,1,4.5556,1.5,,,,,,13.96521039,0,1.591282699,,,,,,,,,,,,,0,87,87,49,1,0.462956344,1,,,,,,,,,,,,,,,,,,,,,,,,,,,,,,,,,,,,,,,,,,,,,,,,,,,,,,,,,,,,,,,,,,,,,,,,,,,,,,,,
,,5ae090dadee8590001b078c8,2022-09-08_13h01.11.539,CGTgamblingSpanTasks,2022.2.1,Win32,144.0299582,,,,,,,,2.513,,,,,,,,,,,,,,2,n,1.487,8.670591867,1,3.513,1,,,,,,8.670591867,0,1.025847652,,,,,,,,,,,,,0,88,88,18,1,0.452680459,1,,,,,,,,,,,,,,,,,,,,,,,,,,,,,,,,,,,,,,,,,,,,,,,,,,,,,,,,,,,,,,,,,,,,,,,,,,,,,,,,
,,5ae090dadee8590001b078c8,2022-09-08_13h01.11.539,CGTgamblingSpanTasks,2022.2.1,Win32,144.0299582,,,,,,,,2.4234,,,,,,,,,,,,,,2,v,1.5766,7.646213173,0,3.4234,1,,,,,,2.042350179,0,7.646213173,,,,,,,,,,,,,0,89,89,53,1,0.009522273,0,,,,,,,,,,,,,,,,,,,,,,,,,,,,,,,,,,,,,,,,,,,,,,,,,,,,,,,,,,,,,,,,,,,,,,,,,,,,,,,,
,,5ae090dadee8590001b078c8,2022-09-08_13h01.11.539,CGTgamblingSpanTasks,2022.2.1,Win32,144.0299582,,,,,,,,3.1524,,,,,,,,,,,,,,1,n,0.8476,11.19311486,0,4.6524,1.5,,,,,,8.17598802,0,11.19311486,,,,,,,,,,,,,0,90,90,110,1,0.021568003,0,,,,,,,,,,,,,,,,,,,,,,,,,,,,,,,,,,,,,,,,,,,,,,,,,,,,,,,,,,,,,,,,,,,,,,,,,,,,,,,,
,,5ae090dadee8590001b078c8,2022-09-08_13h01.11.539,CGTgamblingSpanTasks,2022.2.1,Win32,144.0299582,,,,,,,,2.7957,,,,,,,,,,,,,,2,v,1.2043,8.579385201,0,4.2957,1.5,,,,,,14.11762686,0,8.579385201,,,,,,,,,,,,,0,91,91,60,1,0.073886959,0,,,,,,,,,,,,,,,,,,,,,,,,,,,,,,,,,,,,,,,,,,,,,,,,,,,,,,,,,,,,,,,,,,,,,,,,,,,,,,,,
,,5ae090dadee8590001b078c8,2022-09-08_13h01.11.539,CGTgamblingSpanTasks,2022.2.1,Win32,144.0299582,,,,,,,,3.1808,,,,,,,,,,,,,,2,n,0.8192,0,1,4.1808,1,,,,,,27.38828234,0,0.0639233,,,,,,,,,,,,,0,92,92,43,1,0.914010176,0,,,,,,,,,,,,,,,,,,,,,,,,,,,,,,,,,,,,,,,,,,,,,,,,,,,,,,,,,,,,,,,,,,,,,,,,,,,,,,,,
,,5ae090dadee8590001b078c8,2022-09-08_13h01.11.539,CGTgamblingSpanTasks,2022.2.1,Win32,144.0299582,,,,,,,,2.8403,,,,,,,,,,,,,,2,v,1.1597,8.830252162,0,3.8403,1,,,,,,15.73000491,0,8.830252162,,,,,,,,,,,,,0,93,93,95,1,0.084193143,0,,,,,,,,,,,,,,,,,,,,,,,,,,,,,,,,,,,,,,,,,,,,,,,,,,,,,,,,,,,,,,,,,,,,,,,,,,,,,,,,
,,5ae090dadee8590001b078c8,2022-09-08_13h01.11.539,CGTgamblingSpanTasks,2022.2.1,Win32,144.0299582,,,,,,,,1.7895,,,,,,,,,,,,,,2,v,2.2105,9.936178001,0,3.2895,1.5,,,,,,19.58698544,0,9.936178001,,,,,,,,,,,,,0,94,94,77,1,0.098812204,0,,,,,,,,,,,,,,,,,,,,,,,,,,,,,,,,,,,,,,,,,,,,,,,,,,,,,,,,,,,,,,,,,,,,,,,,,,,,,,,,
,,5ae090dadee8590001b078c8,2022-09-08_13h01.11.539,CGTgamblingSpanTasks,2022.2.1,Win32,144.0299582,,,,,,,,3.1997,,,,,,,,,,,,,,2,n,0.8003,0,1,4.6997,1.5,,,,,,9.012590634,0,1.002188111,,,,,,,,,,,,,0,95,95,12,1,0.46958041,1,,,,,,,,,,,,,,,,,,,,,,,,,,,,,,,,,,,,,,,,,,,,,,,,,,,,,,,,,,,,,,,,,,,,,,,,,,,,,,,,
,,5ae090dadee8590001b078c8,2022-09-08_13h01.11.539,CGTgamblingSpanTasks,2022.2.1,Win32,144.0299582,,,,,,,,3.0142,,,,,,,,,,,,,,1,n,0.9858,11.6744431,0,4.0142,1,,,,,,10.43004651,0,11.6744431,,,,,,,,,,,,,0,96,96,15,1,0.026176489,0,,,,,,,,,,,,,,,,,,,,,,,,,,,,,,,,,,,,,,,,,,,,,,,,,,,,,,,,,,,,,,,,,,,,,,,,,,,,,,,,
,,5ae090dadee8590001b078c8,2022-09-08_13h01.11.539,CGTgamblingSpanTasks,2022.2.1,Win32,144.0299582,,,,,,,,3.0655,,,,,,,,,,,,,,1,n,0.9345,11.42134125,0,4.0655,1,,,,,,12.9904115,0,11.42134125,,,,,,,,,,,,,0,97,97,118,1,0.037876033,0,,,,,,,,,,,,,,,,,,,,,,,,,,,,,,,,,,,,,,,,,,,,,,,,,,,,,,,,,,,,,,,,,,,,,,,,,,,,,,,,
,,5ae090dadee8590001b078c8,2022-09-08_13h01.11.539,CGTgamblingSpanTasks,2022.2.1,Win32,144.0299582,,,,,,,,2.8575,,,,,,,,,,,,,,1,v,1.1425,15.43649625,1,3.8575,1,,,,,,15.43649625,0,1.65459324,,,,,,,,,,,,,0,98,98,33,1,0.479480163,1,,,,,,,,,,,,,,,,,,,,,,,,,,,,,,,,,,,,,,,,,,,,,,,,,,,,,,,,,,,,,,,,,,,,,,,,,,,,,,,,
,,5ae090dadee8590001b078c8,2022-09-08_13h01.11.539,CGTgamblingSpanTasks,2022.2.1,Win32,144.0299582,,,,,,,,3.1743,,,,,,,,,,,,,,1,v,0.8257,0,1,4.1743,1,,,,,,27.60724521,0,0.088432325,,,,,,,,,,,,,0,99,99,17,1,0.904684186,0,,,,,,,,,,,,,,,,,,,,,,,,,,,,,,,,,,,,,,,,,,,,,,,,,,,,,,,,,,,,,,,,,,,,,,,,,,,,,,,,
,,5ae090dadee8590001b078c8,2022-09-08_13h01.11.539,CGTgamblingSpanTasks,2022.2.1,Win32,144.0299582,,,,,,,,2.7275,,,,,,,,,,,,,,1,v,1.2725,25.65316415,1,3.7275,1,,,,,,25.65316415,0,0.079652925,,,,,,,,,,,,,0,100,100,109,1,0.90568168,0,,,,,,,,,,,,,,,,,,,,,,,,,,,,,,,,,,,,,,,,,,,,,,,,,,,,,,,,,,,,,,,,,,,,,,,,,,,,,,,,
,,5ae090dadee8590001b078c8,2022-09-08_13h01.11.539,CGTgamblingSpanTasks,2022.2.1,Win32,144.0299582,,,,,,,,2.5692,,,,,,,,,,,,,,2,n,1.4308,7.534278541,1,3.5692,1,,,,,,7.534278541,0,0.747140182,,,,,,,,,,,,,0,101,101,37,1,0.50012466,1,,,,,,,,,,,,,,,,,,,,,,,,,,,,,,,,,,,,,,,,,,,,,,,,,,,,,,,,,,,,,,,,,,,,,,,,,,,,,,,,
,,5ae090dadee8590001b078c8,2022-09-08_13h01.11.539,CGTgamblingSpanTasks,2022.2.1,Win32,144.0299582,,,,,,,,2.6474,,,,,,,,,,,,,,1,v,1.3526,13.4287264,1,4.1474,1.5,,,,,,13.4287264,0,1.317368801,,,,,,,,,,,,,0,102,102,100,1,0.502953125,1,,,,,,,,,,,,,,,,,,,,,,,,,,,,,,,,,,,,,,,,,,,,,,,,,,,,,,,,,,,,,,,,,,,,,,,,,,,,,,,,
,,5ae090dadee8590001b078c8,2022-09-08_13h01.11.539,CGTgamblingSpanTasks,2022.2.1,Win32,144.0299582,,,,,,,,3.0166,,,,,,,,,,,,,,1,v,0.9834,0,1,4.5166,1.5,,,,,,21.00799273,0,0.067969053,,,,,,,,,,,,,0,103,103,92,1,0.904360262,0,,,,,,,,,,,,,,,,,,,,,,,,,,,,,,,,,,,,,,,,,,,,,,,,,,,,,,,,,,,,,,,,,,,,,,,,,,,,,,,,
,,5ae090dadee8590001b078c8,2022-09-08_13h01.11.539,CGTgamblingSpanTasks,2022.2.1,Win32,144.0299582,,,,,,,,2.1929,,,,,,,,,,,,,,2,v,1.8071,10.31611309,0,3.6929,1.5,,,,,,19.30622782,0,10.31611309,,,,,,,,,,,,,0,104,104,1,1,0.091105656,0,,,,,,,,,,,,,,,,,,,,,,,,,,,,,,,,,,,,,,,,,,,,,,,,,,,,,,,,,,,,,,,,,,,,,,,,,,,,,,,,
,,5ae090dadee8590001b078c8,2022-09-08_13h01.11.539,CGTgamblingSpanTasks,2022.2.1,Win32,144.0299582,,,,,,,,3.0876,,,,,,,,,,,,,,2,n,0.9124,23.59556381,1,4.5876,1.5,,,,,,23.59556381,0,2.464662219,,,,,,,,,,,,,0,105,105,22,1,0.486383205,1,,,,,,,,,,,,,,,,,,,,,,,,,,,,,,,,,,,,,,,,,,,,,,,,,,,,,,,,,,,,,,,,,,,,,,,,,,,,,,,,
,,5ae090dadee8590001b078c8,2022-09-08_13h01.11.539,CGTgamblingSpanTasks,2022.2.1,Win32,144.0299582,,,,,,,,2.889,,,,,,,,,,,,,,2,n,1.111,21.03408097,1,4.389,1.5,,,,,,21.03408097,0,2.208275162,,,,,,,,,,,,,0,106,106,0,1,0.485031246,1,,,,,,,,,,,,,,,,,,,,,,,,,,,,,,,,,,,,,,,,,,,,,,,,,,,,,,,,,,,,,,,,,,,,,,,,,,,,,,,,
,,5ae090dadee8590001b078c8,2022-09-08_13h01.11.539,CGTgamblingSpanTasks,2022.2.1,Win32,144.0299582,,,,,,,,3.0481,,,,,,,,,,,,,,1,v,0.9519,26.4985979,1,4.5481,1.5,,,,,,26.4985979,0,0.051324376,,,,,,,,,,,,,0,107,107,106,1,0.918747215,0,,,,,,,,,,,,,,,,,,,,,,,,,,,,,,,,,,,,,,,,,,,,,,,,,,,,,,,,,,,,,,,,,,,,,,,,,,,,,,,,
,,5ae090dadee8590001b078c8,2022-09-08_13h01.11.539,CGTgamblingSpanTasks,2022.2.1,Win32,144.0299582,,,,,,,,2.9692,,,,,,,,,,,,,,2,n,1.0308,29.77342428,1,3.9692,1,,,,,,29.77342428,0,2.838865588,,,,,,,,,,,,,0,108,108,57,1,0.510363415,1,,,,,,,,,,,,,,,,,,,,,,,,,,,,,,,,,,,,,,,,,,,,,,,,,,,,,,,,,,,,,,,,,,,,,,,,,,,,,,,,
,,5ae090dadee8590001b078c8,2022-09-08_13h01.11.539,CGTgamblingSpanTasks,2022.2.1,Win32,144.0299582,,,,,,,,3.041,,,,,,,,,,,,,,2,n,0.959,0,1,4.541,1.5,,,,,,18.50662664,0,0.052546026,,,,,,,,,,,,,0,109,109,112,1,0.908444837,0,,,,,,,,,,,,,,,,,,,,,,,,,,,,,,,,,,,,,,,,,,,,,,,,,,,,,,,,,,,,,,,,,,,,,,,,,,,,,,,,
,,5ae090dadee8590001b078c8,2022-09-08_13h01.11.539,CGTgamblingSpanTasks,2022.2.1,Win32,144.0299582,,,,,,,,3.2469,,,,,,,,,,,,,,1,v,0.7531,24.66627941,1,4.7469,1.5,,,,,,24.66627941,0,2.765426402,,,,,,,,,,,,,0,110,110,24,1,0.467360588,1,,,,,,,,,,,,,,,,,,,,,,,,,,,,,,,,,,,,,,,,,,,,,,,,,,,,,,,,,,,,,,,,,,,,,,,,,,,,,,,,
,,5ae090dadee8590001b078c8,2022-09-08_13h01.11.539,CGTgamblingSpanTasks,2022.2.1,Win32,144.0299582,,,,,,,,2.7974,,,,,,,,,,,,,,1,n,1.2026,11.93550497,0,3.7974,1,,,,,,14.20587264,0,11.93550497,,,,,,,,,,,,,0,111,111,21,1,0.041340301,0,,,,,,,,,,,,,,,,,,,,,,,,,,,,,,,,,,,,,,,,,,,,,,,,,,,,,,,,,,,,,,,,,,,,,,,,,,,,,,,,
,,5ae090dadee8590001b078c8,2022-09-08_13h01.11.539,CGTgamblingSpanTasks,2022.2.1,Win32,144.0299582,,,,,,,,2.8775,,,,,,,,,,,,,,1,n,1.1225,3.877530383,0,3.8775,1,,,,,,3.471484939,0,3.877530383,,,,,,,,,,,,,0,112,112,40,1,0.02623078,0,,,,,,,,,,,,,,,,,,,,,,,,,,,,,,,,,,,,,,,,,,,,,,,,,,,,,,,,,,,,,,,,,,,,,,,,,,,,,,,,
,,5ae090dadee8590001b078c8,2022-09-08_13h01.11.539,CGTgamblingSpanTasks,2022.2.1,Win32,144.0299582,,,,,,,,2.839,,,,,,,,,,,,,,1,v,1.161,21.2188881,1,3.839,1,,,,,,21.2188881,0,2.067660742,,,,,,,,,,,,,0,113,113,107,1,0.50470775,1,,,,,,,,,,,,,,,,,,,,,,,,,,,,,,,,,,,,,,,,,,,,,,,,,,,,,,,,,,,,,,,,,,,,,,,,,,,,,,,,
,,5ae090dadee8590001b078c8,2022-09-08_13h01.11.539,CGTgamblingSpanTasks,2022.2.1,Win32,144.0299582,,,,,,,,2.8948,,,,,,,,,,,,,,1,v,1.1052,21.7711579,1,3.8948,1,,,,,,21.7711579,0,2.502728921,,,,,,,,,,,,,0,114,114,101,1,0.460552621,1,,,,,,,,,,,,,,,,,,,,,,,,,,,,,,,,,,,,,,,,,,,,,,,,,,,,,,,,,,,,,,,,,,,,,,,,,,,,,,,,
,,5ae090dadee8590001b078c8,2022-09-08_13h01.11.539,CGTgamblingSpanTasks,2022.2.1,Win32,144.0299582,,,,,,,,2.8709,,,,,,,,,,,,,,2,n,1.1291,11.16819157,1,3.8709,1,,,,,,11.16819157,0,0.941456753,,,,,,,,,,,,,0,115,115,45,1,0.54163803,1,,,,,,,,,,,,,,,,,,,,,,,,,,,,,,,,,,,,,,,,,,,,,,,,,,,,,,,,,,,,,,,,,,,,,,,,,,,,,,,,
,,5ae090dadee8590001b078c8,2022-09-08_13h01.11.539,CGTgamblingSpanTasks,2022.2.1,Win32,144.0299582,,,,,,,,2.7407,,,,,,,,,,,,,,1,n,1.2593,4.462262453,0,3.7407,1,,,,,,0.192759042,0,4.462262453,,,,,,,,,,,,,0,116,116,52,1,0.003553223,0,,,,,,,,,,,,,,,,,,,,,,,,,,,,,,,,,,,,,,,,,,,,,,,,,,,,,,,,,,,,,,,,,,,,,,,,,,,,,,,,
,,5ae090dadee8590001b078c8,2022-09-08_13h01.11.539,CGTgamblingSpanTasks,2022.2.1,Win32,144.0299582,,,,,,,,2.3862,,,,,,,,,,,,,,1,n,1.6138,8.42547829,0,3.8862,1.5,,,,,,15.87668502,0,8.42547829,,,,,,,,,,,,,0,117,117,56,1,0.092099462,0,,,,,,,,,,,,,,,,,,,,,,,,,,,,,,,,,,,,,,,,,,,,,,,,,,,,,,,,,,,,,,,,,,,,,,,,,,,,,,,,
,,5ae090dadee8590001b078c8,2022-09-08_13h01.11.539,CGTgamblingSpanTasks,2022.2.1,Win32,144.0299582,,,,,,,,2.7899,,,,,,,,,,,,,,2,v,1.2101,10.68505773,0,3.7899,1,,,,,,17.64114152,0,10.68505773,,,,,,,,,,,,,0,118,118,98,1,0.074299362,0,,,,,,,,,,,,,,,,,,,,,,,,,,,,,,,,,,,,,,,,,,,,,,,,,,,,,,,,,,,,,,,,,,,,,,,,,,,,,,,,
,,5ae090dadee8590001b078c8,2022-09-08_13h01.11.539,CGTgamblingSpanTasks,2022.2.1,Win32,144.0299582,,,,,,,,3.1045,,,,,,,,,,,,,,2,n,0.8955,19.68065872,1,4.1045,1,,,,,,19.68065872,0,1.843597162,,,,,,,,,,,,,0,119,119,80,1,0.514941058,1,,,,,,,,,,,,,,,,,,,,,,,,,,,,,,,,,,,,,,,,,,,,,,,,,,,,,,,,,,,,,,,,,,,,,,,,,,,,,,,,
,,5ae090dadee8590001b078c8,2022-09-08_13h01.11.539,CGTgamblingSpanTasks,2022.2.1,Win32,144.0299582,,,,,,,,,,,,,,,,,,,,,,,,,,,,,,,,,,,,,,,,,,,,,,,,,,,,,,,,return,37.1615,,,,,,,,,,,,,,,,,,,,,,,,,,,,,,,,,,,,,,,,,,,,,,,,,,,,,,,,,,,,,,,,,,,,,,,,,,,,,,
,,5ae090dadee8590001b078c8,2022-09-08_13h01.11.539,CGTgamblingSpanTasks,2022.2.1,Win32,144.0299582,,,,,,,,,,,,,,,,,,,,,,,,,,,,,,,,,,,,,,,,,,,,,,,,,,,,,,,,,,return,15.6076,,,,,,,,,,,,,,,,,,,,,,,,,,,,,,,,,,,,,,,,,,,,,,,,,,,,,,,,,,,,,,,,,,,,,,,,,,,,
,,5ae090dadee8590001b078c8,2022-09-08_13h01.11.539,CGTgamblingSpanTasks,2022.2.1,Win32,144.0299582,,,,,,,,,,,,,,,,,,,,,,,,,,,,,,,,,,,,,,,,,,,,,,,,,,,,,,,,,,,,return,25.8129,,,,,,,,,,,,,,,,,,,,,,,,,,,,,,,,,,,,,,,,,,,,,,,,,,,,,,,,,,,,,,,,,,,,,,,,,,
,,5ae090dadee8590001b078c8,2022-09-08_13h01.11.539,CGTgamblingSpanTasks,2022.2.1,Win32,144.0299582,,,,,,,,,,,,,,,,,,,,,,,,,,,,,,,,,,,,,,,,,,,,,,,,,,,,,,,,,,,,,,342,1,0.034027778,-0.386111111,1,0,0,cont_buttonPractice,0,0,0,0,1,3,342,24,2,42,,,,,,,,,,,,,,,,,,,,,,,,,,,,,,,,,,,,,,,,,,,,,,,,,,,,,,,,
,,5ae090dadee8590001b078c8,2022-09-08_13h01.11.539,CGTgamblingSpanTasks,2022.2.1,Win32,144.0299582,,,,,,,,,,,,,,,,,,,,,,,,,,,,,,,,,,,,,,,,,,,,,,,,,,,,,,,,,,,,,,937,1,0.049305556,-0.384027778,1,0,0,cont_buttonPractice,0,1,1,1,1,3,937,73,2,37,,,,,,,,,,,,,,,,,,,,,,,,,,,,,,,,,,,,,,,,,,,,,,,,,,,,,,,,
,,5ae090dadee8590001b078c8,2022-09-08_13h01.11.539,CGTgamblingSpanTasks,2022.2.1,Win32,144.0299582,,,,,,,,,,,,,,,,,,,,,,,,,,,,,,,,,,,,,,,,,,,,,,,,,,,,,,,,,,,,,,,,,,,,,,,,,,,,,,,,return,9.689,,,,,,,,,,,,,,,,,,,,,,,,,,,,,,,,,,,,,,,,,,,,,,,,,,,,,,
,,5ae090dadee8590001b078c8,2022-09-08_13h01.11.539,CGTgamblingSpanTasks,2022.2.1,Win32,144.0299582,,,,,,,,,,,,,,,,,,,,,,,,,,,,,,,,,,,,,,,,,,,,,,,,,,,,,,,,,,,,,,,,,,,,,,,,,,,,,,,,,,"[7,2,4]",0,0,0,0,1,,,,,,,,,,,,,,,,,,,,,,,,,,,,,,,,,,,,,,,,,,,,,,,,
,,5ae090dadee8590001b078c8,2022-09-08_13h01.11.539,CGTgamblingSpanTasks,2022.2.1,Win32,144.0299582,,,,,,,,,,,,,,,,,,,,,,,,,,,,,,,,,,,,,,,,,,,,,,,,,,,,,,,,,,,,,,,,,,,,,,,,,,,,,,,,,,"[7,2,4]",1,0,1,0,1,,,,,,,,,,,,,,,,,,,,,,,,,,,,,,,,,,,,,,,,,,,,,,,,
,,5ae090dadee8590001b078c8,2022-09-08_13h01.11.539,CGTgamblingSpanTasks,2022.2.1,Win32,144.0299582,,,,,,,,,,,,,,,,,,,,,,,,,,,,,,,,,,,,,,,,,,,,,,,,,,,,,,,,,,,,,,,,,,,,,,,,,,,,,,,,,,"[7,2,4]",2,0,2,0,1,,,,,,,,,,,,,,,,,,,,,,,,,,,,,,,,,,,,,,,,,,,,,,,,
,,5ae090dadee8590001b078c8,2022-09-08_13h01.11.539,CGTgamblingSpanTasks,2022.2.1,Win32,144.0299582,,,,,,,,,,,,,,,,,,,,,,,,,,,,,,,,,,,,,,,,,,,,,,,,,,,,,,,,,,,,,,,1,,,,,,,,,,,,,,,,,,,,,,,,,724,0.038194444,-0.410416667,1,0,0,cont_button,0,0,0,0,1,1,,,,,,,,,,,,,,,,,,,,,,,,,,,,,,,,,,,
,,5ae090dadee8590001b078c8,2022-09-08_13h01.11.539,CGTgamblingSpanTasks,2022.2.1,Win32,144.0299582,,,,,,,,,,,,,,,,,,,,,,,,,,,,,,,,,,,,,,,,,,,,,,,,,,,,,,,,,,,,,,,,,,,,,,,,,,,,,,,,,,"[7,3,2,4]",0,0,0,0,1,,,,,,,,,,,,,,,,,,,,,,,,,,,,,,,,,,,,,,,,,,,,,,,,
,,5ae090dadee8590001b078c8,2022-09-08_13h01.11.539,CGTgamblingSpanTasks,2022.2.1,Win32,144.0299582,,,,,,,,,,,,,,,,,,,,,,,,,,,,,,,,,,,,,,,,,,,,,,,,,,,,,,,,,,,,,,,,,,,,,,,,,,,,,,,,,,"[7,3,2,4]",1,0,1,0,1,,,,,,,,,,,,,,,,,,,,,,,,,,,,,,,,,,,,,,,,,,,,,,,,
,,5ae090dadee8590001b078c8,2022-09-08_13h01.11.539,CGTgamblingSpanTasks,2022.2.1,Win32,144.0299582,,,,,,,,,,,,,,,,,,,,,,,,,,,,,,,,,,,,,,,,,,,,,,,,,,,,,,,,,,,,,,,,,,,,,,,,,,,,,,,,,,"[7,3,2,4]",2,0,2,0,1,,,,,,,,,,,,,,,,,,,,,,,,,,,,,,,,,,,,,,,,,,,,,,,,
,,5ae090dadee8590001b078c8,2022-09-08_13h01.11.539,CGTgamblingSpanTasks,2022.2.1,Win32,144.0299582,,,,,,,,,,,,,,,,,,,,,,,,,,,,,,,,,,,,,,,,,,,,,,,,,,,,,,,,,,,,,,,,,,,,,,,,,,,,,,,,,,"[7,3,2,4]",3,0,3,0,1,,,,,,,,,,,,,,,,,,,,,,,,,,,,,,,,,,,,,,,,,,,,,,,,
,,5ae090dadee8590001b078c8,2022-09-08_13h01.11.539,CGTgamblingSpanTasks,2022.2.1,Win32,144.0299582,,,,,,,,,,,,,,,,,,,,,,,,,,,,,,,,,,,,,,,,,,,,,,,,,,,,,,,,,,,,,,,1,,,,,,,,,,,,,,,,,,,,,,,,,7324,0.054166667,-0.386805556,1,0,0,cont_button,0,1,1,1,1,2,,,,,,,,,,,,,,,,,,,,,,,,,,,,,,,,,,,
,,5ae090dadee8590001b078c8,2022-09-08_13h01.11.539,CGTgamblingSpanTasks,2022.2.1,Win32,144.0299582,,,,,,,,,,,,,,,,,,,,,,,,,,,,,,,,,,,,,,,,,,,,,,,,,,,,,,,,,,,,,,,,,,,,,,,,,,,,,,,,,,"[1,8,7,3,2]",0,0,0,0,1,,,,,,,,,,,,,,,,,,,,,,,,,,,,,,,,,,,,,,,,,,,,,,,,
,,5ae090dadee8590001b078c8,2022-09-08_13h01.11.539,CGTgamblingSpanTasks,2022.2.1,Win32,144.0299582,,,,,,,,,,,,,,,,,,,,,,,,,,,,,,,,,,,,,,,,,,,,,,,,,,,,,,,,,,,,,,,,,,,,,,,,,,,,,,,,,,"[1,8,7,3,2]",1,0,1,0,1,,,,,,,,,,,,,,,,,,,,,,,,,,,,,,,,,,,,,,,,,,,,,,,,
,,5ae090dadee8590001b078c8,2022-09-08_13h01.11.539,CGTgamblingSpanTasks,2022.2.1,Win32,144.0299582,,,,,,,,,,,,,,,,,,,,,,,,,,,,,,,,,,,,,,,,,,,,,,,,,,,,,,,,,,,,,,,,,,,,,,,,,,,,,,,,,,"[1,8,7,3,2]",2,0,2,0,1,,,,,,,,,,,,,,,,,,,,,,,,,,,,,,,,,,,,,,,,,,,,,,,,
,,5ae090dadee8590001b078c8,2022-09-08_13h01.11.539,CGTgamblingSpanTasks,2022.2.1,Win32,144.0299582,,,,,,,,,,,,,,,,,,,,,,,,,,,,,,,,,,,,,,,,,,,,,,,,,,,,,,,,,,,,,,,,,,,,,,,,,,,,,,,,,,"[1,8,7,3,2]",3,0,3,0,1,,,,,,,,,,,,,,,,,,,,,,,,,,,,,,,,,,,,,,,,,,,,,,,,
,,5ae090dadee8590001b078c8,2022-09-08_13h01.11.539,CGTgamblingSpanTasks,2022.2.1,Win32,144.0299582,,,,,,,,,,,,,,,,,,,,,,,,,,,,,,,,,,,,,,,,,,,,,,,,,,,,,,,,,,,,,,,,,,,,,,,,,,,,,,,,,,"[1,8,7,3,2]",4,0,4,0,1,,,,,,,,,,,,,,,,,,,,,,,,,,,,,,,,,,,,,,,,,,,,,,,,
,,5ae090dadee8590001b078c8,2022-09-08_13h01.11.539,CGTgamblingSpanTasks,2022.2.1,Win32,144.0299582,,,,,,,,,,,,,,,,,,,,,,,,,,,,,,,,,,,,,,,,,,,,,,,,,,,,,,,,,,,,,,,0,,,,,,,,,,,,,,,,,,,,,,,,,18372,0.071527778,-0.391666667,1,0,0,cont_button,0,2,2,2,1,3,,,,,,,,,,,,,,,,,,,,,,,,,,,,,,,,,,,
,,5ae090dadee8590001b078c8,2022-09-08_13h01.11.539,CGTgamblingSpanTasks,2022.2.1,Win32,144.0299582,,,,,,,,,,,,,,,,,,,,,,,,,,,,,,,,,,,,,,,,,,,,,,,,,,,,,,,,,,,,,,,,,,,,,,,,,,,,,,,,,,"[3,8,5,4,2]",0,0,0,0,1,,,,,,,,,,,,,,,,,,,,,,,,,,,,,,,,,,,,,,,,,,,,,,,,
,,5ae090dadee8590001b078c8,2022-09-08_13h01.11.539,CGTgamblingSpanTasks,2022.2.1,Win32,144.0299582,,,,,,,,,,,,,,,,,,,,,,,,,,,,,,,,,,,,,,,,,,,,,,,,,,,,,,,,,,,,,,,,,,,,,,,,,,,,,,,,,,"[3,8,5,4,2]",1,0,1,0,1,,,,,,,,,,,,,,,,,,,,,,,,,,,,,,,,,,,,,,,,,,,,,,,,
,,5ae090dadee8590001b078c8,2022-09-08_13h01.11.539,CGTgamblingSpanTasks,2022.2.1,Win32,144.0299582,,,,,,,,,,,,,,,,,,,,,,,,,,,,,,,,,,,,,,,,,,,,,,,,,,,,,,,,,,,,,,,,,,,,,,,,,,,,,,,,,,"[3,8,5,4,2]",2,0,2,0,1,,,,,,,,,,,,,,,,,,,,,,,,,,,,,,,,,,,,,,,,,,,,,,,,
,,5ae090dadee8590001b078c8,2022-09-08_13h01.11.539,CGTgamblingSpanTasks,2022.2.1,Win32,144.0299582,,,,,,,,,,,,,,,,,,,,,,,,,,,,,,,,,,,,,,,,,,,,,,,,,,,,,,,,,,,,,,,,,,,,,,,,,,,,,,,,,,"[3,8,5,4,2]",3,0,3,0,1,,,,,,,,,,,,,,,,,,,,,,,,,,,,,,,,,,,,,,,,,,,,,,,,
,,5ae090dadee8590001b078c8,2022-09-08_13h01.11.539,CGTgamblingSpanTasks,2022.2.1,Win32,144.0299582,,,,,,,,,,,,,,,,,,,,,,,,,,,,,,,,,,,,,,,,,,,,,,,,,,,,,,,,,,,,,,,,,,,,,,,,,,,,,,,,,,"[3,8,5,4,2]",4,0,4,0,1,,,,,,,,,,,,,,,,,,,,,,,,,,,,,,,,,,,,,,,,,,,,,,,,
,,5ae090dadee8590001b078c8,2022-09-08_13h01.11.539,CGTgamblingSpanTasks,2022.2.1,Win32,144.0299582,,,,,,,,,,,,,,,,,,,,,,,,,,,,,,,,,,,,,,,,,,,,,,,,,,,,,,,,,,,,,,,1,,,,,,,,,,,,,,,,,,,,,,,,,38542,0.000694444,-0.425694444,1,0,0,cont_button,0,3,3,3,1,4,,,,,,,,,,,,,,,,,,,,,,,,,,,,,,,,,,,
,,5ae090dadee8590001b078c8,2022-09-08_13h01.11.539,CGTgamblingSpanTasks,2022.2.1,Win32,144.0299582,,,,,,,,,,,,,,,,,,,,,,,,,,,,,,,,,,,,,,,,,,,,,,,,,,,,,,,,,,,,,,,,,,,,,,,,,,,,,,,,,,"[5,9,4,6,7,2]",0,0,0,0,1,,,,,,,,,,,,,,,,,,,,,,,,,,,,,,,,,,,,,,,,,,,,,,,,
,,5ae090dadee8590001b078c8,2022-09-08_13h01.11.539,CGTgamblingSpanTasks,2022.2.1,Win32,144.0299582,,,,,,,,,,,,,,,,,,,,,,,,,,,,,,,,,,,,,,,,,,,,,,,,,,,,,,,,,,,,,,,,,,,,,,,,,,,,,,,,,,"[5,9,4,6,7,2]",1,0,1,0,1,,,,,,,,,,,,,,,,,,,,,,,,,,,,,,,,,,,,,,,,,,,,,,,,
,,5ae090dadee8590001b078c8,2022-09-08_13h01.11.539,CGTgamblingSpanTasks,2022.2.1,Win32,144.0299582,,,,,,,,,,,,,,,,,,,,,,,,,,,,,,,,,,,,,,,,,,,,,,,,,,,,,,,,,,,,,,,,,,,,,,,,,,,,,,,,,,"[5,9,4,6,7,2]",2,0,2,0,1,,,,,,,,,,,,,,,,,,,,,,,,,,,,,,,,,,,,,,,,,,,,,,,,
,,5ae090dadee8590001b078c8,2022-09-08_13h01.11.539,CGTgamblingSpanTasks,2022.2.1,Win32,144.0299582,,,,,,,,,,,,,,,,,,,,,,,,,,,,,,,,,,,,,,,,,,,,,,,,,,,,,,,,,,,,,,,,,,,,,,,,,,,,,,,,,,"[5,9,4,6,7,2]",3,0,3,0,1,,,,,,,,,,,,,,,,,,,,,,,,,,,,,,,,,,,,,,,,,,,,,,,,
,,5ae090dadee8590001b078c8,2022-09-08_13h01.11.539,CGTgamblingSpanTasks,2022.2.1,Win32,144.0299582,,,,,,,,,,,,,,,,,,,,,,,,,,,,,,,,,,,,,,,,,,,,,,,,,,,,,,,,,,,,,,,,,,,,,,,,,,,,,,,,,,"[5,9,4,6,7,2]",4,0,4,0,1,,,,,,,,,,,,,,,,,,,,,,,,,,,,,,,,,,,,,,,,,,,,,,,,
,,5ae090dadee8590001b078c8,2022-09-08_13h01.11.539,CGTgamblingSpanTasks,2022.2.1,Win32,144.0299582,,,,,,,,,,,,,,,,,,,,,,,,,,,,,,,,,,,,,,,,,,,,,,,,,,,,,,,,,,,,,,,,,,,,,,,,,,,,,,,,,,"[5,9,4,6,7,2]",5,0,5,0,1,,,,,,,,,,,,,,,,,,,,,,,,,,,,,,,,,,,,,,,,,,,,,,,,
,,5ae090dadee8590001b078c8,2022-09-08_13h01.11.539,CGTgamblingSpanTasks,2022.2.1,Win32,144.0299582,,,,,,,,,,,,,,,,,,,,,,,,,,,,,,,,,,,,,,,,,,,,,,,,,,,,,,,,,,,,,,,1,,,,,,,,,,,,,,,,,,,,,,,,,594672,0.059027778,-0.393055556,1,0,0,cont_button,0,4,4,4,1,5,,,,,,,,,,,,,,,,,,,,,,,,,,,,,,,,,,,
,,5ae090dadee8590001b078c8,2022-09-08_13h01.11.539,CGTgamblingSpanTasks,2022.2.1,Win32,144.0299582,,,,,,,,,,,,,,,,,,,,,,,,,,,,,,,,,,,,,,,,,,,,,,,,,,,,,,,,,,,,,,,,,,,,,,,,,,,,,,,,,,"[8,1,3,5,9,6,7]",0,0,0,0,1,,,,,,,,,,,,,,,,,,,,,,,,,,,,,,,,,,,,,,,,,,,,,,,,
,,5ae090dadee8590001b078c8,2022-09-08_13h01.11.539,CGTgamblingSpanTasks,2022.2.1,Win32,144.0299582,,,,,,,,,,,,,,,,,,,,,,,,,,,,,,,,,,,,,,,,,,,,,,,,,,,,,,,,,,,,,,,,,,,,,,,,,,,,,,,,,,"[8,1,3,5,9,6,7]",1,0,1,0,1,,,,,,,,,,,,,,,,,,,,,,,,,,,,,,,,,,,,,,,,,,,,,,,,
,,5ae090dadee8590001b078c8,2022-09-08_13h01.11.539,CGTgamblingSpanTasks,2022.2.1,Win32,144.0299582,,,,,,,,,,,,,,,,,,,,,,,,,,,,,,,,,,,,,,,,,,,,,,,,,,,,,,,,,,,,,,,,,,,,,,,,,,,,,,,,,,"[8,1,3,5,9,6,7]",2,0,2,0,1,,,,,,,,,,,,,,,,,,,,,,,,,,,,,,,,,,,,,,,,,,,,,,,,
,,5ae090dadee8590001b078c8,2022-09-08_13h01.11.539,CGTgamblingSpanTasks,2022.2.1,Win32,144.0299582,,,,,,,,,,,,,,,,,,,,,,,,,,,,,,,,,,,,,,,,,,,,,,,,,,,,,,,,,,,,,,,,,,,,,,,,,,,,,,,,,,"[8,1,3,5,9,6,7]",3,0,3,0,1,,,,,,,,,,,,,,,,,,,,,,,,,,,,,,,,,,,,,,,,,,,,,,,,
,,5ae090dadee8590001b078c8,2022-09-08_13h01.11.539,CGTgamblingSpanTasks,2022.2.1,Win32,144.0299582,,,,,,,,,,,,,,,,,,,,,,,,,,,,,,,,,,,,,,,,,,,,,,,,,,,,,,,,,,,,,,,,,,,,,,,,,,,,,,,,,,"[8,1,3,5,9,6,7]",4,0,4,0,1,,,,,,,,,,,,,,,,,,,,,,,,,,,,,,,,,,,,,,,,,,,,,,,,
,,5ae090dadee8590001b078c8,2022-09-08_13h01.11.539,CGTgamblingSpanTasks,2022.2.1,Win32,144.0299582,,,,,,,,,,,,,,,,,,,,,,,,,,,,,,,,,,,,,,,,,,,,,,,,,,,,,,,,,,,,,,,,,,,,,,,,,,,,,,,,,,"[8,1,3,5,9,6,7]",5,0,5,0,1,,,,,,,,,,,,,,,,,,,,,,,,,,,,,,,,,,,,,,,,,,,,,,,,
,,5ae090dadee8590001b078c8,2022-09-08_13h01.11.539,CGTgamblingSpanTasks,2022.2.1,Win32,144.0299582,,,,,,,,,,,,,,,,,,,,,,,,,,,,,,,,,,,,,,,,,,,,,,,,,,,,,,,,,,,,,,,,,,,,,,,,,,,,,,,,,,"[8,1,3,5,9,6,7]",6,0,6,0,1,,,,,,,,,,,,,,,,,,,,,,,,,,,,,,,,,,,,,,,,,,,,,,,,
,,5ae090dadee8590001b078c8,2022-09-08_13h01.11.539,CGTgamblingSpanTasks,2022.2.1,Win32,144.0299582,,,,,,,,,,,,,,,,,,,,,,,,,,,,,,,,,,,,,,,,,,,,,,,,,,,,,,,,,,,,,,,1,,,,,,,,,,,,,,,,,,,,,,,,,8135967,0.109027778,-0.41875,1,0,0,cont_button,0,5,5,5,1,6,,,,,,,,,,,,,,,,,,,,,,,,,,,,,,,,,,,
,,5ae090dadee8590001b078c8,2022-09-08_13h01.11.539,CGTgamblingSpanTasks,2022.2.1,Win32,144.0299582,,,,,,,,,,,,,,,,,,,,,,,,,,,,,,,,,,,,,,,,,,,,,,,,,,,,,,,,,,,,,,,,,,,,,,,,,,,,,,,,,,"[7,6,4,3,8,2,1,9]",0,0,0,0,1,,,,,,,,,,,,,,,,,,,,,,,,,,,,,,,,,,,,,,,,,,,,,,,,
,,5ae090dadee8590001b078c8,2022-09-08_13h01.11.539,CGTgamblingSpanTasks,2022.2.1,Win32,144.0299582,,,,,,,,,,,,,,,,,,,,,,,,,,,,,,,,,,,,,,,,,,,,,,,,,,,,,,,,,,,,,,,,,,,,,,,,,,,,,,,,,,"[7,6,4,3,8,2,1,9]",1,0,1,0,1,,,,,,,,,,,,,,,,,,,,,,,,,,,,,,,,,,,,,,,,,,,,,,,,
,,5ae090dadee8590001b078c8,2022-09-08_13h01.11.539,CGTgamblingSpanTasks,2022.2.1,Win32,144.0299582,,,,,,,,,,,,,,,,,,,,,,,,,,,,,,,,,,,,,,,,,,,,,,,,,,,,,,,,,,,,,,,,,,,,,,,,,,,,,,,,,,"[7,6,4,3,8,2,1,9]",2,0,2,0,1,,,,,,,,,,,,,,,,,,,,,,,,,,,,,,,,,,,,,,,,,,,,,,,,
,,5ae090dadee8590001b078c8,2022-09-08_13h01.11.539,CGTgamblingSpanTasks,2022.2.1,Win32,144.0299582,,,,,,,,,,,,,,,,,,,,,,,,,,,,,,,,,,,,,,,,,,,,,,,,,,,,,,,,,,,,,,,,,,,,,,,,,,,,,,,,,,"[7,6,4,3,8,2,1,9]",3,0,3,0,1,,,,,,,,,,,,,,,,,,,,,,,,,,,,,,,,,,,,,,,,,,,,,,,,
,,5ae090dadee8590001b078c8,2022-09-08_13h01.11.539,CGTgamblingSpanTasks,2022.2.1,Win32,144.0299582,,,,,,,,,,,,,,,,,,,,,,,,,,,,,,,,,,,,,,,,,,,,,,,,,,,,,,,,,,,,,,,,,,,,,,,,,,,,,,,,,,"[7,6,4,3,8,2,1,9]",4,0,4,0,1,,,,,,,,,,,,,,,,,,,,,,,,,,,,,,,,,,,,,,,,,,,,,,,,
,,5ae090dadee8590001b078c8,2022-09-08_13h01.11.539,CGTgamblingSpanTasks,2022.2.1,Win32,144.0299582,,,,,,,,,,,,,,,,,,,,,,,,,,,,,,,,,,,,,,,,,,,,,,,,,,,,,,,,,,,,,,,,,,,,,,,,,,,,,,,,,,"[7,6,4,3,8,2,1,9]",5,0,5,0,1,,,,,,,,,,,,,,,,,,,,,,,,,,,,,,,,,,,,,,,,,,,,,,,,
,,5ae090dadee8590001b078c8,2022-09-08_13h01.11.539,CGTgamblingSpanTasks,2022.2.1,Win32,144.0299582,,,,,,,,,,,,,,,,,,,,,,,,,,,,,,,,,,,,,,,,,,,,,,,,,,,,,,,,,,,,,,,,,,,,,,,,,,,,,,,,,,"[7,6,4,3,8,2,1,9]",6,0,6,0,1,,,,,,,,,,,,,,,,,,,,,,,,,,,,,,,,,,,,,,,,,,,,,,,,
,,5ae090dadee8590001b078c8,2022-09-08_13h01.11.539,CGTgamblingSpanTasks,2022.2.1,Win32,144.0299582,,,,,,,,,,,,,,,,,,,,,,,,,,,,,,,,,,,,,,,,,,,,,,,,,,,,,,,,,,,,,,,,,,,,,,,,,,,,,,,,,,"[7,6,4,3,8,2,1,9]",7,0,7,0,1,,,,,,,,,,,,,,,,,,,,,,,,,,,,,,,,,,,,,,,,,,,,,,,,
,,5ae090dadee8590001b078c8,2022-09-08_13h01.11.539,CGTgamblingSpanTasks,2022.2.1,Win32,144.0299582,,,,,,,,,,,,,,,,,,,,,,,,,,,,,,,,,,,,,,,,,,,,,,,,,,,,,,,,,,,,,,,0,,,,,,,,,,,,,,,,,,,,,,,,,76438216,0.033333333,-0.4,1,0,0,cont_button,0,6,6,6,1,7,,,,,,,,,,,,,,,,,,,,,,,,,,,,,,,,,,,
,,5ae090dadee8590001b078c8,2022-09-08_13h01.11.539,CGTgamblingSpanTasks,2022.2.1,Win32,144.0299582,,,,,,,,,,,,,,,,,,,,,,,,,,,,,,,,,,,,,,,,,,,,,,,,,,,,,,,,,,,,,,,,,,,,,,,,,,,,,,,,,,"[5,3,9,2,8,7,1,4]",0,0,0,0,1,,,,,,,,,,,,,,,,,,,,,,,,,,,,,,,,,,,,,,,,,,,,,,,,
,,5ae090dadee8590001b078c8,2022-09-08_13h01.11.539,CGTgamblingSpanTasks,2022.2.1,Win32,144.0299582,,,,,,,,,,,,,,,,,,,,,,,,,,,,,,,,,,,,,,,,,,,,,,,,,,,,,,,,,,,,,,,,,,,,,,,,,,,,,,,,,,"[5,3,9,2,8,7,1,4]",1,0,1,0,1,,,,,,,,,,,,,,,,,,,,,,,,,,,,,,,,,,,,,,,,,,,,,,,,
,,5ae090dadee8590001b078c8,2022-09-08_13h01.11.539,CGTgamblingSpanTasks,2022.2.1,Win32,144.0299582,,,,,,,,,,,,,,,,,,,,,,,,,,,,,,,,,,,,,,,,,,,,,,,,,,,,,,,,,,,,,,,,,,,,,,,,,,,,,,,,,,"[5,3,9,2,8,7,1,4]",2,0,2,0,1,,,,,,,,,,,,,,,,,,,,,,,,,,,,,,,,,,,,,,,,,,,,,,,,
,,5ae090dadee8590001b078c8,2022-09-08_13h01.11.539,CGTgamblingSpanTasks,2022.2.1,Win32,144.0299582,,,,,,,,,,,,,,,,,,,,,,,,,,,,,,,,,,,,,,,,,,,,,,,,,,,,,,,,,,,,,,,,,,,,,,,,,,,,,,,,,,"[5,3,9,2,8,7,1,4]",3,0,3,0,1,,,,,,,,,,,,,,,,,,,,,,,,,,,,,,,,,,,,,,,,,,,,,,,,
,,5ae090dadee8590001b078c8,2022-09-08_13h01.11.539,CGTgamblingSpanTasks,2022.2.1,Win32,144.0299582,,,,,,,,,,,,,,,,,,,,,,,,,,,,,,,,,,,,,,,,,,,,,,,,,,,,,,,,,,,,,,,,,,,,,,,,,,,,,,,,,,"[5,3,9,2,8,7,1,4]",4,0,4,0,1,,,,,,,,,,,,,,,,,,,,,,,,,,,,,,,,,,,,,,,,,,,,,,,,
,,5ae090dadee8590001b078c8,2022-09-08_13h01.11.539,CGTgamblingSpanTasks,2022.2.1,Win32,144.0299582,,,,,,,,,,,,,,,,,,,,,,,,,,,,,,,,,,,,,,,,,,,,,,,,,,,,,,,,,,,,,,,,,,,,,,,,,,,,,,,,,,"[5,3,9,2,8,7,1,4]",5,0,5,0,1,,,,,,,,,,,,,,,,,,,,,,,,,,,,,,,,,,,,,,,,,,,,,,,,
,,5ae090dadee8590001b078c8,2022-09-08_13h01.11.539,CGTgamblingSpanTasks,2022.2.1,Win32,144.0299582,,,,,,,,,,,,,,,,,,,,,,,,,,,,,,,,,,,,,,,,,,,,,,,,,,,,,,,,,,,,,,,,,,,,,,,,,,,,,,,,,,"[5,3,9,2,8,7,1,4]",6,0,6,0,1,,,,,,,,,,,,,,,,,,,,,,,,,,,,,,,,,,,,,,,,,,,,,,,,
,,5ae090dadee8590001b078c8,2022-09-08_13h01.11.539,CGTgamblingSpanTasks,2022.2.1,Win32,144.0299582,,,,,,,,,,,,,,,,,,,,,,,,,,,,,,,,,,,,,,,,,,,,,,,,,,,,,,,,,,,,,,,,,,,,,,,,,,,,,,,,,,"[5,3,9,2,8,7,1,4]",7,0,7,0,1,,,,,,,,,,,,,,,,,,,,,,,,,,,,,,,,,,,,,,,,,,,,,,,,
,,5ae090dadee8590001b078c8,2022-09-08_13h01.11.539,CGTgamblingSpanTasks,2022.2.1,Win32,144.0299582,,,,,,,,,,,,,,,,,,,,,,,,,,,,,,,,,,,,,,,,,,,,,,,,,,,,,,,,,,,,,,,0,,,,,,,,,,,,,,,,,,,,,,,,,53789274,0.058333333,-0.396527778,1,0,0,cont_button,0,7,7,7,1,8,,,,,,,,,,,,,,,,,,,,,,,,,,,,,,,,,,,
,,5ae090dadee8590001b078c8,2022-09-08_13h01.11.539,CGTgamblingSpanTasks,2022.2.1,Win32,144.0299582,,,,,,,,,,,,,,,,,,,,,,,,,,,,,,,,,,,,,,,,,,,,,,,,,,,,,,,,,,,,,,,,,,,,,,,,,,,,,,,,,,"[2,3,6,8,4,5,1]",0,0,0,0,1,,,,,,,,,,,,,,,,,,,,,,,,,,,,,,,,,,,,,,,,,,,,,,,,
,,5ae090dadee8590001b078c8,2022-09-08_13h01.11.539,CGTgamblingSpanTasks,2022.2.1,Win32,144.0299582,,,,,,,,,,,,,,,,,,,,,,,,,,,,,,,,,,,,,,,,,,,,,,,,,,,,,,,,,,,,,,,,,,,,,,,,,,,,,,,,,,"[2,3,6,8,4,5,1]",1,0,1,0,1,,,,,,,,,,,,,,,,,,,,,,,,,,,,,,,,,,,,,,,,,,,,,,,,
,,5ae090dadee8590001b078c8,2022-09-08_13h01.11.539,CGTgamblingSpanTasks,2022.2.1,Win32,144.0299582,,,,,,,,,,,,,,,,,,,,,,,,,,,,,,,,,,,,,,,,,,,,,,,,,,,,,,,,,,,,,,,,,,,,,,,,,,,,,,,,,,"[2,3,6,8,4,5,1]",2,0,2,0,1,,,,,,,,,,,,,,,,,,,,,,,,,,,,,,,,,,,,,,,,,,,,,,,,
,,5ae090dadee8590001b078c8,2022-09-08_13h01.11.539,CGTgamblingSpanTasks,2022.2.1,Win32,144.0299582,,,,,,,,,,,,,,,,,,,,,,,,,,,,,,,,,,,,,,,,,,,,,,,,,,,,,,,,,,,,,,,,,,,,,,,,,,,,,,,,,,"[2,3,6,8,4,5,1]",3,0,3,0,1,,,,,,,,,,,,,,,,,,,,,,,,,,,,,,,,,,,,,,,,,,,,,,,,
,,5ae090dadee8590001b078c8,2022-09-08_13h01.11.539,CGTgamblingSpanTasks,2022.2.1,Win32,144.0299582,,,,,,,,,,,,,,,,,,,,,,,,,,,,,,,,,,,,,,,,,,,,,,,,,,,,,,,,,,,,,,,,,,,,,,,,,,,,,,,,,,"[2,3,6,8,4,5,1]",4,0,4,0,1,,,,,,,,,,,,,,,,,,,,,,,,,,,,,,,,,,,,,,,,,,,,,,,,
,,5ae090dadee8590001b078c8,2022-09-08_13h01.11.539,CGTgamblingSpanTasks,2022.2.1,Win32,144.0299582,,,,,,,,,,,,,,,,,,,,,,,,,,,,,,,,,,,,,,,,,,,,,,,,,,,,,,,,,,,,,,,,,,,,,,,,,,,,,,,,,,"[2,3,6,8,4,5,1]",5,0,5,0,1,,,,,,,,,,,,,,,,,,,,,,,,,,,,,,,,,,,,,,,,,,,,,,,,
,,5ae090dadee8590001b078c8,2022-09-08_13h01.11.539,CGTgamblingSpanTasks,2022.2.1,Win32,144.0299582,,,,,,,,,,,,,,,,,,,,,,,,,,,,,,,,,,,,,,,,,,,,,,,,,,,,,,,,,,,,,,,,,,,,,,,,,,,,,,,,,,"[2,3,6,8,4,5,1]",6,0,6,0,1,,,,,,,,,,,,,,,,,,,,,,,,,,,,,,,,,,,,,,,,,,,,,,,,
,,5ae090dadee8590001b078c8,2022-09-08_13h01.11.539,CGTgamblingSpanTasks,2022.2.1,Win32,144.0299582,,,,,,,,,,,,,,,,,,,,,,,,,,,,,,,,,,,,,,,,,,,,,,,,,,,,,,,,,,,,,,,1,,,,,,,,,,,,,,,,,,,,,,,,,2368451,0.069444444,-0.397222222,1,0,0,cont_button,0,8,8,8,1,9,,,,,,,,,,,,,,,,,,,,,,,,,,,,,,,,,,,
,,5ae090dadee8590001b078c8,2022-09-08_13h01.11.539,CGTgamblingSpanTasks,2022.2.1,Win32,144.0299582,,,,,,,,,,,,,,,,,,,,,,,,,,,,,,,,,,,,,,,,,,,,,,,,,,,,,,,,,,,,,,,,,,,,,,,,,,,,,,,,,,"[8,3,6,1,4,5,7,2]",0,0,0,0,1,,,,,,,,,,,,,,,,,,,,,,,,,,,,,,,,,,,,,,,,,,,,,,,,
,,5ae090dadee8590001b078c8,2022-09-08_13h01.11.539,CGTgamblingSpanTasks,2022.2.1,Win32,144.0299582,,,,,,,,,,,,,,,,,,,,,,,,,,,,,,,,,,,,,,,,,,,,,,,,,,,,,,,,,,,,,,,,,,,,,,,,,,,,,,,,,,"[8,3,6,1,4,5,7,2]",1,0,1,0,1,,,,,,,,,,,,,,,,,,,,,,,,,,,,,,,,,,,,,,,,,,,,,,,,
,,5ae090dadee8590001b078c8,2022-09-08_13h01.11.539,CGTgamblingSpanTasks,2022.2.1,Win32,144.0299582,,,,,,,,,,,,,,,,,,,,,,,,,,,,,,,,,,,,,,,,,,,,,,,,,,,,,,,,,,,,,,,,,,,,,,,,,,,,,,,,,,"[8,3,6,1,4,5,7,2]",2,0,2,0,1,,,,,,,,,,,,,,,,,,,,,,,,,,,,,,,,,,,,,,,,,,,,,,,,
,,5ae090dadee8590001b078c8,2022-09-08_13h01.11.539,CGTgamblingSpanTasks,2022.2.1,Win32,144.0299582,,,,,,,,,,,,,,,,,,,,,,,,,,,,,,,,,,,,,,,,,,,,,,,,,,,,,,,,,,,,,,,,,,,,,,,,,,,,,,,,,,"[8,3,6,1,4,5,7,2]",3,0,3,0,1,,,,,,,,,,,,,,,,,,,,,,,,,,,,,,,,,,,,,,,,,,,,,,,,
,,5ae090dadee8590001b078c8,2022-09-08_13h01.11.539,CGTgamblingSpanTasks,2022.2.1,Win32,144.0299582,,,,,,,,,,,,,,,,,,,,,,,,,,,,,,,,,,,,,,,,,,,,,,,,,,,,,,,,,,,,,,,,,,,,,,,,,,,,,,,,,,"[8,3,6,1,4,5,7,2]",4,0,4,0,1,,,,,,,,,,,,,,,,,,,,,,,,,,,,,,,,,,,,,,,,,,,,,,,,
,,5ae090dadee8590001b078c8,2022-09-08_13h01.11.539,CGTgamblingSpanTasks,2022.2.1,Win32,144.0299582,,,,,,,,,,,,,,,,,,,,,,,,,,,,,,,,,,,,,,,,,,,,,,,,,,,,,,,,,,,,,,,,,,,,,,,,,,,,,,,,,,"[8,3,6,1,4,5,7,2]",5,0,5,0,1,,,,,,,,,,,,,,,,,,,,,,,,,,,,,,,,,,,,,,,,,,,,,,,,
,,5ae090dadee8590001b078c8,2022-09-08_13h01.11.539,CGTgamblingSpanTasks,2022.2.1,Win32,144.0299582,,,,,,,,,,,,,,,,,,,,,,,,,,,,,,,,,,,,,,,,,,,,,,,,,,,,,,,,,,,,,,,,,,,,,,,,,,,,,,,,,,"[8,3,6,1,4,5,7,2]",6,0,6,0,1,,,,,,,,,,,,,,,,,,,,,,,,,,,,,,,,,,,,,,,,,,,,,,,,
,,5ae090dadee8590001b078c8,2022-09-08_13h01.11.539,CGTgamblingSpanTasks,2022.2.1,Win32,144.0299582,,,,,,,,,,,,,,,,,,,,,,,,,,,,,,,,,,,,,,,,,,,,,,,,,,,,,,,,,,,,,,,,,,,,,,,,,,,,,,,,,,"[8,3,6,1,4,5,7,2]",7,0,7,0,1,,,,,,,,,,,,,,,,,,,,,,,,,,,,,,,,,,,,,,,,,,,,,,,,
,,5ae090dadee8590001b078c8,2022-09-08_13h01.11.539,CGTgamblingSpanTasks,2022.2.1,Win32,144.0299582,,,,,,,,,,,,,,,,,,,,,,,,,,,,,,,,,,,,,,,,,,,,,,,,,,,,,,,,,,,,,,,1,,,,,,,,,,,,,,,,,,,,,,,,,83614572,0.104166667,-0.399305556,1,0,0,cont_button,0,9,9,9,1,10,,,,,,,,,,,,,,,,,,,,,,,,,,,,,,,,,,,
,,5ae090dadee8590001b078c8,2022-09-08_13h01.11.539,CGTgamblingSpanTasks,2022.2.1,Win32,144.0299582,,,,,,,,,,,,,,,,,,,,,,,,,,,,,,,,,,,,,,,,,,,,,,,,,,,,,,,,,,,,,,,,,,,,,,,,,,,,,,,,,,"[2,1,5,8,9,4,6,7,3]",0,0,0,0,1,,,,,,,,,,,,,,,,,,,,,,,,,,,,,,,,,,,,,,,,,,,,,,,,
,,5ae090dadee8590001b078c8,2022-09-08_13h01.11.539,CGTgamblingSpanTasks,2022.2.1,Win32,144.0299582,,,,,,,,,,,,,,,,,,,,,,,,,,,,,,,,,,,,,,,,,,,,,,,,,,,,,,,,,,,,,,,,,,,,,,,,,,,,,,,,,,"[2,1,5,8,9,4,6,7,3]",1,0,1,0,1,,,,,,,,,,,,,,,,,,,,,,,,,,,,,,,,,,,,,,,,,,,,,,,,
,,5ae090dadee8590001b078c8,2022-09-08_13h01.11.539,CGTgamblingSpanTasks,2022.2.1,Win32,144.0299582,,,,,,,,,,,,,,,,,,,,,,,,,,,,,,,,,,,,,,,,,,,,,,,,,,,,,,,,,,,,,,,,,,,,,,,,,,,,,,,,,,"[2,1,5,8,9,4,6,7,3]",2,0,2,0,1,,,,,,,,,,,,,,,,,,,,,,,,,,,,,,,,,,,,,,,,,,,,,,,,
,,5ae090dadee8590001b078c8,2022-09-08_13h01.11.539,CGTgamblingSpanTasks,2022.2.1,Win32,144.0299582,,,,,,,,,,,,,,,,,,,,,,,,,,,,,,,,,,,,,,,,,,,,,,,,,,,,,,,,,,,,,,,,,,,,,,,,,,,,,,,,,,"[2,1,5,8,9,4,6,7,3]",3,0,3,0,1,,,,,,,,,,,,,,,,,,,,,,,,,,,,,,,,,,,,,,,,,,,,,,,,
,,5ae090dadee8590001b078c8,2022-09-08_13h01.11.539,CGTgamblingSpanTasks,2022.2.1,Win32,144.0299582,,,,,,,,,,,,,,,,,,,,,,,,,,,,,,,,,,,,,,,,,,,,,,,,,,,,,,,,,,,,,,,,,,,,,,,,,,,,,,,,,,"[2,1,5,8,9,4,6,7,3]",4,0,4,0,1,,,,,,,,,,,,,,,,,,,,,,,,,,,,,,,,,,,,,,,,,,,,,,,,
,,5ae090dadee8590001b078c8,2022-09-08_13h01.11.539,CGTgamblingSpanTasks,2022.2.1,Win32,144.0299582,,,,,,,,,,,,,,,,,,,,,,,,,,,,,,,,,,,,,,,,,,,,,,,,,,,,,,,,,,,,,,,,,,,,,,,,,,,,,,,,,,"[2,1,5,8,9,4,6,7,3]",5,0,5,0,1,,,,,,,,,,,,,,,,,,,,,,,,,,,,,,,,,,,,,,,,,,,,,,,,
,,5ae090dadee8590001b078c8,2022-09-08_13h01.11.539,CGTgamblingSpanTasks,2022.2.1,Win32,144.0299582,,,,,,,,,,,,,,,,,,,,,,,,,,,,,,,,,,,,,,,,,,,,,,,,,,,,,,,,,,,,,,,,,,,,,,,,,,,,,,,,,,"[2,1,5,8,9,4,6,7,3]",6,0,6,0,1,,,,,,,,,,,,,,,,,,,,,,,,,,,,,,,,,,,,,,,,,,,,,,,,
,,5ae090dadee8590001b078c8,2022-09-08_13h01.11.539,CGTgamblingSpanTasks,2022.2.1,Win32,144.0299582,,,,,,,,,,,,,,,,,,,,,,,,,,,,,,,,,,,,,,,,,,,,,,,,,,,,,,,,,,,,,,,,,,,,,,,,,,,,,,,,,,"[2,1,5,8,9,4,6,7,3]",7,0,7,0,1,,,,,,,,,,,,,,,,,,,,,,,,,,,,,,,,,,,,,,,,,,,,,,,,
,,5ae090dadee8590001b078c8,2022-09-08_13h01.11.539,CGTgamblingSpanTasks,2022.2.1,Win32,144.0299582,,,,,,,,,,,,,,,,,,,,,,,,,,,,,,,,,,,,,,,,,,,,,,,,,,,,,,,,,,,,,,,,,,,,,,,,,,,,,,,,,,"[2,1,5,8,9,4,6,7,3]",8,0,8,0,1,,,,,,,,,,,,,,,,,,,,,,,,,,,,,,,,,,,,,,,,,,,,,,,,
,,5ae090dadee8590001b078c8,2022-09-08_13h01.11.539,CGTgamblingSpanTasks,2022.2.1,Win32,144.0299582,,,,,,,,,,,,,,,,,,,,,,,,,,,,,,,,,,,,,,,,,,,,,,,,,,,,,,,,,,,,,,,0,,,,,,,,,,,,,,,,,,,,,,,,,245694673,0.059027778,-0.409722222,1,0,0,cont_button,0,10,10,10,1,11,,,,,,,,,,,,,,,,,,,,,,,,,,,,,,,,,,,
,,5ae090dadee8590001b078c8,2022-09-08_13h01.11.539,CGTgamblingSpanTasks,2022.2.1,Win32,144.0299582,,,,,,,,,,,,,,,,,,,,,,,,,,,,,,,,,,,,,,,,,,,,,,,,,,,,,,,,,,,,,,,,,,,,,,,,,,,,,,,,,,"[7,5,8,6,2,9,4,1,3]",0,0,0,0,1,,,,,,,,,,,,,,,,,,,,,,,,,,,,,,,,,,,,,,,,,,,,,,,,
,,5ae090dadee8590001b078c8,2022-09-08_13h01.11.539,CGTgamblingSpanTasks,2022.2.1,Win32,144.0299582,,,,,,,,,,,,,,,,,,,,,,,,,,,,,,,,,,,,,,,,,,,,,,,,,,,,,,,,,,,,,,,,,,,,,,,,,,,,,,,,,,"[7,5,8,6,2,9,4,1,3]",1,0,1,0,1,,,,,,,,,,,,,,,,,,,,,,,,,,,,,,,,,,,,,,,,,,,,,,,,
,,5ae090dadee8590001b078c8,2022-09-08_13h01.11.539,CGTgamblingSpanTasks,2022.2.1,Win32,144.0299582,,,,,,,,,,,,,,,,,,,,,,,,,,,,,,,,,,,,,,,,,,,,,,,,,,,,,,,,,,,,,,,,,,,,,,,,,,,,,,,,,,"[7,5,8,6,2,9,4,1,3]",2,0,2,0,1,,,,,,,,,,,,,,,,,,,,,,,,,,,,,,,,,,,,,,,,,,,,,,,,
,,5ae090dadee8590001b078c8,2022-09-08_13h01.11.539,CGTgamblingSpanTasks,2022.2.1,Win32,144.0299582,,,,,,,,,,,,,,,,,,,,,,,,,,,,,,,,,,,,,,,,,,,,,,,,,,,,,,,,,,,,,,,,,,,,,,,,,,,,,,,,,,"[7,5,8,6,2,9,4,1,3]",3,0,3,0,1,,,,,,,,,,,,,,,,,,,,,,,,,,,,,,,,,,,,,,,,,,,,,,,,
,,5ae090dadee8590001b078c8,2022-09-08_13h01.11.539,CGTgamblingSpanTasks,2022.2.1,Win32,144.0299582,,,,,,,,,,,,,,,,,,,,,,,,,,,,,,,,,,,,,,,,,,,,,,,,,,,,,,,,,,,,,,,,,,,,,,,,,,,,,,,,,,"[7,5,8,6,2,9,4,1,3]",4,0,4,0,1,,,,,,,,,,,,,,,,,,,,,,,,,,,,,,,,,,,,,,,,,,,,,,,,
,,5ae090dadee8590001b078c8,2022-09-08_13h01.11.539,CGTgamblingSpanTasks,2022.2.1,Win32,144.0299582,,,,,,,,,,,,,,,,,,,,,,,,,,,,,,,,,,,,,,,,,,,,,,,,,,,,,,,,,,,,,,,,,,,,,,,,,,,,,,,,,,"[7,5,8,6,2,9,4,1,3]",5,0,5,0,1,,,,,,,,,,,,,,,,,,,,,,,,,,,,,,,,,,,,,,,,,,,,,,,,
,,5ae090dadee8590001b078c8,2022-09-08_13h01.11.539,CGTgamblingSpanTasks,2022.2.1,Win32,144.0299582,,,,,,,,,,,,,,,,,,,,,,,,,,,,,,,,,,,,,,,,,,,,,,,,,,,,,,,,,,,,,,,,,,,,,,,,,,,,,,,,,,"[7,5,8,6,2,9,4,1,3]",6,0,6,0,1,,,,,,,,,,,,,,,,,,,,,,,,,,,,,,,,,,,,,,,,,,,,,,,,
,,5ae090dadee8590001b078c8,2022-09-08_13h01.11.539,CGTgamblingSpanTasks,2022.2.1,Win32,144.0299582,,,,,,,,,,,,,,,,,,,,,,,,,,,,,,,,,,,,,,,,,,,,,,,,,,,,,,,,,,,,,,,,,,,,,,,,,,,,,,,,,,"[7,5,8,6,2,9,4,1,3]",7,0,7,0,1,,,,,,,,,,,,,,,,,,,,,,,,,,,,,,,,,,,,,,,,,,,,,,,,
,,5ae090dadee8590001b078c8,2022-09-08_13h01.11.539,CGTgamblingSpanTasks,2022.2.1,Win32,144.0299582,,,,,,,,,,,,,,,,,,,,,,,,,,,,,,,,,,,,,,,,,,,,,,,,,,,,,,,,,,,,,,,,,,,,,,,,,,,,,,,,,,"[7,5,8,6,2,9,4,1,3]",8,0,8,0,1,,,,,,,,,,,,,,,,,,,,,,,,,,,,,,,,,,,,,,,,,,,,,,,,
,,5ae090dadee8590001b078c8,2022-09-08_13h01.11.539,CGTgamblingSpanTasks,2022.2.1,Win32,144.0299582,,,,,,,,,,,,,,,,,,,,,,,,,,,,,,,,,,,,,,,,,,,,,,,,,,,,,,,,,,,,,,,0,,,,,,,,,,,,,,,,,,,,,,,,,76842934,0.052083333,-0.394444444,1,0,0,cont_button,0,11,11,11,1,12,,,,,,,,,,,,,,,,,,,,,,,,,,,,,,,,,,,
,,5ae090dadee8590001b078c8,2022-09-08_13h01.11.539,CGTgamblingSpanTasks,2022.2.1,Win32,144.0299582,,,,,,,,,,,,,,,,,,,,,,,,,,,,,,,,,,,,,,,,,,,,,,,,,,,,,,,,,,,,,,,,,,,,,,,,,,,,,,,,,,"[2,6,9,1,3,5,7,4]",0,0,0,0,1,,,,,,,,,,,,,,,,,,,,,,,,,,,,,,,,,,,,,,,,,,,,,,,,
,,5ae090dadee8590001b078c8,2022-09-08_13h01.11.539,CGTgamblingSpanTasks,2022.2.1,Win32,144.0299582,,,,,,,,,,,,,,,,,,,,,,,,,,,,,,,,,,,,,,,,,,,,,,,,,,,,,,,,,,,,,,,,,,,,,,,,,,,,,,,,,,"[2,6,9,1,3,5,7,4]",1,0,1,0,1,,,,,,,,,,,,,,,,,,,,,,,,,,,,,,,,,,,,,,,,,,,,,,,,
,,5ae090dadee8590001b078c8,2022-09-08_13h01.11.539,CGTgamblingSpanTasks,2022.2.1,Win32,144.0299582,,,,,,,,,,,,,,,,,,,,,,,,,,,,,,,,,,,,,,,,,,,,,,,,,,,,,,,,,,,,,,,,,,,,,,,,,,,,,,,,,,"[2,6,9,1,3,5,7,4]",2,0,2,0,1,,,,,,,,,,,,,,,,,,,,,,,,,,,,,,,,,,,,,,,,,,,,,,,,
,,5ae090dadee8590001b078c8,2022-09-08_13h01.11.539,CGTgamblingSpanTasks,2022.2.1,Win32,144.0299582,,,,,,,,,,,,,,,,,,,,,,,,,,,,,,,,,,,,,,,,,,,,,,,,,,,,,,,,,,,,,,,,,,,,,,,,,,,,,,,,,,"[2,6,9,1,3,5,7,4]",3,0,3,0,1,,,,,,,,,,,,,,,,,,,,,,,,,,,,,,,,,,,,,,,,,,,,,,,,
,,5ae090dadee8590001b078c8,2022-09-08_13h01.11.539,CGTgamblingSpanTasks,2022.2.1,Win32,144.0299582,,,,,,,,,,,,,,,,,,,,,,,,,,,,,,,,,,,,,,,,,,,,,,,,,,,,,,,,,,,,,,,,,,,,,,,,,,,,,,,,,,"[2,6,9,1,3,5,7,4]",4,0,4,0,1,,,,,,,,,,,,,,,,,,,,,,,,,,,,,,,,,,,,,,,,,,,,,,,,
,,5ae090dadee8590001b078c8,2022-09-08_13h01.11.539,CGTgamblingSpanTasks,2022.2.1,Win32,144.0299582,,,,,,,,,,,,,,,,,,,,,,,,,,,,,,,,,,,,,,,,,,,,,,,,,,,,,,,,,,,,,,,,,,,,,,,,,,,,,,,,,,"[2,6,9,1,3,5,7,4]",5,0,5,0,1,,,,,,,,,,,,,,,,,,,,,,,,,,,,,,,,,,,,,,,,,,,,,,,,
,,5ae090dadee8590001b078c8,2022-09-08_13h01.11.539,CGTgamblingSpanTasks,2022.2.1,Win32,144.0299582,,,,,,,,,,,,,,,,,,,,,,,,,,,,,,,,,,,,,,,,,,,,,,,,,,,,,,,,,,,,,,,,,,,,,,,,,,,,,,,,,,"[2,6,9,1,3,5,7,4]",6,0,6,0,1,,,,,,,,,,,,,,,,,,,,,,,,,,,,,,,,,,,,,,,,,,,,,,,,
,,5ae090dadee8590001b078c8,2022-09-08_13h01.11.539,CGTgamblingSpanTasks,2022.2.1,Win32,144.0299582,,,,,,,,,,,,,,,,,,,,,,,,,,,,,,,,,,,,,,,,,,,,,,,,,,,,,,,,,,,,,,,,,,,,,,,,,,,,,,,,,,"[2,6,9,1,3,5,7,4]",7,0,7,0,1,,,,,,,,,,,,,,,,,,,,,,,,,,,,,,,,,,,,,,,,,,,,,,,,
,,5ae090dadee8590001b078c8,2022-09-08_13h01.11.539,CGTgamblingSpanTasks,2022.2.1,Win32,144.0299582,,,,,,,,,,,,,,,,,,,,,,,,,,,,,,,,,,,,,,,,,,,,,,,,,,,,,,,,,,,,,,,0,,,,,,,,,,,,,,,,,,,,,,,,,26913457,0.0875,-0.409722222,1,0,0,cont_button,0,12,12,12,1,13,,,,,,,,,,,,,,,,,,,,,,,,,,,,,,,,,,,
,,5ae090dadee8590001b078c8,2022-09-08_13h01.11.539,CGTgamblingSpanTasks,2022.2.1,Win32,144.0299582,,,,,,,,,,,,,,,,,,,,,,,,,,,,,,,,,,,,,,,,,,,,,,,,,,,,,,,,,,,,,,,,,,,,,,,,,,,,,,,,,,"[4,2,7,5,6,1,3,9]",0,0,0,0,1,,,,,,,,,,,,,,,,,,,,,,,,,,,,,,,,,,,,,,,,,,,,,,,,
,,5ae090dadee8590001b078c8,2022-09-08_13h01.11.539,CGTgamblingSpanTasks,2022.2.1,Win32,144.0299582,,,,,,,,,,,,,,,,,,,,,,,,,,,,,,,,,,,,,,,,,,,,,,,,,,,,,,,,,,,,,,,,,,,,,,,,,,,,,,,,,,"[4,2,7,5,6,1,3,9]",1,0,1,0,1,,,,,,,,,,,,,,,,,,,,,,,,,,,,,,,,,,,,,,,,,,,,,,,,
,,5ae090dadee8590001b078c8,2022-09-08_13h01.11.539,CGTgamblingSpanTasks,2022.2.1,Win32,144.0299582,,,,,,,,,,,,,,,,,,,,,,,,,,,,,,,,,,,,,,,,,,,,,,,,,,,,,,,,,,,,,,,,,,,,,,,,,,,,,,,,,,"[4,2,7,5,6,1,3,9]",2,0,2,0,1,,,,,,,,,,,,,,,,,,,,,,,,,,,,,,,,,,,,,,,,,,,,,,,,
,,5ae090dadee8590001b078c8,2022-09-08_13h01.11.539,CGTgamblingSpanTasks,2022.2.1,Win32,144.0299582,,,,,,,,,,,,,,,,,,,,,,,,,,,,,,,,,,,,,,,,,,,,,,,,,,,,,,,,,,,,,,,,,,,,,,,,,,,,,,,,,,"[4,2,7,5,6,1,3,9]",3,0,3,0,1,,,,,,,,,,,,,,,,,,,,,,,,,,,,,,,,,,,,,,,,,,,,,,,,
,,5ae090dadee8590001b078c8,2022-09-08_13h01.11.539,CGTgamblingSpanTasks,2022.2.1,Win32,144.0299582,,,,,,,,,,,,,,,,,,,,,,,,,,,,,,,,,,,,,,,,,,,,,,,,,,,,,,,,,,,,,,,,,,,,,,,,,,,,,,,,,,"[4,2,7,5,6,1,3,9]",4,0,4,0,1,,,,,,,,,,,,,,,,,,,,,,,,,,,,,,,,,,,,,,,,,,,,,,,,
,,5ae090dadee8590001b078c8,2022-09-08_13h01.11.539,CGTgamblingSpanTasks,2022.2.1,Win32,144.0299582,,,,,,,,,,,,,,,,,,,,,,,,,,,,,,,,,,,,,,,,,,,,,,,,,,,,,,,,,,,,,,,,,,,,,,,,,,,,,,,,,,"[4,2,7,5,6,1,3,9]",5,0,5,0,1,,,,,,,,,,,,,,,,,,,,,,,,,,,,,,,,,,,,,,,,,,,,,,,,
,,5ae090dadee8590001b078c8,2022-09-08_13h01.11.539,CGTgamblingSpanTasks,2022.2.1,Win32,144.0299582,,,,,,,,,,,,,,,,,,,,,,,,,,,,,,,,,,,,,,,,,,,,,,,,,,,,,,,,,,,,,,,,,,,,,,,,,,,,,,,,,,"[4,2,7,5,6,1,3,9]",6,0,6,0,1,,,,,,,,,,,,,,,,,,,,,,,,,,,,,,,,,,,,,,,,,,,,,,,,
,,5ae090dadee8590001b078c8,2022-09-08_13h01.11.539,CGTgamblingSpanTasks,2022.2.1,Win32,144.0299582,,,,,,,,,,,,,,,,,,,,,,,,,,,,,,,,,,,,,,,,,,,,,,,,,,,,,,,,,,,,,,,,,,,,,,,,,,,,,,,,,,"[4,2,7,5,6,1,3,9]",7,0,7,0,1,,,,,,,,,,,,,,,,,,,,,,,,,,,,,,,,,,,,,,,,,,,,,,,,
,,5ae090dadee8590001b078c8,2022-09-08_13h01.11.539,CGTgamblingSpanTasks,2022.2.1,Win32,144.0299582,,,,,,,,,,,,,,,,,,,,,,,,,,,,,,,,,,,,,,,,,,,,,,,,,,,,,,,,,,,,,,,0,,,,,,,,,,,,,,,,,,,,,,,,,45726149,0.040277778,-0.399305556,1,0,0,cont_button,0,13,13,13,1,14,,,,,,,,,,,,,,,,,,,,,,,,,,,,,,,,,,,
,,5ae090dadee8590001b078c8,2022-09-08_13h01.11.539,CGTgamblingSpanTasks,2022.2.1,Win32,144.0299582,,,,,,,,,,,,,,,,,,,,,,,,,,,,,,,,,,,,,,,,,,,,,,,,,,,,,,,,,,,,,,,,,,,,,,,,,,,,,,,,,,,,,,,,,,,,,,,,,,,,,return,4.8904,,,,,,,,,,,,,,,,,,,,,,,,,,,,,,,,,
,,5ae090dadee8590001b078c8,2022-09-08_13h01.11.539,CGTgamblingSpanTasks,2022.2.1,Win32,144.0299582,,,,,,,,,,,,,,,,,,,,,,,,,,,,,,,,,,,,,,,,,,,,,,,,,,,,,,,,,,,,,,,,,,,,,,,,,,,,,,,,,,,,,,,,,,,,,,,,,,,,,,,return,18.1593,,,,,,,,,,,,,,,,,,,,,,,,,,,,,,,
,,5ae090dadee8590001b078c8,2022-09-08_13h01.11.539,CGTgamblingSpanTasks,2022.2.1,Win32,144.0299582,,,,,,,,,,,,,,,,,,,,,,,,,,,,,,,,,,,,,,,,,,,,,,,,,,,,,,,,,,,,,,,1,,,,,,,,,,,,3,342,24,2,42,,,,,,,,,,,,,,,,,,,,,,,,,,42,-0.003472222,-0.377777778,1,0,0,cont_buttonPractice_2,0,0,0,0,1,,,,,,,,,,,,,,,,,,,
,,5ae090dadee8590001b078c8,2022-09-08_13h01.11.539,CGTgamblingSpanTasks,2022.2.1,Win32,144.0299582,,,,,,,,,,,,,,,,,,,,,,,,,,,,,,,,,,,,,,,,,,,,,,,,,,,,,,,,,,,,,,,1,,,,,,,,,,,,3,937,73,2,37,,,,,,,,,,,,,,,,,,,,,,,,,,37,0.08125,-0.377083333,1,0,0,cont_buttonPractice_2,0,1,1,1,1,,,,,,,,,,,,,,,,,,,
,,5ae090dadee8590001b078c8,2022-09-08_13h01.11.539,CGTgamblingSpanTasks,2022.2.1,Win32,144.0299582,,,,,,,,,,,,,,,,,,,,,,,,,,,,,,,,,,,,,,,,,,,,,,,,,,,,,,,,,,,,,,,,,,,,,,,,,,,,,,,,,,,,,,,,,,,,,,,,,,,,,,,,,,,,,,,,,,,,,return,6.6879,,,,,,,,,,,,,,,,,
,,5ae090dadee8590001b078c8,2022-09-08_13h01.11.539,CGTgamblingSpanTasks,2022.2.1,Win32,144.0299582,,,,,,,,,,,,,,,,,,,,,,,,,,,,,,,,,,,,,,,,,,,,,,,,,,,,,,,,,,,,,,,,,,,,,,,,,,,,,,,,,,"[1,6]",,,,,,,,,,,,,,,,,,,,,,,,,,,,,,,,,,,,,0,0,0,0,1,,,,,,,,,,,,
,,5ae090dadee8590001b078c8,2022-09-08_13h01.11.539,CGTgamblingSpanTasks,2022.2.1,Win32,144.0299582,,,,,,,,,,,,,,,,,,,,,,,,,,,,,,,,,,,,,,,,,,,,,,,,,,,,,,,,,,,,,,,,,,,,,,,,,,,,,,,,,,"[1,6]",,,,,,,,,,,,,,,,,,,,,,,,,,,,,,,,,,,,,1,0,1,0,1,,,,,,,,,,,,
,,5ae090dadee8590001b078c8,2022-09-08_13h01.11.539,CGTgamblingSpanTasks,2022.2.1,Win32,144.0299582,,,,,,,,,,,,,,,,,,,,,,,,,,,,,,,,,,,,,,,,,,,,,,,,,,,,,,,,,,,,,,,1,,,,,,,,,,,,,,,,,,,,,,,,,,,,,,,,,,,,,1,,,,,,,,,,,,,,,,,,,,,,,,61,0.055555556,-0.380555556,1,0,0,cont_buttonBS,0,0,0,0,1
,,5ae090dadee8590001b078c8,2022-09-08_13h01.11.539,CGTgamblingSpanTasks,2022.2.1,Win32,144.0299582,,,,,,,,,,,,,,,,,,,,,,,,,,,,,,,,,,,,,,,,,,,,,,,,,,,,,,,,,,,,,,,,,,,,,,,,,,,,,,,,,,"[2,6,9]",,,,,,,,,,,,,,,,,,,,,,,,,,,,,,,,,,,,,0,0,0,0,1,,,,,,,,,,,,
,,5ae090dadee8590001b078c8,2022-09-08_13h01.11.539,CGTgamblingSpanTasks,2022.2.1,Win32,144.0299582,,,,,,,,,,,,,,,,,,,,,,,,,,,,,,,,,,,,,,,,,,,,,,,,,,,,,,,,,,,,,,,,,,,,,,,,,,,,,,,,,,"[2,6,9]",,,,,,,,,,,,,,,,,,,,,,,,,,,,,,,,,,,,,1,0,1,0,1,,,,,,,,,,,,
,,5ae090dadee8590001b078c8,2022-09-08_13h01.11.539,CGTgamblingSpanTasks,2022.2.1,Win32,144.0299582,,,,,,,,,,,,,,,,,,,,,,,,,,,,,,,,,,,,,,,,,,,,,,,,,,,,,,,,,,,,,,,,,,,,,,,,,,,,,,,,,,"[2,6,9]",,,,,,,,,,,,,,,,,,,,,,,,,,,,,,,,,,,,,2,0,2,0,1,,,,,,,,,,,,
,,5ae090dadee8590001b078c8,2022-09-08_13h01.11.539,CGTgamblingSpanTasks,2022.2.1,Win32,144.0299582,,,,,,,,,,,,,,,,,,,,,,,,,,,,,,,,,,,,,,,,,,,,,,,,,,,,,,,,,,,,,,,1,,,,,,,,,,,,,,,,,,,,,,,,,,,,,,,,,,,,,2,,,,,,,,,,,,,,,,,,,,,,,,962,0.043055556,-0.413888889,1,0,0,cont_buttonBS,0,1,1,1,1
,,5ae090dadee8590001b078c8,2022-09-08_13h01.11.539,CGTgamblingSpanTasks,2022.2.1,Win32,144.0299582,,,,,,,,,,,,,,,,,,,,,,,,,,,,,,,,,,,,,,,,,,,,,,,,,,,,,,,,,,,,,,,,,,,,,,,,,,,,,,,,,,"[3,2,4,7]",,,,,,,,,,,,,,,,,,,,,,,,,,,,,,,,,,,,,0,0,0,0,1,,,,,,,,,,,,
,,5ae090dadee8590001b078c8,2022-09-08_13h01.11.539,CGTgamblingSpanTasks,2022.2.1,Win32,144.0299582,,,,,,,,,,,,,,,,,,,,,,,,,,,,,,,,,,,,,,,,,,,,,,,,,,,,,,,,,,,,,,,,,,,,,,,,,,,,,,,,,,"[3,2,4,7]",,,,,,,,,,,,,,,,,,,,,,,,,,,,,,,,,,,,,1,0,1,0,1,,,,,,,,,,,,
,,5ae090dadee8590001b078c8,2022-09-08_13h01.11.539,CGTgamblingSpanTasks,2022.2.1,Win32,144.0299582,,,,,,,,,,,,,,,,,,,,,,,,,,,,,,,,,,,,,,,,,,,,,,,,,,,,,,,,,,,,,,,,,,,,,,,,,,,,,,,,,,"[3,2,4,7]",,,,,,,,,,,,,,,,,,,,,,,,,,,,,,,,,,,,,2,0,2,0,1,,,,,,,,,,,,
,,5ae090dadee8590001b078c8,2022-09-08_13h01.11.539,CGTgamblingSpanTasks,2022.2.1,Win32,144.0299582,,,,,,,,,,,,,,,,,,,,,,,,,,,,,,,,,,,,,,,,,,,,,,,,,,,,,,,,,,,,,,,,,,,,,,,,,,,,,,,,,,"[3,2,4,7]",,,,,,,,,,,,,,,,,,,,,,,,,,,,,,,,,,,,,3,0,3,0,1,,,,,,,,,,,,
,,5ae090dadee8590001b078c8,2022-09-08_13h01.11.539,CGTgamblingSpanTasks,2022.2.1,Win32,144.0299582,,,,,,,,,,,,,,,,,,,,,,,,,,,,,,,,,,,,,,,,,,,,,,,,,,,,,,,,,,,,,,,1,,,,,,,,,,,,,,,,,,,,,,,,,,,,,,,,,,,,,3,,,,,,,,,,,,,,,,,,,,,,,,7423,0.1,-0.375694444,1,0,0,cont_buttonBS,0,2,2,2,1
,,5ae090dadee8590001b078c8,2022-09-08_13h01.11.539,CGTgamblingSpanTasks,2022.2.1,Win32,144.0299582,,,,,,,,,,,,,,,,,,,,,,,,,,,,,,,,,,,,,,,,,,,,,,,,,,,,,,,,,,,,,,,,,,,,,,,,,,,,,,,,,,"[8,3,7,1,2]",,,,,,,,,,,,,,,,,,,,,,,,,,,,,,,,,,,,,0,0,0,0,1,,,,,,,,,,,,
,,5ae090dadee8590001b078c8,2022-09-08_13h01.11.539,CGTgamblingSpanTasks,2022.2.1,Win32,144.0299582,,,,,,,,,,,,,,,,,,,,,,,,,,,,,,,,,,,,,,,,,,,,,,,,,,,,,,,,,,,,,,,,,,,,,,,,,,,,,,,,,,"[8,3,7,1,2]",,,,,,,,,,,,,,,,,,,,,,,,,,,,,,,,,,,,,1,0,1,0,1,,,,,,,,,,,,
,,5ae090dadee8590001b078c8,2022-09-08_13h01.11.539,CGTgamblingSpanTasks,2022.2.1,Win32,144.0299582,,,,,,,,,,,,,,,,,,,,,,,,,,,,,,,,,,,,,,,,,,,,,,,,,,,,,,,,,,,,,,,,,,,,,,,,,,,,,,,,,,"[8,3,7,1,2]",,,,,,,,,,,,,,,,,,,,,,,,,,,,,,,,,,,,,2,0,2,0,1,,,,,,,,,,,,
,,5ae090dadee8590001b078c8,2022-09-08_13h01.11.539,CGTgamblingSpanTasks,2022.2.1,Win32,144.0299582,,,,,,,,,,,,,,,,,,,,,,,,,,,,,,,,,,,,,,,,,,,,,,,,,,,,,,,,,,,,,,,,,,,,,,,,,,,,,,,,,,"[8,3,7,1,2]",,,,,,,,,,,,,,,,,,,,,,,,,,,,,,,,,,,,,3,0,3,0,1,,,,,,,,,,,,
,,5ae090dadee8590001b078c8,2022-09-08_13h01.11.539,CGTgamblingSpanTasks,2022.2.1,Win32,144.0299582,,,,,,,,,,,,,,,,,,,,,,,,,,,,,,,,,,,,,,,,,,,,,,,,,,,,,,,,,,,,,,,,,,,,,,,,,,,,,,,,,,"[8,3,7,1,2]",,,,,,,,,,,,,,,,,,,,,,,,,,,,,,,,,,,,,4,0,4,0,1,,,,,,,,,,,,
,,5ae090dadee8590001b078c8,2022-09-08_13h01.11.539,CGTgamblingSpanTasks,2022.2.1,Win32,144.0299582,,,,,,,,,,,,,,,,,,,,,,,,,,,,,,,,,,,,,,,,,,,,,,,,,,,,,,,,,,,,,,,1,,,,,,,,,,,,,,,,,,,,,,,,,,,,,,,,,,,,,4,,,,,,,,,,,,,,,,,,,,,,,,21738,0.077777778,-0.409027778,1,0,0,cont_buttonBS,0,3,3,3,1
,,5ae090dadee8590001b078c8,2022-09-08_13h01.11.539,CGTgamblingSpanTasks,2022.2.1,Win32,144.0299582,,,,,,,,,,,,,,,,,,,,,,,,,,,,,,,,,,,,,,,,,,,,,,,,,,,,,,,,,,,,,,,,,,,,,,,,,,,,,,,,,,"[9,4,3,8,5,7]",,,,,,,,,,,,,,,,,,,,,,,,,,,,,,,,,,,,,0,0,0,0,1,,,,,,,,,,,,
,,5ae090dadee8590001b078c8,2022-09-08_13h01.11.539,CGTgamblingSpanTasks,2022.2.1,Win32,144.0299582,,,,,,,,,,,,,,,,,,,,,,,,,,,,,,,,,,,,,,,,,,,,,,,,,,,,,,,,,,,,,,,,,,,,,,,,,,,,,,,,,,"[9,4,3,8,5,7]",,,,,,,,,,,,,,,,,,,,,,,,,,,,,,,,,,,,,1,0,1,0,1,,,,,,,,,,,,
,,5ae090dadee8590001b078c8,2022-09-08_13h01.11.539,CGTgamblingSpanTasks,2022.2.1,Win32,144.0299582,,,,,,,,,,,,,,,,,,,,,,,,,,,,,,,,,,,,,,,,,,,,,,,,,,,,,,,,,,,,,,,,,,,,,,,,,,,,,,,,,,"[9,4,3,8,5,7]",,,,,,,,,,,,,,,,,,,,,,,,,,,,,,,,,,,,,2,0,2,0,1,,,,,,,,,,,,
,,5ae090dadee8590001b078c8,2022-09-08_13h01.11.539,CGTgamblingSpanTasks,2022.2.1,Win32,144.0299582,,,,,,,,,,,,,,,,,,,,,,,,,,,,,,,,,,,,,,,,,,,,,,,,,,,,,,,,,,,,,,,,,,,,,,,,,,,,,,,,,,"[9,4,3,8,5,7]",,,,,,,,,,,,,,,,,,,,,,,,,,,,,,,,,,,,,3,0,3,0,1,,,,,,,,,,,,
,,5ae090dadee8590001b078c8,2022-09-08_13h01.11.539,CGTgamblingSpanTasks,2022.2.1,Win32,144.0299582,,,,,,,,,,,,,,,,,,,,,,,,,,,,,,,,,,,,,,,,,,,,,,,,,,,,,,,,,,,,,,,,,,,,,,,,,,,,,,,,,,"[9,4,3,8,5,7]",,,,,,,,,,,,,,,,,,,,,,,,,,,,,,,,,,,,,4,0,4,0,1,,,,,,,,,,,,
,,5ae090dadee8590001b078c8,2022-09-08_13h01.11.539,CGTgamblingSpanTasks,2022.2.1,Win32,144.0299582,,,,,,,,,,,,,,,,,,,,,,,,,,,,,,,,,,,,,,,,,,,,,,,,,,,,,,,,,,,,,,,,,,,,,,,,,,,,,,,,,,"[9,4,3,8,5,7]",,,,,,,,,,,,,,,,,,,,,,,,,,,,,,,,,,,,,5,0,5,0,1,,,,,,,,,,,,
,,5ae090dadee8590001b078c8,2022-09-08_13h01.11.539,CGTgamblingSpanTasks,2022.2.1,Win32,144.0299582,,,,,,,,,,,,,,,,,,,,,,,,,,,,,,,,,,,,,,,,,,,,,,,,,,,,,,,,,,,,,,,1,,,,,,,,,,,,,,,,,,,,,,,,,,,,,,,,,,,,,5,,,,,,,,,,,,,,,,,,,,,,,,758349,0.070833333,-0.376388889,1,0,0,cont_buttonBS,0,4,4,4,1
,,5ae090dadee8590001b078c8,2022-09-08_13h01.11.539,CGTgamblingSpanTasks,2022.2.1,Win32,144.0299582,,,,,,,,,,,,,,,,,,,,,,,,,,,,,,,,,,,,,,,,,,,,,,,,,,,,,,,,,,,,,,,,,,,,,,,,,,,,,,,,,,"[8,7,9,4,6,5,1]",,,,,,,,,,,,,,,,,,,,,,,,,,,,,,,,,,,,,0,0,0,0,1,,,,,,,,,,,,
,,5ae090dadee8590001b078c8,2022-09-08_13h01.11.539,CGTgamblingSpanTasks,2022.2.1,Win32,144.0299582,,,,,,,,,,,,,,,,,,,,,,,,,,,,,,,,,,,,,,,,,,,,,,,,,,,,,,,,,,,,,,,,,,,,,,,,,,,,,,,,,,"[8,7,9,4,6,5,1]",,,,,,,,,,,,,,,,,,,,,,,,,,,,,,,,,,,,,1,0,1,0,1,,,,,,,,,,,,
,,5ae090dadee8590001b078c8,2022-09-08_13h01.11.539,CGTgamblingSpanTasks,2022.2.1,Win32,144.0299582,,,,,,,,,,,,,,,,,,,,,,,,,,,,,,,,,,,,,,,,,,,,,,,,,,,,,,,,,,,,,,,,,,,,,,,,,,,,,,,,,,"[8,7,9,4,6,5,1]",,,,,,,,,,,,,,,,,,,,,,,,,,,,,,,,,,,,,2,0,2,0,1,,,,,,,,,,,,
,,5ae090dadee8590001b078c8,2022-09-08_13h01.11.539,CGTgamblingSpanTasks,2022.2.1,Win32,144.0299582,,,,,,,,,,,,,,,,,,,,,,,,,,,,,,,,,,,,,,,,,,,,,,,,,,,,,,,,,,,,,,,,,,,,,,,,,,,,,,,,,,"[8,7,9,4,6,5,1]",,,,,,,,,,,,,,,,,,,,,,,,,,,,,,,,,,,,,3,0,3,0,1,,,,,,,,,,,,
,,5ae090dadee8590001b078c8,2022-09-08_13h01.11.539,CGTgamblingSpanTasks,2022.2.1,Win32,144.0299582,,,,,,,,,,,,,,,,,,,,,,,,,,,,,,,,,,,,,,,,,,,,,,,,,,,,,,,,,,,,,,,,,,,,,,,,,,,,,,,,,,"[8,7,9,4,6,5,1]",,,,,,,,,,,,,,,,,,,,,,,,,,,,,,,,,,,,,4,0,4,0,1,,,,,,,,,,,,
,,5ae090dadee8590001b078c8,2022-09-08_13h01.11.539,CGTgamblingSpanTasks,2022.2.1,Win32,144.0299582,,,,,,,,,,,,,,,,,,,,,,,,,,,,,,,,,,,,,,,,,,,,,,,,,,,,,,,,,,,,,,,,,,,,,,,,,,,,,,,,,,"[8,7,9,4,6,5,1]",,,,,,,,,,,,,,,,,,,,,,,,,,,,,,,,,,,,,5,0,5,0,1,,,,,,,,,,,,
,,5ae090dadee8590001b078c8,2022-09-08_13h01.11.539,CGTgamblingSpanTasks,2022.2.1,Win32,144.0299582,,,,,,,,,,,,,,,,,,,,,,,,,,,,,,,,,,,,,,,,,,,,,,,,,,,,,,,,,,,,,,,,,,,,,,,,,,,,,,,,,,"[8,7,9,4,6,5,1]",,,,,,,,,,,,,,,,,,,,,,,,,,,,,,,,,,,,,6,0,6,0,1,,,,,,,,,,,,
,,5ae090dadee8590001b078c8,2022-09-08_13h01.11.539,CGTgamblingSpanTasks,2022.2.1,Win32,144.0299582,,,,,,,,,,,,,,,,,,,,,,,,,,,,,,,,,,,,,,,,,,,,,,,,,,,,,,,,,,,,,,,0,,,,,,,,,,,,,,,,,,,,,,,,,,,,,,,,,,,,,6,,,,,,,,,,,,,,,,,,,,,,,,1569478,0.007638889,-0.414583333,1,0,0,cont_buttonBS,0,5,5,5,1
,,5ae090dadee8590001b078c8,2022-09-08_13h01.11.539,CGTgamblingSpanTasks,2022.2.1,Win32,144.0299582,,,,,,,,,,,,,,,,,,,,,,,,,,,,,,,,,,,,,,,,,,,,,,,,,,,,,,,,,,,,,,,,,,,,,,,,,,,,,,,,,,"[7,5,3,8,9,1,2]",,,,,,,,,,,,,,,,,,,,,,,,,,,,,,,,,,,,,0,0,0,0,1,,,,,,,,,,,,
,,5ae090dadee8590001b078c8,2022-09-08_13h01.11.539,CGTgamblingSpanTasks,2022.2.1,Win32,144.0299582,,,,,,,,,,,,,,,,,,,,,,,,,,,,,,,,,,,,,,,,,,,,,,,,,,,,,,,,,,,,,,,,,,,,,,,,,,,,,,,,,,"[7,5,3,8,9,1,2]",,,,,,,,,,,,,,,,,,,,,,,,,,,,,,,,,,,,,1,0,1,0,1,,,,,,,,,,,,
,,5ae090dadee8590001b078c8,2022-09-08_13h01.11.539,CGTgamblingSpanTasks,2022.2.1,Win32,144.0299582,,,,,,,,,,,,,,,,,,,,,,,,,,,,,,,,,,,,,,,,,,,,,,,,,,,,,,,,,,,,,,,,,,,,,,,,,,,,,,,,,,"[7,5,3,8,9,1,2]",,,,,,,,,,,,,,,,,,,,,,,,,,,,,,,,,,,,,2,0,2,0,1,,,,,,,,,,,,
,,5ae090dadee8590001b078c8,2022-09-08_13h01.11.539,CGTgamblingSpanTasks,2022.2.1,Win32,144.0299582,,,,,,,,,,,,,,,,,,,,,,,,,,,,,,,,,,,,,,,,,,,,,,,,,,,,,,,,,,,,,,,,,,,,,,,,,,,,,,,,,,"[7,5,3,8,9,1,2]",,,,,,,,,,,,,,,,,,,,,,,,,,,,,,,,,,,,,3,0,3,0,1,,,,,,,,,,,,
,,5ae090dadee8590001b078c8,2022-09-08_13h01.11.539,CGTgamblingSpanTasks,2022.2.1,Win32,144.0299582,,,,,,,,,,,,,,,,,,,,,,,,,,,,,,,,,,,,,,,,,,,,,,,,,,,,,,,,,,,,,,,,,,,,,,,,,,,,,,,,,,"[7,5,3,8,9,1,2]",,,,,,,,,,,,,,,,,,,,,,,,,,,,,,,,,,,,,4,0,4,0,1,,,,,,,,,,,,
,,5ae090dadee8590001b078c8,2022-09-08_13h01.11.539,CGTgamblingSpanTasks,2022.2.1,Win32,144.0299582,,,,,,,,,,,,,,,,,,,,,,,,,,,,,,,,,,,,,,,,,,,,,,,,,,,,,,,,,,,,,,,,,,,,,,,,,,,,,,,,,,"[7,5,3,8,9,1,2]",,,,,,,,,,,,,,,,,,,,,,,,,,,,,,,,,,,,,5,0,5,0,1,,,,,,,,,,,,
,,5ae090dadee8590001b078c8,2022-09-08_13h01.11.539,CGTgamblingSpanTasks,2022.2.1,Win32,144.0299582,,,,,,,,,,,,,,,,,,,,,,,,,,,,,,,,,,,,,,,,,,,,,,,,,,,,,,,,,,,,,,,,,,,,,,,,,,,,,,,,,,"[7,5,3,8,9,1,2]",,,,,,,,,,,,,,,,,,,,,,,,,,,,,,,,,,,,,6,0,6,0,1,,,,,,,,,,,,
,,5ae090dadee8590001b078c8,2022-09-08_13h01.11.539,CGTgamblingSpanTasks,2022.2.1,Win32,144.0299582,,,,,,,,,,,,,,,,,,,,,,,,,,,,,,,,,,,,,,,,,,,,,,,,,,,,,,,,,,,,,,,1,,,,,,,,,,,,,,,,,,,,,,,,,,,,,,,,,,,,,7,,,,,,,,,,,,,,,,,,,,,,,,2198357,0.072222222,-0.384722222,1,0,0,cont_buttonBS,0,6,6,6,1
,,5ae090dadee8590001b078c8,2022-09-08_13h01.11.539,CGTgamblingSpanTasks,2022.2.1,Win32,144.0299582,,,,,,,,,,,,,,,,,,,,,,,,,,,,,,,,,,,,,,,,,,,,,,,,,,,,,,,,,,,,,,,,,,,,,,,,,,,,,,,,,,"[7,8,6,4,1,5,9,3]",,,,,,,,,,,,,,,,,,,,,,,,,,,,,,,,,,,,,0,0,0,0,1,,,,,,,,,,,,
,,5ae090dadee8590001b078c8,2022-09-08_13h01.11.539,CGTgamblingSpanTasks,2022.2.1,Win32,144.0299582,,,,,,,,,,,,,,,,,,,,,,,,,,,,,,,,,,,,,,,,,,,,,,,,,,,,,,,,,,,,,,,,,,,,,,,,,,,,,,,,,,"[7,8,6,4,1,5,9,3]",,,,,,,,,,,,,,,,,,,,,,,,,,,,,,,,,,,,,1,0,1,0,1,,,,,,,,,,,,
,,5ae090dadee8590001b078c8,2022-09-08_13h01.11.539,CGTgamblingSpanTasks,2022.2.1,Win32,144.0299582,,,,,,,,,,,,,,,,,,,,,,,,,,,,,,,,,,,,,,,,,,,,,,,,,,,,,,,,,,,,,,,,,,,,,,,,,,,,,,,,,,"[7,8,6,4,1,5,9,3]",,,,,,,,,,,,,,,,,,,,,,,,,,,,,,,,,,,,,2,0,2,0,1,,,,,,,,,,,,
,,5ae090dadee8590001b078c8,2022-09-08_13h01.11.539,CGTgamblingSpanTasks,2022.2.1,Win32,144.0299582,,,,,,,,,,,,,,,,,,,,,,,,,,,,,,,,,,,,,,,,,,,,,,,,,,,,,,,,,,,,,,,,,,,,,,,,,,,,,,,,,,"[7,8,6,4,1,5,9,3]",,,,,,,,,,,,,,,,,,,,,,,,,,,,,,,,,,,,,3,0,3,0,1,,,,,,,,,,,,
