initITIstatic,initITIdynamic,participant,date,expName,psychopyVersion,OS,frameRate,inst1.keys,inst1.rt,startPracResp.keys,startPracResp.rt,choice1.keys,choice1.rt,outcome,extraITI,trials.thisRepN,trials.thisTrialN,trials.thisN,trials.thisIndex,trials.ran,riskyGain,riskyLoss,alternative,isi,iti,loc,postPractResp.keys,postPractResp.rt,realloc,realChoice.keys,realChoice.rt,outcomes,choices,actualITI,init ITI,staticRDM.thisRepN,staticRDM.thisTrialN,staticRDM.thisN,staticRDM.thisIndex,staticRDM.ran,riskyoption1,riskyoption2,safeoption,ischecktrial,dynamicChoiceSetName,dynamicChoiceSetPath,bestRho,bestMu,trials_2.thisRepN,trials_2.thisTrialN,trials_2.thisN,trials_2.thisIndex,trials_2.ran,key_resp.keys,key_resp.rt,dynamicRDM.thisRepN,dynamicRDM.thisTrialN,dynamicRDM.thisN,dynamicRDM.thisIndex,dynamicRDM.ran,choiceP,easy0difficult1,stopBreak.keys,stopBreak.rt,movealong.keys,movealong.rt,startPractice.keys,startPractice.rt,textboxPractice.text,correct,mousePractice.x,mousePractice.y,mousePractice.leftButton,mousePractice.midButton,mousePractice.rightButton,mousePractice.clicked_name,trialFSPractice.thisRepN,trialFSPractice.thisTrialN,trialFSPractice.thisN,trialFSPractice.thisIndex,trialFSPractice.ran,digitSpanForward,digits,digitsReverse,digitSpanReverse,digitsReverseCorrAnswer,startFSreal.keys,startFSreal.rt,digitsForTrial,digitLoop.thisRepN,digitLoop.thisTrialN,digitLoop.thisN,digitLoop.thisIndex,digitLoop.ran,textbox.text,mouse_3.x,mouse_3.y,mouse_3.leftButton,mouse_3.midButton,mouse_3.rightButton,mouse_3.clicked_name,trialsFS.thisRepN,trialsFS.thisTrialN,trialsFS.thisN,trialsFS.thisIndex,trialsFS.ran,trialNumber,moveToBS.keys,moveToBS.rt,startBSprac.keys,startBSprac.rt,textboxPractice_2.text,mousePractice_2.x,mousePractice_2.y,mousePractice_2.leftButton,mousePractice_2.midButton,mousePractice_2.rightButton,mousePractice_2.clicked_name,trialsPracticeBS.thisRepN,trialsPracticeBS.thisTrialN,trialsPracticeBS.thisN,trialsPracticeBS.thisIndex,trialsPracticeBS.ran,startBSreal.keys,startBSreal.rt,digitLoopBS.thisRepN,digitLoopBS.thisTrialN,digitLoopBS.thisN,digitLoopBS.thisIndex,digitLoopBS.ran,textboxBS.text,mouseBS.x,mouseBS.y,mouseBS.leftButton,mouseBS.midButton,mouseBS.rightButton,mouseBS.clicked_name,trialsBS.thisRepN,trialsBS.thisTrialN,trialsBS.thisN,trialsBS.thisIndex,trialsBS.ran
"[1,1,1.5,1,1,1,1,1.5,1.5,1,1.5,1.5,1.5,1,1,1,1,1,1,1.5,1,1.5,1.5,1,1,1.5,1.5,1,1.5,1.5,1.5,1,1,1.5,1,1.5,1,1,1,1.5,1.5,1,1.5,1.5,1.5,1.5,1.5,1.5,1,1.5]","[1,1,1.5,1.5,1.5,1,1.5,1.5,1,1.5,1.5,1,1,1.5,1.5,1,1.5,1.5,1,1,1.5,1,1,1.5,1.5,1,1,1,1,1.5,1,1,1,1,1.5,1,1.5,1,1,1,1.5,1,1.5,1,1.5,1,1.5,1.5,1.5,1.5,1.5,1.5,1,1,1,1.5,1.5,1.5,1.5,1.5,1,1.5,1.5,1.5,1,1,1.5,1,1.5,1,1.5,1,1.5,1,1,1,1.5,1,1,1.5,1.5,1,1.5,1,1.5,1,1.5,1,1,1,1.5,1,1,1.5,1.5,1.5,1,1.5,1.5,1,1.5,1.5,1,1,1,1.5,1,1,1,1,1.5,1,1,1.5,1.5,1.5,1.5,1,1.5,1.5]",6138c06bd7d7f2b7720e7a27,2022-09-08_12h08.03.673,CGTgamblingSpanTasks,2022.2.1,Win32,59.95203837,,,,,,,,,,,,,,,,,,,,,,,,,,,,,,,,,,,,,,,,,,,,,,,,,,,,,,,,,,,,,,,,,,,,,,,,,,,,,,,,,,,,,,,,,,,,,,,,,,,,,,,,,,,,,,,,,,,,,,,,,,,,,,,,,,,,,,,
,,6138c06bd7d7f2b7720e7a27,2022-09-08_12h08.03.673,CGTgamblingSpanTasks,2022.2.1,Win32,59.95203837,return,5.602,,,,,,,,,,,,,,,,,,,,,,,,,,,,,,,,,,,,,,,,,,,,,,,,,,,,,,,,,,,,,,,,,,,,,,,,,,,,,,,,,,,,,,,,,,,,,,,,,,,,,,,,,,,,,,,,,,,,,,,,,,,,,,,,,,,,,
,,6138c06bd7d7f2b7720e7a27,2022-09-08_12h08.03.673,CGTgamblingSpanTasks,2022.2.1,Win32,59.95203837,,,v,4.291,,,,,,,,,,,,,,,,,,,,,,,,,,,,,,,,,,,,,,,,,,,,,,,,,,,,,,,,,,,,,,,,,,,,,,,,,,,,,,,,,,,,,,,,,,,,,,,,,,,,,,,,,,,,,,,,,,,,,,,,,,,,,,,,,,,
,,6138c06bd7d7f2b7720e7a27,2022-09-08_12h08.03.673,CGTgamblingSpanTasks,2022.2.1,Win32,59.95203837,,,,,v,1.116,18.23,2.884,0,0,0,0,1,18.23,0,9.45,2,1,1,,,,,,,,,,,,,,,,,,,,,,,,,,,,,,,,,,,,,,,,,,,,,,,,,,,,,,,,,,,,,,,,,,,,,,,,,,,,,,,,,,,,,,,,,,,,,,,,,,,,,,,,,,,,,,,,,,,,
,,6138c06bd7d7f2b7720e7a27,2022-09-08_12h08.03.673,CGTgamblingSpanTasks,2022.2.1,Win32,59.95203837,,,,,n,2.147,35.16,1.853,0,1,1,1,1,53.27,0,35.16,1,1.5,1,,,,,,,,,,,,,,,,,,,,,,,,,,,,,,,,,,,,,,,,,,,,,,,,,,,,,,,,,,,,,,,,,,,,,,,,,,,,,,,,,,,,,,,,,,,,,,,,,,,,,,,,,,,,,,,,,,,,
,,6138c06bd7d7f2b7720e7a27,2022-09-08_12h08.03.673,CGTgamblingSpanTasks,2022.2.1,Win32,59.95203837,,,,,v,0.821,1.15,3.179,0,2,2,2,1,8.27,0,1.15,1,1.5,2,,,,,,,,,,,,,,,,,,,,,,,,,,,,,,,,,,,,,,,,,,,,,,,,,,,,,,,,,,,,,,,,,,,,,,,,,,,,,,,,,,,,,,,,,,,,,,,,,,,,,,,,,,,,,,,,,,,,
,,6138c06bd7d7f2b7720e7a27,2022-09-08_12h08.03.673,CGTgamblingSpanTasks,2022.2.1,Win32,59.95203837,,,,,n,2.54,40.41,1.46,0,3,3,3,1,45.88,0,40.41,3,1,1,,,,,,,,,,,,,,,,,,,,,,,,,,,,,,,,,,,,,,,,,,,,,,,,,,,,,,,,,,,,,,,,,,,,,,,,,,,,,,,,,,,,,,,,,,,,,,,,,,,,,,,,,,,,,,,,,,,,
,,6138c06bd7d7f2b7720e7a27,2022-09-08_12h08.03.673,CGTgamblingSpanTasks,2022.2.1,Win32,59.95203837,,,,,v,1.197,11.96,2.803,0,4,4,4,1,21.56,0,11.96,1,1.5,2,,,,,,,,,,,,,,,,,,,,,,,,,,,,,,,,,,,,,,,,,,,,,,,,,,,,,,,,,,,,,,,,,,,,,,,,,,,,,,,,,,,,,,,,,,,,,,,,,,,,,,,,,,,,,,,,,,,,
,,6138c06bd7d7f2b7720e7a27,2022-09-08_12h08.03.673,CGTgamblingSpanTasks,2022.2.1,Win32,59.95203837,,,,,,,,,,,,,,,,,,,,n,169.514,,,,,,,,,,,,,,,,,,,,,,,,,,,,,,,,,,,,,,,,,,,,,,,,,,,,,,,,,,,,,,,,,,,,,,,,,,,,,,,,,,,,,,,,,,,,,,,,,,,,,,,,,,,,,,,,,,
,,6138c06bd7d7f2b7720e7a27,2022-09-08_12h08.03.673,CGTgamblingSpanTasks,2022.2.1,Win32,59.95203837,,,,,,,,1.857,,,,,,,,,,,,,,2,v,2.143,6.73,0,2.857,1,0,0,0,32,1,10.55,0,6.73,0,,,,,,,,,,,,,,,,,,,,,,,,,,,,,,,,,,,,,,,,,,,,,,,,,,,,,,,,,,,,,,,,,,,,,,,,,,,,,,,,,,,,,,,,,,,,,,,,,,
,,6138c06bd7d7f2b7720e7a27,2022-09-08_12h08.03.673,CGTgamblingSpanTasks,2022.2.1,Win32,59.95203837,,,,,,,,2.118,,,,,,,,,,,,,,2,v,1.882,10.68,0,3.118,1,0,1,1,48,1,10.68,0,10.68,1,,,,,,,,,,,,,,,,,,,,,,,,,,,,,,,,,,,,,,,,,,,,,,,,,,,,,,,,,,,,,,,,,,,,,,,,,,,,,,,,,,,,,,,,,,,,,,,,,,
,,6138c06bd7d7f2b7720e7a27,2022-09-08_12h08.03.673,CGTgamblingSpanTasks,2022.2.1,Win32,59.95203837,,,,,,,,2.698,,,,,,,,,,,,,,2,v,1.302,6.08,0,4.198,1.5,0,2,2,20,1,11.84,0,6.08,0,,,,,,,,,,,,,,,,,,,,,,,,,,,,,,,,,,,,,,,,,,,,,,,,,,,,,,,,,,,,,,,,,,,,,,,,,,,,,,,,,,,,,,,,,,,,,,,,,,
,,6138c06bd7d7f2b7720e7a27,2022-09-08_12h08.03.673,CGTgamblingSpanTasks,2022.2.1,Win32,59.95203837,,,,,,,,2.531,,,,,,,,,,,,,,1,v,1.469,0,1,3.531,1,0,3,3,7,1,21.32,0,7.34,0,,,,,,,,,,,,,,,,,,,,,,,,,,,,,,,,,,,,,,,,,,,,,,,,,,,,,,,,,,,,,,,,,,,,,,,,,,,,,,,,,,,,,,,,,,,,,,,,,,
,,6138c06bd7d7f2b7720e7a27,2022-09-08_12h08.03.673,CGTgamblingSpanTasks,2022.2.1,Win32,59.95203837,,,,,,,,2.633,,,,,,,,,,,,,,1,v,1.367,0,1,3.633,1,0,4,4,16,1,12.36,0,5.82,0,,,,,,,,,,,,,,,,,,,,,,,,,,,,,,,,,,,,,,,,,,,,,,,,,,,,,,,,,,,,,,,,,,,,,,,,,,,,,,,,,,,,,,,,,,,,,,,,,,
,,6138c06bd7d7f2b7720e7a27,2022-09-08_12h08.03.673,CGTgamblingSpanTasks,2022.2.1,Win32,59.95203837,,,,,,,,2.207,,,,,,,,,,,,,,2,v,1.793,8.07,0,3.207,1,0,5,5,11,1,19.86,0,8.07,0,,,,,,,,,,,,,,,,,,,,,,,,,,,,,,,,,,,,,,,,,,,,,,,,,,,,,,,,,,,,,,,,,,,,,,,,,,,,,,,,,,,,,,,,,,,,,,,,,,
,,6138c06bd7d7f2b7720e7a27,2022-09-08_12h08.03.673,CGTgamblingSpanTasks,2022.2.1,Win32,59.95203837,,,,,,,,2.066,,,,,,,,,,,,,,1,v,1.934,0,1,3.066,1,0,6,6,15,1,18.77,0,8.61,0,,,,,,,,,,,,,,,,,,,,,,,,,,,,,,,,,,,,,,,,,,,,,,,,,,,,,,,,,,,,,,,,,,,,,,,,,,,,,,,,,,,,,,,,,,,,,,,,,,
,,6138c06bd7d7f2b7720e7a27,2022-09-08_12h08.03.673,CGTgamblingSpanTasks,2022.2.1,Win32,59.95203837,,,,,,,,2.064,,,,,,,,,,,,,,2,v,1.936,10.15,0,3.564,1.5,0,7,7,33,1,15.7,0,10.15,0,,,,,,,,,,,,,,,,,,,,,,,,,,,,,,,,,,,,,,,,,,,,,,,,,,,,,,,,,,,,,,,,,,,,,,,,,,,,,,,,,,,,,,,,,,,,,,,,,,
,,6138c06bd7d7f2b7720e7a27,2022-09-08_12h08.03.673,CGTgamblingSpanTasks,2022.2.1,Win32,59.95203837,,,,,,,,2.503,,,,,,,,,,,,,,1,v,1.497,0,1,4.003,1.5,0,8,8,21,1,17.59,0,9.2,0,,,,,,,,,,,,,,,,,,,,,,,,,,,,,,,,,,,,,,,,,,,,,,,,,,,,,,,,,,,,,,,,,,,,,,,,,,,,,,,,,,,,,,,,,,,,,,,,,,
,,6138c06bd7d7f2b7720e7a27,2022-09-08_12h08.03.673,CGTgamblingSpanTasks,2022.2.1,Win32,59.95203837,,,,,,,,2.5,,,,,,,,,,,,,,1,n,1.5,4.68,0,3.5,1,0,9,9,44,1,13.1,7.73,4.68,1,,,,,,,,,,,,,,,,,,,,,,,,,,,,,,,,,,,,,,,,,,,,,,,,,,,,,,,,,,,,,,,,,,,,,,,,,,,,,,,,,,,,,,,,,,,,,,,,,,
,,6138c06bd7d7f2b7720e7a27,2022-09-08_12h08.03.673,CGTgamblingSpanTasks,2022.2.1,Win32,59.95203837,,,,,,,,2.208,,,,,,,,,,,,,,1,v,1.792,0,1,3.708,1.5,0,10,10,9,1,20.53,0,7.73,0,,,,,,,,,,,,,,,,,,,,,,,,,,,,,,,,,,,,,,,,,,,,,,,,,,,,,,,,,,,,,,,,,,,,,,,,,,,,,,,,,,,,,,,,,,,,,,,,,,
,,6138c06bd7d7f2b7720e7a27,2022-09-08_12h08.03.673,CGTgamblingSpanTasks,2022.2.1,Win32,59.95203837,,,,,,,,2.131,,,,,,,,,,,,,,2,v,1.869,6.81,0,3.631,1.5,0,11,11,34,1,10.39,0,6.81,0,,,,,,,,,,,,,,,,,,,,,,,,,,,,,,,,,,,,,,,,,,,,,,,,,,,,,,,,,,,,,,,,,,,,,,,,,,,,,,,,,,,,,,,,,,,,,,,,,,
,,6138c06bd7d7f2b7720e7a27,2022-09-08_12h08.03.673,CGTgamblingSpanTasks,2022.2.1,Win32,59.95203837,,,,,,,,2.362,,,,,,,,,,,,,,1,v,1.638,19.86,1,3.862,1.5,0,12,12,42,1,19.86,0,0,1,,,,,,,,,,,,,,,,,,,,,,,,,,,,,,,,,,,,,,,,,,,,,,,,,,,,,,,,,,,,,,,,,,,,,,,,,,,,,,,,,,,,,,,,,,,,,,,,,,
,,6138c06bd7d7f2b7720e7a27,2022-09-08_12h08.03.673,CGTgamblingSpanTasks,2022.2.1,Win32,59.95203837,,,,,,,,2.721,,,,,,,,,,,,,,1,n,1.279,10.46,0,3.721,1,0,13,13,39,1,15.09,0,10.46,0,,,,,,,,,,,,,,,,,,,,,,,,,,,,,,,,,,,,,,,,,,,,,,,,,,,,,,,,,,,,,,,,,,,,,,,,,,,,,,,,,,,,,,,,,,,,,,,,,,
,,6138c06bd7d7f2b7720e7a27,2022-09-08_12h08.03.673,CGTgamblingSpanTasks,2022.2.1,Win32,59.95203837,,,,,,,,2.581,,,,,,,,,,,,,,1,n,1.419,6.94,0,3.581,1,0,14,14,38,1,10.12,0,6.94,0,,,,,,,,,,,,,,,,,,,,,,,,,,,,,,,,,,,,,,,,,,,,,,,,,,,,,,,,,,,,,,,,,,,,,,,,,,,,,,,,,,,,,,,,,,,,,,,,,,
,,6138c06bd7d7f2b7720e7a27,2022-09-08_12h08.03.673,CGTgamblingSpanTasks,2022.2.1,Win32,59.95203837,,,,,,,,2.804,,,,,,,,,,,,,,2,n,1.196,18.33,1,3.804,1,0,15,15,17,1,18.33,0,8.84,0,,,,,,,,,,,,,,,,,,,,,,,,,,,,,,,,,,,,,,,,,,,,,,,,,,,,,,,,,,,,,,,,,,,,,,,,,,,,,,,,,,,,,,,,,,,,,,,,,,
,,6138c06bd7d7f2b7720e7a27,2022-09-08_12h08.03.673,CGTgamblingSpanTasks,2022.2.1,Win32,59.95203837,,,,,,,,2.553,,,,,,,,,,,,,,2,v,1.447,9.5,0,3.553,1,0,16,16,25,1,17,0,9.5,0,,,,,,,,,,,,,,,,,,,,,,,,,,,,,,,,,,,,,,,,,,,,,,,,,,,,,,,,,,,,,,,,,,,,,,,,,,,,,,,,,,,,,,,,,,,,,,,,,,
,,6138c06bd7d7f2b7720e7a27,2022-09-08_12h08.03.673,CGTgamblingSpanTasks,2022.2.1,Win32,59.95203837,,,,,,,,3.017,,,,,,,,,,,,,,2,n,0.983,0,1,4.017,1,0,17,17,41,1,14.26,0,0,1,,,,,,,,,,,,,,,,,,,,,,,,,,,,,,,,,,,,,,,,,,,,,,,,,,,,,,,,,,,,,,,,,,,,,,,,,,,,,,,,,,,,,,,,,,,,,,,,,,
,,6138c06bd7d7f2b7720e7a27,2022-09-08_12h08.03.673,CGTgamblingSpanTasks,2022.2.1,Win32,59.95203837,,,,,,,,2.837,,,,,,,,,,,,,,2,v,1.163,10.37,0,3.837,1,0,18,18,37,1,15.27,0,10.37,0,,,,,,,,,,,,,,,,,,,,,,,,,,,,,,,,,,,,,,,,,,,,,,,,,,,,,,,,,,,,,,,,,,,,,,,,,,,,,,,,,,,,,,,,,,,,,,,,,,
,,6138c06bd7d7f2b7720e7a27,2022-09-08_12h08.03.673,CGTgamblingSpanTasks,2022.2.1,Win32,59.95203837,,,,,,,,2.867,,,,,,,,,,,,,,2,n,1.133,0,1,4.367,1.5,0,19,19,1,1,28.21,0,3.89,0,,,,,,,,,,,,,,,,,,,,,,,,,,,,,,,,,,,,,,,,,,,,,,,,,,,,,,,,,,,,,,,,,,,,,,,,,,,,,,,,,,,,,,,,,,,,,,,,,,
,,6138c06bd7d7f2b7720e7a27,2022-09-08_12h08.03.673,CGTgamblingSpanTasks,2022.2.1,Win32,59.95203837,,,,,,,,2.873,,,,,,,,,,,,,,2,v,1.127,5.66,0,3.873,1,0,20,20,14,1,12.68,0,5.66,0,,,,,,,,,,,,,,,,,,,,,,,,,,,,,,,,,,,,,,,,,,,,,,,,,,,,,,,,,,,,,,,,,,,,,,,,,,,,,,,,,,,,,,,,,,,,,,,,,,
,,6138c06bd7d7f2b7720e7a27,2022-09-08_12h08.03.673,CGTgamblingSpanTasks,2022.2.1,Win32,59.95203837,,,,,,,,2.922,,,,,,,,,,,,,,2,v,1.078,10.25,0,4.422,1.5,0,21,21,46,1,0,0,10.25,1,,,,,,,,,,,,,,,,,,,,,,,,,,,,,,,,,,,,,,,,,,,,,,,,,,,,,,,,,,,,,,,,,,,,,,,,,,,,,,,,,,,,,,,,,,,,,,,,,,
,,6138c06bd7d7f2b7720e7a27,2022-09-08_12h08.03.673,CGTgamblingSpanTasks,2022.2.1,Win32,59.95203837,,,,,,,,2.814,,,,,,,,,,,,,,2,v,1.186,10.27,0,4.314,1.5,0,22,22,35,1,15.47,0,10.27,0,,,,,,,,,,,,,,,,,,,,,,,,,,,,,,,,,,,,,,,,,,,,,,,,,,,,,,,,,,,,,,,,,,,,,,,,,,,,,,,,,,,,,,,,,,,,,,,,,,
,,6138c06bd7d7f2b7720e7a27,2022-09-08_12h08.03.673,CGTgamblingSpanTasks,2022.2.1,Win32,59.95203837,,,,,,,,2.316,,,,,,,,,,,,,,2,n,1.684,0,1,3.316,1,0,23,23,23,1,17.28,0,9.36,0,,,,,,,,,,,,,,,,,,,,,,,,,,,,,,,,,,,,,,,,,,,,,,,,,,,,,,,,,,,,,,,,,,,,,,,,,,,,,,,,,,,,,,,,,,,,,,,,,,
,,6138c06bd7d7f2b7720e7a27,2022-09-08_12h08.03.673,CGTgamblingSpanTasks,2022.2.1,Win32,59.95203837,,,,,,,,2.749,,,,,,,,,,,,,,1,v,1.251,0,1,3.749,1,0,24,24,27,1,16.6,0,9.7,0,,,,,,,,,,,,,,,,,,,,,,,,,,,,,,,,,,,,,,,,,,,,,,,,,,,,,,,,,,,,,,,,,,,,,,,,,,,,,,,,,,,,,,,,,,,,,,,,,,
,,6138c06bd7d7f2b7720e7a27,2022-09-08_12h08.03.673,CGTgamblingSpanTasks,2022.2.1,Win32,59.95203837,,,,,,,,3.025,,,,,,,,,,,,,,1,v,0.975,10.35,1,4.525,1.5,0,25,25,40,1,10.35,0,0,1,,,,,,,,,,,,,,,,,,,,,,,,,,,,,,,,,,,,,,,,,,,,,,,,,,,,,,,,,,,,,,,,,,,,,,,,,,,,,,,,,,,,,,,,,,,,,,,,,,
,,6138c06bd7d7f2b7720e7a27,2022-09-08_12h08.03.673,CGTgamblingSpanTasks,2022.2.1,Win32,59.95203837,,,,,,,,3.039,,,,,,,,,,,,,,1,n,0.961,7.55,0,4.539,1.5,0,26,26,45,1,0,0,7.55,1,,,,,,,,,,,,,,,,,,,,,,,,,,,,,,,,,,,,,,,,,,,,,,,,,,,,,,,,,,,,,,,,,,,,,,,,,,,,,,,,,,,,,,,,,,,,,,,,,,
,,6138c06bd7d7f2b7720e7a27,2022-09-08_12h08.03.673,CGTgamblingSpanTasks,2022.2.1,Win32,59.95203837,,,,,,,,2.701,,,,,,,,,,,,,,1,n,1.299,6.53,0,3.701,1,0,27,27,28,1,10.95,0,6.53,0,,,,,,,,,,,,,,,,,,,,,,,,,,,,,,,,,,,,,,,,,,,,,,,,,,,,,,,,,,,,,,,,,,,,,,,,,,,,,,,,,,,,,,,,,,,,,,,,,,
,,6138c06bd7d7f2b7720e7a27,2022-09-08_12h08.03.673,CGTgamblingSpanTasks,2022.2.1,Win32,59.95203837,,,,,,,,1.162,,,,,,,,,,,,,,2,v,2.838,9.92,0,2.662,1.5,0,28,28,49,1,6.79,0,9.92,1,,,,,,,,,,,,,,,,,,,,,,,,,,,,,,,,,,,,,,,,,,,,,,,,,,,,,,,,,,,,,,,,,,,,,,,,,,,,,,,,,,,,,,,,,,,,,,,,,,
,,6138c06bd7d7f2b7720e7a27,2022-09-08_12h08.03.673,CGTgamblingSpanTasks,2022.2.1,Win32,59.95203837,,,,,,,,1.522,,,,,,,,,,,,,,2,n,2.478,14.72,1,3.022,1.5,0,29,29,6,1,14.72,0,4.64,0,,,,,,,,,,,,,,,,,,,,,,,,,,,,,,,,,,,,,,,,,,,,,,,,,,,,,,,,,,,,,,,,,,,,,,,,,,,,,,,,,,,,,,,,,,,,,,,,,,
,,6138c06bd7d7f2b7720e7a27,2022-09-08_12h08.03.673,CGTgamblingSpanTasks,2022.2.1,Win32,59.95203837,,,,,,,,2.973,,,,,,,,,,,,,,2,v,1.027,6.4,0,4.473,1.5,0,30,30,26,1,11.2,0,6.4,0,,,,,,,,,,,,,,,,,,,,,,,,,,,,,,,,,,,,,,,,,,,,,,,,,,,,,,,,,,,,,,,,,,,,,,,,,,,,,,,,,,,,,,,,,,,,,,,,,,
,,6138c06bd7d7f2b7720e7a27,2022-09-08_12h08.03.673,CGTgamblingSpanTasks,2022.2.1,Win32,59.95203837,,,,,,,,3.039,,,,,,,,,,,,,,2,n,0.961,0,1,4.039,1,0,31,31,29,1,16.26,0,9.87,0,,,,,,,,,,,,,,,,,,,,,,,,,,,,,,,,,,,,,,,,,,,,,,,,,,,,,,,,,,,,,,,,,,,,,,,,,,,,,,,,,,,,,,,,,,,,,,,,,,
,,6138c06bd7d7f2b7720e7a27,2022-09-08_12h08.03.673,CGTgamblingSpanTasks,2022.2.1,Win32,59.95203837,,,,,,,,2.9,,,,,,,,,,,,,,2,v,1.1,8.36,0,3.9,1,0,32,32,13,1,19.28,0,8.36,0,,,,,,,,,,,,,,,,,,,,,,,,,,,,,,,,,,,,,,,,,,,,,,,,,,,,,,,,,,,,,,,,,,,,,,,,,,,,,,,,,,,,,,,,,,,,,,,,,,
,,6138c06bd7d7f2b7720e7a27,2022-09-08_12h08.03.673,CGTgamblingSpanTasks,2022.2.1,Win32,59.95203837,,,,,,,,2.521,,,,,,,,,,,,,,1,v,1.479,13.45,1,4.021,1.5,0,33,33,10,1,13.45,0,5.27,0,,,,,,,,,,,,,,,,,,,,,,,,,,,,,,,,,,,,,,,,,,,,,,,,,,,,,,,,,,,,,,,,,,,,,,,,,,,,,,,,,,,,,,,,,,,,,,,,,,
,,6138c06bd7d7f2b7720e7a27,2022-09-08_12h08.03.673,CGTgamblingSpanTasks,2022.2.1,Win32,59.95203837,,,,,,,,3.001,,,,,,,,,,,,,,1,n,0.999,3.13,0,4.001,1,0,34,34,47,1,0,0,3.13,1,,,,,,,,,,,,,,,,,,,,,,,,,,,,,,,,,,,,,,,,,,,,,,,,,,,,,,,,,,,,,,,,,,,,,,,,,,,,,,,,,,,,,,,,,,,,,,,,,,
,,6138c06bd7d7f2b7720e7a27,2022-09-08_12h08.03.673,CGTgamblingSpanTasks,2022.2.1,Win32,59.95203837,,,,,,,,2.867,,,,,,,,,,,,,,1,v,1.133,0,1,4.367,1.5,0,35,35,0,1,20.03,0,1.99,0,,,,,,,,,,,,,,,,,,,,,,,,,,,,,,,,,,,,,,,,,,,,,,,,,,,,,,,,,,,,,,,,,,,,,,,,,,,,,,,,,,,,,,,,,,,,,,,,,,
,,6138c06bd7d7f2b7720e7a27,2022-09-08_12h08.03.673,CGTgamblingSpanTasks,2022.2.1,Win32,59.95203837,,,,,,,,2.737,,,,,,,,,,,,,,1,v,1.263,22.97,1,3.737,1,0,36,36,5,1,22.97,0,6.51,0,,,,,,,,,,,,,,,,,,,,,,,,,,,,,,,,,,,,,,,,,,,,,,,,,,,,,,,,,,,,,,,,,,,,,,,,,,,,,,,,,,,,,,,,,,,,,,,,,,
,,6138c06bd7d7f2b7720e7a27,2022-09-08_12h08.03.673,CGTgamblingSpanTasks,2022.2.1,Win32,59.95203837,,,,,,,,2.397,,,,,,,,,,,,,,1,n,1.603,6.63,0,3.397,1,0,37,37,30,1,10.73,0,6.63,0,,,,,,,,,,,,,,,,,,,,,,,,,,,,,,,,,,,,,,,,,,,,,,,,,,,,,,,,,,,,,,,,,,,,,,,,,,,,,,,,,,,,,,,,,,,,,,,,,,
,,6138c06bd7d7f2b7720e7a27,2022-09-08_12h08.03.673,CGTgamblingSpanTasks,2022.2.1,Win32,59.95203837,,,,,,,,2.92,,,,,,,,,,,,,,1,v,1.08,17.73,1,3.92,1,0,38,38,2,1,17.73,0,3.13,0,,,,,,,,,,,,,,,,,,,,,,,,,,,,,,,,,,,,,,,,,,,,,,,,,,,,,,,,,,,,,,,,,,,,,,,,,,,,,,,,,,,,,,,,,,,,,,,,,,
,,6138c06bd7d7f2b7720e7a27,2022-09-08_12h08.03.673,CGTgamblingSpanTasks,2022.2.1,Win32,59.95203837,,,,,,,,2.518,,,,,,,,,,,,,,1,v,1.482,6.99,1,4.018,1.5,0,39,39,43,1,16.11,6.99,6.99,1,,,,,,,,,,,,,,,,,,,,,,,,,,,,,,,,,,,,,,,,,,,,,,,,,,,,,,,,,,,,,,,,,,,,,,,,,,,,,,,,,,,,,,,,,,,,,,,,,,
,,6138c06bd7d7f2b7720e7a27,2022-09-08_12h08.03.673,CGTgamblingSpanTasks,2022.2.1,Win32,59.95203837,,,,,,,,2.976,,,,,,,,,,,,,,1,v,1.024,0,1,4.476,1.5,0,40,40,12,1,13.04,0,5.48,0,,,,,,,,,,,,,,,,,,,,,,,,,,,,,,,,,,,,,,,,,,,,,,,,,,,,,,,,,,,,,,,,,,,,,,,,,,,,,,,,,,,,,,,,,,,,,,,,,,
,,6138c06bd7d7f2b7720e7a27,2022-09-08_12h08.03.673,CGTgamblingSpanTasks,2022.2.1,Win32,59.95203837,,,,,,,,3.137,,,,,,,,,,,,,,2,n,0.863,16,1,4.137,1,0,41,41,4,1,16,0,4,0,,,,,,,,,,,,,,,,,,,,,,,,,,,,,,,,,,,,,,,,,,,,,,,,,,,,,,,,,,,,,,,,,,,,,,,,,,,,,,,,,,,,,,,,,,,,,,,,,,
,,6138c06bd7d7f2b7720e7a27,2022-09-08_12h08.03.673,CGTgamblingSpanTasks,2022.2.1,Win32,59.95203837,,,,,,,,2.654,,,,,,,,,,,,,,2,v,1.346,6.29,0,4.154,1.5,0,42,42,24,1,11.43,0,6.29,0,,,,,,,,,,,,,,,,,,,,,,,,,,,,,,,,,,,,,,,,,,,,,,,,,,,,,,,,,,,,,,,,,,,,,,,,,,,,,,,,,,,,,,,,,,,,,,,,,,
,,6138c06bd7d7f2b7720e7a27,2022-09-08_12h08.03.673,CGTgamblingSpanTasks,2022.2.1,Win32,59.95203837,,,,,,,,2.684,,,,,,,,,,,,,,2,v,1.316,6.88,0,4.184,1.5,0,43,43,36,1,10.24,0,6.88,0,,,,,,,,,,,,,,,,,,,,,,,,,,,,,,,,,,,,,,,,,,,,,,,,,,,,,,,,,,,,,,,,,,,,,,,,,,,,,,,,,,,,,,,,,,,,,,,,,,
,,6138c06bd7d7f2b7720e7a27,2022-09-08_12h08.03.673,CGTgamblingSpanTasks,2022.2.1,Win32,59.95203837,,,,,,,,2.799,,,,,,,,,,,,,,1,v,1.201,13.94,1,4.299,1.5,0,44,44,8,1,13.94,0,5.03,0,,,,,,,,,,,,,,,,,,,,,,,,,,,,,,,,,,,,,,,,,,,,,,,,,,,,,,,,,,,,,,,,,,,,,,,,,,,,,,,,,,,,,,,,,,,,,,,,,,
,,6138c06bd7d7f2b7720e7a27,2022-09-08_12h08.03.673,CGTgamblingSpanTasks,2022.2.1,Win32,59.95203837,,,,,,,,2.904,,,,,,,,,,,,,,1,n,1.096,6.19,0,4.404,1.5,0,45,45,22,1,11.62,0,6.19,0,,,,,,,,,,,,,,,,,,,,,,,,,,,,,,,,,,,,,,,,,,,,,,,,,,,,,,,,,,,,,,,,,,,,,,,,,,,,,,,,,,,,,,,,,,,,,,,,,,
,,6138c06bd7d7f2b7720e7a27,2022-09-08_12h08.03.673,CGTgamblingSpanTasks,2022.2.1,Win32,59.95203837,,,,,,,,2.815,,,,,,,,,,,,,,2,v,1.185,9.03,0,4.315,1.5,0,46,46,19,1,17.94,0,9.03,0,,,,,,,,,,,,,,,,,,,,,,,,,,,,,,,,,,,,,,,,,,,,,,,,,,,,,,,,,,,,,,,,,,,,,,,,,,,,,,,,,,,,,,,,,,,,,,,,,,
,,6138c06bd7d7f2b7720e7a27,2022-09-08_12h08.03.673,CGTgamblingSpanTasks,2022.2.1,Win32,59.95203837,,,,,,,,2.916,,,,,,,,,,,,,,1,v,1.084,0,1,4.416,1.5,0,47,47,18,1,12.08,0,5.96,0,,,,,,,,,,,,,,,,,,,,,,,,,,,,,,,,,,,,,,,,,,,,,,,,,,,,,,,,,,,,,,,,,,,,,,,,,,,,,,,,,,,,,,,,,,,,,,,,,,
,,6138c06bd7d7f2b7720e7a27,2022-09-08_12h08.03.673,CGTgamblingSpanTasks,2022.2.1,Win32,59.95203837,,,,,,,,2.668,,,,,,,,,,,,,,2,n,1.332,25.2,1,3.668,1,0,48,48,3,1,25.2,0,5.4,0,,,,,,,,,,,,,,,,,,,,,,,,,,,,,,,,,,,,,,,,,,,,,,,,,,,,,,,,,,,,,,,,,,,,,,,,,,,,,,,,,,,,,,,,,,,,,,,,,,
,,6138c06bd7d7f2b7720e7a27,2022-09-08_12h08.03.673,CGTgamblingSpanTasks,2022.2.1,Win32,59.95203837,,,,,,,,1.815,,,,,,,,,,,,,,2,v,2.185,10.02,0,3.315,1.5,0,49,49,31,1,15.96,0,10.02,0,,,,,,,,,,,,,,,,,,,,,,,,,,,,,,,,,,,,,,,,,,,,,,,,,,,,,,,,,,,,,,,,,,,,,,,,,,,,,,,,,,,,,,,,,,,,,,,,,,
,,6138c06bd7d7f2b7720e7a27,2022-09-08_12h08.03.673,CGTgamblingSpanTasks,2022.2.1,Win32,59.95203837,,,,,,,,,,,,,,,,,,,,,,,,,,,,,,,,,,,,,,bespoke_choiceset_rhoInd069_muInd028.csv,bespoke_choicesets/bespoke_choiceset_rhoInd069_muInd028.csv,69,28,0,0,0,0,1,,,,,,,,,,,,,,,,,,,,,,,,,,,,,,,,,,,,,,,,,,,,,,,,,,,,,,,,,,,,,,,,,,,,,,,,,,,,,,,,,,,,,,,,,
,,6138c06bd7d7f2b7720e7a27,2022-09-08_12h08.03.673,CGTgamblingSpanTasks,2022.2.1,Win32,59.95203837,,,,,,,,,,,,,,,,,,,,,,,,,,,,,,,,,,,,,,,,,,,,,,,,,,,,,,,,,,,,,,,,,,,,,,,,,,,,,,,,,,,,,,,,,,,,,,,,,,,,,,,,,,,,,,,,,,,,,,,,,,,,,,,,,,,,,,,
,,6138c06bd7d7f2b7720e7a27,2022-09-08_12h08.03.673,CGTgamblingSpanTasks,2022.2.1,Win32,59.95203837,,,,,,,,,,,,,,,,,,,,,,,,,,,,,,,,,,,,,,,,,,,,,,,n,3.967,,,,,,,,,,,,,,,,,,,,,,,,,,,,,,,,,,,,,,,,,,,,,,,,,,,,,,,,,,,,,,,,,,,,,,,,,,,,,,,,,,,,,,,
,,6138c06bd7d7f2b7720e7a27,2022-09-08_12h08.03.673,CGTgamblingSpanTasks,2022.2.1,Win32,59.95203837,,,,,,,,2.748,,,,,,,,,,,,,,1,v,1.252,22.72923833,1,3.748,1,,,,,,22.72923833,0,0.067170781,,,,,,,,,,,,,0,0,0,86,1,0.907226703,0,,,,,,,,,,,,,,,,,,,,,,,,,,,,,,,,,,,,,,,,,,,,,,,,,,,,,,,,,,,,,,,,,,,,,,,,,,,,,,,,
,,6138c06bd7d7f2b7720e7a27,2022-09-08_12h08.03.673,CGTgamblingSpanTasks,2022.2.1,Win32,59.95203837,,,,,,,,2.919,,,,,,,,,,,,,,2,n,1.081,0,1,3.919,1,,,,,,17.23907308,0,2.055848574,,,,,,,,,,,,,0,1,1,66,1,0.450504458,1,,,,,,,,,,,,,,,,,,,,,,,,,,,,,,,,,,,,,,,,,,,,,,,,,,,,,,,,,,,,,,,,,,,,,,,,,,,,,,,,
,,6138c06bd7d7f2b7720e7a27,2022-09-08_12h08.03.673,CGTgamblingSpanTasks,2022.2.1,Win32,59.95203837,,,,,,,,2.69,,,,,,,,,,,,,,2,v,1.31,7.646213173,0,4.19,1.5,,,,,,2.042350179,0,7.646213173,,,,,,,,,,,,,0,2,2,53,1,0.009522273,0,,,,,,,,,,,,,,,,,,,,,,,,,,,,,,,,,,,,,,,,,,,,,,,,,,,,,,,,,,,,,,,,,,,,,,,,,,,,,,,,
,,6138c06bd7d7f2b7720e7a27,2022-09-08_12h08.03.673,CGTgamblingSpanTasks,2022.2.1,Win32,59.95203837,,,,,,,,2.235,,,,,,,,,,,,,,1,n,1.765,6.091504705,0,3.735,1.5,,,,,,6.662965216,0,6.091504705,,,,,,,,,,,,,0,3,3,102,1,0.035087099,0,,,,,,,,,,,,,,,,,,,,,,,,,,,,,,,,,,,,,,,,,,,,,,,,,,,,,,,,,,,,,,,,,,,,,,,,,,,,,,,,
,,6138c06bd7d7f2b7720e7a27,2022-09-08_12h08.03.673,CGTgamblingSpanTasks,2022.2.1,Win32,59.95203837,,,,,,,,0.038,,,,,,,,,,,,,,1,v,3.962,0,1,1.538,1.5,,,,,,18.50662664,0,0.052546026,,,,,,,,,,,,,0,4,4,112,1,0.908444837,0,,,,,,,,,,,,,,,,,,,,,,,,,,,,,,,,,,,,,,,,,,,,,,,,,,,,,,,,,,,,,,,,,,,,,,,,,,,,,,,,
,,6138c06bd7d7f2b7720e7a27,2022-09-08_12h08.03.673,CGTgamblingSpanTasks,2022.2.1,Win32,59.95203837,,,,,,,,1.495,,,,,,,,,,,,,,1,v,2.505,25.0707644,1,2.495,1,,,,,,25.0707644,0,0.067651625,,,,,,,,,,,,,0,5,5,70,1,0.909952349,0,,,,,,,,,,,,,,,,,,,,,,,,,,,,,,,,,,,,,,,,,,,,,,,,,,,,,,,,,,,,,,,,,,,,,,,,,,,,,,,,
,,6138c06bd7d7f2b7720e7a27,2022-09-08_12h08.03.673,CGTgamblingSpanTasks,2022.2.1,Win32,59.95203837,,,,,,,,2.265,,,,,,,,,,,,,,1,v,1.735,0,1,3.765,1.5,,,,,,28.18900855,0,0.05384276,,,,,,,,,,,,,0,6,6,55,1,0.919081308,0,,,,,,,,,,,,,,,,,,,,,,,,,,,,,,,,,,,,,,,,,,,,,,,,,,,,,,,,,,,,,,,,,,,,,,,,,,,,,,,,
,,6138c06bd7d7f2b7720e7a27,2022-09-08_12h08.03.673,CGTgamblingSpanTasks,2022.2.1,Win32,59.95203837,,,,,,,,2.123,,,,,,,,,,,,,,2,v,1.877,10.3417501,0,3.623,1.5,,,,,,15.21435748,0,10.3417501,,,,,,,,,,,,,0,7,7,72,1,0.060969226,0,,,,,,,,,,,,,,,,,,,,,,,,,,,,,,,,,,,,,,,,,,,,,,,,,,,,,,,,,,,,,,,,,,,,,,,,,,,,,,,,
,,6138c06bd7d7f2b7720e7a27,2022-09-08_12h08.03.673,CGTgamblingSpanTasks,2022.2.1,Win32,59.95203837,,,,,,,,2.704,,,,,,,,,,,,,,1,v,1.296,0,1,3.704,1,,,,,,13.4287264,0,1.317368801,,,,,,,,,,,,,0,8,8,100,1,0.502953125,1,,,,,,,,,,,,,,,,,,,,,,,,,,,,,,,,,,,,,,,,,,,,,,,,,,,,,,,,,,,,,,,,,,,,,,,,,,,,,,,,
,,6138c06bd7d7f2b7720e7a27,2022-09-08_12h08.03.673,CGTgamblingSpanTasks,2022.2.1,Win32,59.95203837,,,,,,,,2.665,,,,,,,,,,,,,,2,v,1.335,4.462262453,0,4.165,1.5,,,,,,0.192759042,0,4.462262453,,,,,,,,,,,,,0,9,9,52,1,0.003553223,0,,,,,,,,,,,,,,,,,,,,,,,,,,,,,,,,,,,,,,,,,,,,,,,,,,,,,,,,,,,,,,,,,,,,,,,,,,,,,,,,
,,6138c06bd7d7f2b7720e7a27,2022-09-08_12h08.03.673,CGTgamblingSpanTasks,2022.2.1,Win32,59.95203837,,,,,,,,2.744,,,,,,,,,,,,,,1,v,1.256,28.94627214,1,4.244,1.5,,,,,,28.94627214,0,2.701896413,,,,,,,,,,,,,0,10,10,111,1,0.515860759,1,,,,,,,,,,,,,,,,,,,,,,,,,,,,,,,,,,,,,,,,,,,,,,,,,,,,,,,,,,,,,,,,,,,,,,,,,,,,,,,,
,,6138c06bd7d7f2b7720e7a27,2022-09-08_12h08.03.673,CGTgamblingSpanTasks,2022.2.1,Win32,59.95203837,,,,,,,,2.967,,,,,,,,,,,,,,1,v,1.033,0,1,3.967,1,,,,,,28.9323758,0,2.893007023,,,,,,,,,,,,,0,11,11,11,1,0.497943321,1,,,,,,,,,,,,,,,,,,,,,,,,,,,,,,,,,,,,,,,,,,,,,,,,,,,,,,,,,,,,,,,,,,,,,,,,,,,,,,,,
,,6138c06bd7d7f2b7720e7a27,2022-09-08_12h08.03.673,CGTgamblingSpanTasks,2022.2.1,Win32,59.95203837,,,,,,,,2.874,,,,,,,,,,,,,,1,v,1.126,27.57491653,1,3.874,1,,,,,,27.57491653,0,2.99133314,,,,,,,,,,,,,0,12,12,10,1,0.47625893,1,,,,,,,,,,,,,,,,,,,,,,,,,,,,,,,,,,,,,,,,,,,,,,,,,,,,,,,,,,,,,,,,,,,,,,,,,,,,,,,,
,,6138c06bd7d7f2b7720e7a27,2022-09-08_12h08.03.673,CGTgamblingSpanTasks,2022.2.1,Win32,59.95203837,,,,,,,,2.939,,,,,,,,,,,,,,1,v,1.061,21.39646914,1,4.439,1.5,,,,,,21.39646914,0,0.072474078,,,,,,,,,,,,,0,13,13,3,1,0.902848133,0,,,,,,,,,,,,,,,,,,,,,,,,,,,,,,,,,,,,,,,,,,,,,,,,,,,,,,,,,,,,,,,,,,,,,,,,,,,,,,,,
,,6138c06bd7d7f2b7720e7a27,2022-09-08_12h08.03.673,CGTgamblingSpanTasks,2022.2.1,Win32,59.95203837,,,,,,,,2.013,,,,,,,,,,,,,,1,v,1.987,0,1,3.513,1.5,,,,,,27.94544945,0,2.32030209,,,,,,,,,,,,,0,14,14,115,1,0.545390564,1,,,,,,,,,,,,,,,,,,,,,,,,,,,,,,,,,,,,,,,,,,,,,,,,,,,,,,,,,,,,,,,,,,,,,,,,,,,,,,,,
,,6138c06bd7d7f2b7720e7a27,2022-09-08_12h08.03.673,CGTgamblingSpanTasks,2022.2.1,Win32,59.95203837,,,,,,,,2.941,,,,,,,,,,,,,,2,n,1.059,0,1,3.941,1,,,,,,27.60724521,0,0.088432325,,,,,,,,,,,,,0,15,15,17,1,0.904684186,0,,,,,,,,,,,,,,,,,,,,,,,,,,,,,,,,,,,,,,,,,,,,,,,,,,,,,,,,,,,,,,,,,,,,,,,,,,,,,,,,
,,6138c06bd7d7f2b7720e7a27,2022-09-08_12h08.03.673,CGTgamblingSpanTasks,2022.2.1,Win32,59.95203837,,,,,,,,0.955,,,,,,,,,,,,,,1,n,3.045,11.6744431,0,2.455,1.5,,,,,,10.43004651,0,11.6744431,,,,,,,,,,,,,0,16,16,15,1,0.026176489,0,,,,,,,,,,,,,,,,,,,,,,,,,,,,,,,,,,,,,,,,,,,,,,,,,,,,,,,,,,,,,,,,,,,,,,,,,,,,,,,,
,,6138c06bd7d7f2b7720e7a27,2022-09-08_12h08.03.673,CGTgamblingSpanTasks,2022.2.1,Win32,59.95203837,,,,,,,,2.332,,,,,,,,,,,,,,2,n,1.668,0,1,3.832,1.5,,,,,,29.77342428,0,2.838865588,,,,,,,,,,,,,0,17,17,57,1,0.510363415,1,,,,,,,,,,,,,,,,,,,,,,,,,,,,,,,,,,,,,,,,,,,,,,,,,,,,,,,,,,,,,,,,,,,,,,,,,,,,,,,,
,,6138c06bd7d7f2b7720e7a27,2022-09-08_12h08.03.673,CGTgamblingSpanTasks,2022.2.1,Win32,59.95203837,,,,,,,,2.871,,,,,,,,,,,,,,2,n,1.129,20.31034258,1,3.871,1,,,,,,20.31034258,0,1.870404296,,,,,,,,,,,,,0,18,18,85,1,0.519325853,1,,,,,,,,,,,,,,,,,,,,,,,,,,,,,,,,,,,,,,,,,,,,,,,,,,,,,,,,,,,,,,,,,,,,,,,,,,,,,,,,
,,6138c06bd7d7f2b7720e7a27,2022-09-08_12h08.03.673,CGTgamblingSpanTasks,2022.2.1,Win32,59.95203837,,,,,,,,2.871,,,,,,,,,,,,,,2,n,1.129,24.57684014,1,3.871,1,,,,,,24.57684014,0,0.061756244,,,,,,,,,,,,,0,19,19,68,1,0.911988903,0,,,,,,,,,,,,,,,,,,,,,,,,,,,,,,,,,,,,,,,,,,,,,,,,,,,,,,,,,,,,,,,,,,,,,,,,,,,,,,,,
,,6138c06bd7d7f2b7720e7a27,2022-09-08_12h08.03.673,CGTgamblingSpanTasks,2022.2.1,Win32,59.95203837,,,,,,,,3.09,,,,,,,,,,,,,,2,n,0.91,0,1,4.59,1.5,,,,,,26.4985979,0,0.051324376,,,,,,,,,,,,,0,20,20,106,1,0.918747215,0,,,,,,,,,,,,,,,,,,,,,,,,,,,,,,,,,,,,,,,,,,,,,,,,,,,,,,,,,,,,,,,,,,,,,,,,,,,,,,,,
,,6138c06bd7d7f2b7720e7a27,2022-09-08_12h08.03.673,CGTgamblingSpanTasks,2022.2.1,Win32,59.95203837,,,,,,,,3.002,,,,,,,,,,,,,,1,v,0.998,20.5726842,1,4.002,1,,,,,,20.5726842,0,0.073558523,,,,,,,,,,,,,0,21,21,26,1,0.901008565,0,,,,,,,,,,,,,,,,,,,,,,,,,,,,,,,,,,,,,,,,,,,,,,,,,,,,,,,,,,,,,,,,,,,,,,,,,,,,,,,,
,,6138c06bd7d7f2b7720e7a27,2022-09-08_12h08.03.673,CGTgamblingSpanTasks,2022.2.1,Win32,59.95203837,,,,,,,,2.02,,,,,,,,,,,,,,2,n,1.98,0,1,3.02,1,,,,,,14.20587264,0,11.93550497,,,,,,,,,,,,,0,22,22,21,1,0.041340301,0,,,,,,,,,,,,,,,,,,,,,,,,,,,,,,,,,,,,,,,,,,,,,,,,,,,,,,,,,,,,,,,,,,,,,,,,,,,,,,,,
,,6138c06bd7d7f2b7720e7a27,2022-09-08_12h08.03.673,CGTgamblingSpanTasks,2022.2.1,Win32,59.95203837,,,,,,,,2.621,,,,,,,,,,,,,,2,n,1.379,25.26994993,1,4.121,1.5,,,,,,25.26994993,0,2.78925142,,,,,,,,,,,,,0,23,23,108,1,0.471582922,1,,,,,,,,,,,,,,,,,,,,,,,,,,,,,,,,,,,,,,,,,,,,,,,,,,,,,,,,,,,,,,,,,,,,,,,,,,,,,,,,
,,6138c06bd7d7f2b7720e7a27,2022-09-08_12h08.03.673,CGTgamblingSpanTasks,2022.2.1,Win32,59.95203837,,,,,,,,2.699,,,,,,,,,,,,,,1,v,1.301,14.3363647,1,4.199,1.5,,,,,,14.3363647,0,1.396635362,,,,,,,,,,,,,0,24,24,78,1,0.504775474,1,,,,,,,,,,,,,,,,,,,,,,,,,,,,,,,,,,,,,,,,,,,,,,,,,,,,,,,,,,,,,,,,,,,,,,,,,,,,,,,,
,,6138c06bd7d7f2b7720e7a27,2022-09-08_12h08.03.673,CGTgamblingSpanTasks,2022.2.1,Win32,59.95203837,,,,,,,,2.687,,,,,,,,,,,,,,2,n,1.313,27.77179191,1,3.687,1,,,,,,27.77179191,0,0.074524436,,,,,,,,,,,,,0,25,25,99,1,0.910114387,0,,,,,,,,,,,,,,,,,,,,,,,,,,,,,,,,,,,,,,,,,,,,,,,,,,,,,,,,,,,,,,,,,,,,,,,,,,,,,,,,
,,6138c06bd7d7f2b7720e7a27,2022-09-08_12h08.03.673,CGTgamblingSpanTasks,2022.2.1,Win32,59.95203837,,,,,,,,2.251,,,,,,,,,,,,,,1,n,1.749,0.941456753,0,3.251,1,,,,,,11.16819157,0,0.941456753,,,,,,,,,,,,,0,26,26,45,1,0.54163803,1,,,,,,,,,,,,,,,,,,,,,,,,,,,,,,,,,,,,,,,,,,,,,,,,,,,,,,,,,,,,,,,,,,,,,,,,,,,,,,,,
,,6138c06bd7d7f2b7720e7a27,2022-09-08_12h08.03.673,CGTgamblingSpanTasks,2022.2.1,Win32,59.95203837,,,,,,,,2.858,,,,,,,,,,,,,,2,n,1.142,21.48443242,1,3.858,1,,,,,,21.48443242,0,2.229247341,,,,,,,,,,,,,0,27,27,63,1,0.488155912,1,,,,,,,,,,,,,,,,,,,,,,,,,,,,,,,,,,,,,,,,,,,,,,,,,,,,,,,,,,,,,,,,,,,,,,,,,,,,,,,,
,,6138c06bd7d7f2b7720e7a27,2022-09-08_12h08.03.673,CGTgamblingSpanTasks,2022.2.1,Win32,59.95203837,,,,,,,,2.966,,,,,,,,,,,,,,1,v,1.034,13.96521039,1,3.966,1,,,,,,13.96521039,0,1.591282699,,,,,,,,,,,,,0,28,28,49,1,0.462956344,1,,,,,,,,,,,,,,,,,,,,,,,,,,,,,,,,,,,,,,,,,,,,,,,,,,,,,,,,,,,,,,,,,,,,,,,,,,,,,,,,
,,6138c06bd7d7f2b7720e7a27,2022-09-08_12h08.03.673,CGTgamblingSpanTasks,2022.2.1,Win32,59.95203837,,,,,,,,2.415,,,,,,,,,,,,,,1,v,1.585,27.37527992,1,3.915,1.5,,,,,,27.37527992,0,2.860319095,,,,,,,,,,,,,0,29,29,39,1,0.486304156,1,,,,,,,,,,,,,,,,,,,,,,,,,,,,,,,,,,,,,,,,,,,,,,,,,,,,,,,,,,,,,,,,,,,,,,,,,,,,,,,,
,,6138c06bd7d7f2b7720e7a27,2022-09-08_12h08.03.673,CGTgamblingSpanTasks,2022.2.1,Win32,59.95203837,,,,,,,,2.837,,,,,,,,,,,,,,1,v,1.163,28.9381277,1,3.837,1,,,,,,28.9381277,0,2.663622024,,,,,,,,,,,,,0,30,30,103,1,0.519453367,1,,,,,,,,,,,,,,,,,,,,,,,,,,,,,,,,,,,,,,,,,,,,,,,,,,,,,,,,,,,,,,,,,,,,,,,,,,,,,,,,
,,6138c06bd7d7f2b7720e7a27,2022-09-08_12h08.03.673,CGTgamblingSpanTasks,2022.2.1,Win32,59.95203837,,,,,,,,2.566,,,,,,,,,,,,,,1,n,1.434,8.42547829,0,3.566,1,,,,,,15.87668502,0,8.42547829,,,,,,,,,,,,,0,31,31,56,1,0.092099462,0,,,,,,,,,,,,,,,,,,,,,,,,,,,,,,,,,,,,,,,,,,,,,,,,,,,,,,,,,,,,,,,,,,,,,,,,,,,,,,,,
,,6138c06bd7d7f2b7720e7a27,2022-09-08_12h08.03.673,CGTgamblingSpanTasks,2022.2.1,Win32,59.95203837,,,,,,,,2.874,,,,,,,,,,,,,,1,n,1.126,11.19311486,0,3.874,1,,,,,,8.17598802,0,11.19311486,,,,,,,,,,,,,0,32,32,110,1,0.021568003,0,,,,,,,,,,,,,,,,,,,,,,,,,,,,,,,,,,,,,,,,,,,,,,,,,,,,,,,,,,,,,,,,,,,,,,,,,,,,,,,,
,,6138c06bd7d7f2b7720e7a27,2022-09-08_12h08.03.673,CGTgamblingSpanTasks,2022.2.1,Win32,59.95203837,,,,,,,,2.65,,,,,,,,,,,,,,2,n,1.35,0,1,3.65,1,,,,,,22.25959835,0,0.065383587,,,,,,,,,,,,,0,33,33,97,1,0.907413875,0,,,,,,,,,,,,,,,,,,,,,,,,,,,,,,,,,,,,,,,,,,,,,,,,,,,,,,,,,,,,,,,,,,,,,,,,,,,,,,,,
,,6138c06bd7d7f2b7720e7a27,2022-09-08_12h08.03.673,CGTgamblingSpanTasks,2022.2.1,Win32,59.95203837,,,,,,,,2.918,,,,,,,,,,,,,,1,v,1.082,0,1,4.418,1.5,,,,,,18.51345298,0,1.932334278,,,,,,,,,,,,,0,34,34,31,1,0.48658696,1,,,,,,,,,,,,,,,,,,,,,,,,,,,,,,,,,,,,,,,,,,,,,,,,,,,,,,,,,,,,,,,,,,,,,,,,,,,,,,,,
,,6138c06bd7d7f2b7720e7a27,2022-09-08_12h08.03.673,CGTgamblingSpanTasks,2022.2.1,Win32,59.95203837,,,,,,,,2.215,,,,,,,,,,,,,,2,n,1.785,21.17800335,1,3.215,1,,,,,,21.17800335,0,0.059830985,,,,,,,,,,,,,0,35,35,67,1,0.908594974,0,,,,,,,,,,,,,,,,,,,,,,,,,,,,,,,,,,,,,,,,,,,,,,,,,,,,,,,,,,,,,,,,,,,,,,,,,,,,,,,,
,,6138c06bd7d7f2b7720e7a27,2022-09-08_12h08.03.673,CGTgamblingSpanTasks,2022.2.1,Win32,59.95203837,,,,,,,,2.661,,,,,,,,,,,,,,1,n,1.339,11.35147481,0,4.161,1.5,,,,,,17.67865084,0,11.35147481,,,,,,,,,,,,,0,36,36,91,1,0.067304606,0,,,,,,,,,,,,,,,,,,,,,,,,,,,,,,,,,,,,,,,,,,,,,,,,,,,,,,,,,,,,,,,,,,,,,,,,,,,,,,,,
,,6138c06bd7d7f2b7720e7a27,2022-09-08_12h08.03.673,CGTgamblingSpanTasks,2022.2.1,Win32,59.95203837,,,,,,,,2.804,,,,,,,,,,,,,,2,n,1.196,28.14876717,1,3.804,1,,,,,,28.14876717,0,3.117906378,,,,,,,,,,,,,0,37,37,76,1,0.470636736,1,,,,,,,,,,,,,,,,,,,,,,,,,,,,,,,,,,,,,,,,,,,,,,,,,,,,,,,,,,,,,,,,,,,,,,,,,,,,,,,,
,,6138c06bd7d7f2b7720e7a27,2022-09-08_12h08.03.673,CGTgamblingSpanTasks,2022.2.1,Win32,59.95203837,,,,,,,,2.569,,,,,,,,,,,,,,2,v,1.431,8.830252162,0,3.569,1,,,,,,15.73000491,0,8.830252162,,,,,,,,,,,,,0,38,38,95,1,0.084193143,0,,,,,,,,,,,,,,,,,,,,,,,,,,,,,,,,,,,,,,,,,,,,,,,,,,,,,,,,,,,,,,,,,,,,,,,,,,,,,,,,
,,6138c06bd7d7f2b7720e7a27,2022-09-08_12h08.03.673,CGTgamblingSpanTasks,2022.2.1,Win32,59.95203837,,,,,,,,3.025,,,,,,,,,,,,,,2,n,0.975,17.4320197,1,4.025,1,,,,,,17.4320197,0,1.448620949,,,,,,,,,,,,,0,39,39,30,1,0.545178213,1,,,,,,,,,,,,,,,,,,,,,,,,,,,,,,,,,,,,,,,,,,,,,,,,,,,,,,,,,,,,,,,,,,,,,,,,,,,,,,,,
,,6138c06bd7d7f2b7720e7a27,2022-09-08_12h08.03.673,CGTgamblingSpanTasks,2022.2.1,Win32,59.95203837,,,,,,,,2.785,,,,,,,,,,,,,,1,v,1.215,22.62475578,1,4.285,1.5,,,,,,22.62475578,0,2.397643354,,,,,,,,,,,,,0,40,40,93,1,0.482527609,1,,,,,,,,,,,,,,,,,,,,,,,,,,,,,,,,,,,,,,,,,,,,,,,,,,,,,,,,,,,,,,,,,,,,,,,,,,,,,,,,
,,6138c06bd7d7f2b7720e7a27,2022-09-08_12h08.03.673,CGTgamblingSpanTasks,2022.2.1,Win32,59.95203837,,,,,,,,2.596,,,,,,,,,,,,,,2,n,1.404,25.65316415,1,3.596,1,,,,,,25.65316415,0,0.079652925,,,,,,,,,,,,,0,41,41,109,1,0.90568168,0,,,,,,,,,,,,,,,,,,,,,,,,,,,,,,,,,,,,,,,,,,,,,,,,,,,,,,,,,,,,,,,,,,,,,,,,,,,,,,,,
,,6138c06bd7d7f2b7720e7a27,2022-09-08_12h08.03.673,CGTgamblingSpanTasks,2022.2.1,Win32,59.95203837,,,,,,,,2.549,,,,,,,,,,,,,,1,v,1.451,22.87092517,1,4.049,1.5,,,,,,22.87092517,0,0.059276504,,,,,,,,,,,,,0,42,42,27,1,0.911114935,0,,,,,,,,,,,,,,,,,,,,,,,,,,,,,,,,,,,,,,,,,,,,,,,,,,,,,,,,,,,,,,,,,,,,,,,,,,,,,,,,
,,6138c06bd7d7f2b7720e7a27,2022-09-08_12h08.03.673,CGTgamblingSpanTasks,2022.2.1,Win32,59.95203837,,,,,,,,2.137,,,,,,,,,,,,,,1,n,1.863,4.904872644,0,3.137,1,,,,,,4.698775357,0,4.904872644,,,,,,,,,,,,,0,43,43,75,1,0.028064484,0,,,,,,,,,,,,,,,,,,,,,,,,,,,,,,,,,,,,,,,,,,,,,,,,,,,,,,,,,,,,,,,,,,,,,,,,,,,,,,,,
,,6138c06bd7d7f2b7720e7a27,2022-09-08_12h08.03.673,CGTgamblingSpanTasks,2022.2.1,Win32,59.95203837,,,,,,,,1.011,,,,,,,,,,,,,,1,v,2.989,19.3050342,1,2.511,1.5,,,,,,19.3050342,0,2.030232342,,,,,,,,,,,,,0,44,44,73,1,0.484573227,1,,,,,,,,,,,,,,,,,,,,,,,,,,,,,,,,,,,,,,,,,,,,,,,,,,,,,,,,,,,,,,,,,,,,,,,,,,,,,,,,
,,6138c06bd7d7f2b7720e7a27,2022-09-08_12h08.03.673,CGTgamblingSpanTasks,2022.2.1,Win32,59.95203837,,,,,,,,2.952,,,,,,,,,,,,,,1,n,1.048,7.50753835,0,3.952,1,,,,,,2.231316635,0,7.50753835,,,,,,,,,,,,,0,45,45,29,1,0.010273427,0,,,,,,,,,,,,,,,,,,,,,,,,,,,,,,,,,,,,,,,,,,,,,,,,,,,,,,,,,,,,,,,,,,,,,,,,,,,,,,,,
,,6138c06bd7d7f2b7720e7a27,2022-09-08_12h08.03.673,CGTgamblingSpanTasks,2022.2.1,Win32,59.95203837,,,,,,,,2.849,,,,,,,,,,,,,,1,v,1.151,24.479109,1,4.349,1.5,,,,,,24.479109,0,0.089582697,,,,,,,,,,,,,0,46,46,89,1,0.900200232,0,,,,,,,,,,,,,,,,,,,,,,,,,,,,,,,,,,,,,,,,,,,,,,,,,,,,,,,,,,,,,,,,,,,,,,,,,,,,,,,,
,,6138c06bd7d7f2b7720e7a27,2022-09-08_12h08.03.673,CGTgamblingSpanTasks,2022.2.1,Win32,59.95203837,,,,,,,,2.293,,,,,,,,,,,,,,2,v,1.707,9.936178001,0,3.793,1.5,,,,,,19.58698544,0,9.936178001,,,,,,,,,,,,,0,47,47,77,1,0.098812204,0,,,,,,,,,,,,,,,,,,,,,,,,,,,,,,,,,,,,,,,,,,,,,,,,,,,,,,,,,,,,,,,,,,,,,,,,,,,,,,,,
,,6138c06bd7d7f2b7720e7a27,2022-09-08_12h08.03.673,CGTgamblingSpanTasks,2022.2.1,Win32,59.95203837,,,,,,,,2.95,,,,,,,,,,,,,,1,v,1.05,23.0613391,1,4.45,1.5,,,,,,23.0613391,0,2.387726776,,,,,,,,,,,,,0,48,48,69,1,0.488727763,1,,,,,,,,,,,,,,,,,,,,,,,,,,,,,,,,,,,,,,,,,,,,,,,,,,,,,,,,,,,,,,,,,,,,,,,,,,,,,,,,
,,6138c06bd7d7f2b7720e7a27,2022-09-08_12h08.03.673,CGTgamblingSpanTasks,2022.2.1,Win32,59.95203837,,,,,,,,2.761,,,,,,,,,,,,,,2,n,1.239,27.88092897,1,4.261,1.5,,,,,,27.88092897,0,2.771762788,,,,,,,,,,,,,0,49,49,117,1,0.499466648,1,,,,,,,,,,,,,,,,,,,,,,,,,,,,,,,,,,,,,,,,,,,,,,,,,,,,,,,,,,,,,,,,,,,,,,,,,,,,,,,,
,,6138c06bd7d7f2b7720e7a27,2022-09-08_12h08.03.673,CGTgamblingSpanTasks,2022.2.1,Win32,59.95203837,,,,,,,,2.232,,,,,,,,,,,,,,1,n,1.768,11.39288827,0,3.732,1.5,,,,,,20.97851654,0,11.39288827,,,,,,,,,,,,,0,50,50,2,1,0.088791079,0,,,,,,,,,,,,,,,,,,,,,,,,,,,,,,,,,,,,,,,,,,,,,,,,,,,,,,,,,,,,,,,,,,,,,,,,,,,,,,,,
,,6138c06bd7d7f2b7720e7a27,2022-09-08_12h08.03.673,CGTgamblingSpanTasks,2022.2.1,Win32,59.95203837,,,,,,,,3.001,,,,,,,,,,,,,,1,v,0.999,19.36415485,1,4.501,1.5,,,,,,19.36415485,0,1.966229494,,,,,,,,,,,,,0,51,51,96,1,0.493893111,1,,,,,,,,,,,,,,,,,,,,,,,,,,,,,,,,,,,,,,,,,,,,,,,,,,,,,,,,,,,,,,,,,,,,,,,,,,,,,,,,
,,6138c06bd7d7f2b7720e7a27,2022-09-08_12h08.03.673,CGTgamblingSpanTasks,2022.2.1,Win32,59.95203837,,,,,,,,3.137,,,,,,,,,,,,,,2,n,0.863,18.16238569,1,4.137,1,,,,,,18.16238569,0,1.540604093,,,,,,,,,,,,,0,52,52,34,1,0.540092491,1,,,,,,,,,,,,,,,,,,,,,,,,,,,,,,,,,,,,,,,,,,,,,,,,,,,,,,,,,,,,,,,,,,,,,,,,,,,,,,,,
,,6138c06bd7d7f2b7720e7a27,2022-09-08_12h08.03.673,CGTgamblingSpanTasks,2022.2.1,Win32,59.95203837,,,,,,,,2.607,,,,,,,,,,,,,,1,v,1.393,17.5608285,1,3.607,1,,,,,,17.5608285,0,1.825111303,,,,,,,,,,,,,0,53,53,104,1,0.487721116,1,,,,,,,,,,,,,,,,,,,,,,,,,,,,,,,,,,,,,,,,,,,,,,,,,,,,,,,,,,,,,,,,,,,,,,,,,,,,,,,,
,,6138c06bd7d7f2b7720e7a27,2022-09-08_12h08.03.673,CGTgamblingSpanTasks,2022.2.1,Win32,59.95203837,,,,,,,,2.647,,,,,,,,,,,,,,1,v,1.353,0,1,3.647,1,,,,,,17.30137174,0,1.716380842,,,,,,,,,,,,,0,54,54,20,1,0.500020285,1,,,,,,,,,,,,,,,,,,,,,,,,,,,,,,,,,,,,,,,,,,,,,,,,,,,,,,,,,,,,,,,,,,,,,,,,,,,,,,,,
,,6138c06bd7d7f2b7720e7a27,2022-09-08_12h08.03.673,CGTgamblingSpanTasks,2022.2.1,Win32,59.95203837,,,,,,,,2.441,,,,,,,,,,,,,,2,n,1.559,22.86604061,1,3.941,1.5,,,,,,22.86604061,0,2.293289792,,,,,,,,,,,,,0,55,55,51,1,0.49715382,1,,,,,,,,,,,,,,,,,,,,,,,,,,,,,,,,,,,,,,,,,,,,,,,,,,,,,,,,,,,,,,,,,,,,,,,,,,,,,,,,
,,6138c06bd7d7f2b7720e7a27,2022-09-08_12h08.03.673,CGTgamblingSpanTasks,2022.2.1,Win32,59.95203837,,,,,,,,2.687,,,,,,,,,,,,,,1,n,1.313,8.579385201,0,4.187,1.5,,,,,,14.11762686,0,8.579385201,,,,,,,,,,,,,0,56,56,60,1,0.073886959,0,,,,,,,,,,,,,,,,,,,,,,,,,,,,,,,,,,,,,,,,,,,,,,,,,,,,,,,,,,,,,,,,,,,,,,,,,,,,,,,,
,,6138c06bd7d7f2b7720e7a27,2022-09-08_12h08.03.673,CGTgamblingSpanTasks,2022.2.1,Win32,59.95203837,,,,,,,,2.279,,,,,,,,,,,,,,1,n,1.721,10.31611309,0,3.779,1.5,,,,,,19.30622782,0,10.31611309,,,,,,,,,,,,,0,57,57,1,1,0.091105656,0,,,,,,,,,,,,,,,,,,,,,,,,,,,,,,,,,,,,,,,,,,,,,,,,,,,,,,,,,,,,,,,,,,,,,,,,,,,,,,,,
,,6138c06bd7d7f2b7720e7a27,2022-09-08_12h08.03.673,CGTgamblingSpanTasks,2022.2.1,Win32,59.95203837,,,,,,,,2.635,,,,,,,,,,,,,,2,n,1.365,0,1,4.135,1.5,,,,,,17.92584289,0,1.878232496,,,,,,,,,,,,,0,58,58,5,1,0.485559263,1,,,,,,,,,,,,,,,,,,,,,,,,,,,,,,,,,,,,,,,,,,,,,,,,,,,,,,,,,,,,,,,,,,,,,,,,,,,,,,,,
,,6138c06bd7d7f2b7720e7a27,2022-09-08_12h08.03.673,CGTgamblingSpanTasks,2022.2.1,Win32,59.95203837,,,,,,,,2.706,,,,,,,,,,,,,,2,v,1.294,6.833409611,0,4.206,1.5,,,,,,6.325091157,0,6.833409611,,,,,,,,,,,,,0,59,59,58,1,0.027113638,0,,,,,,,,,,,,,,,,,,,,,,,,,,,,,,,,,,,,,,,,,,,,,,,,,,,,,,,,,,,,,,,,,,,,,,,,,,,,,,,,
,,6138c06bd7d7f2b7720e7a27,2022-09-08_12h08.03.673,CGTgamblingSpanTasks,2022.2.1,Win32,59.95203837,,,,,,,,2.781,,,,,,,,,,,,,,2,v,1.219,7.850775577,0,3.781,1,,,,,,4.622707531,0,7.850775577,,,,,,,,,,,,,0,60,60,6,1,0.017737407,0,,,,,,,,,,,,,,,,,,,,,,,,,,,,,,,,,,,,,,,,,,,,,,,,,,,,,,,,,,,,,,,,,,,,,,,,,,,,,,,,
,,6138c06bd7d7f2b7720e7a27,2022-09-08_12h08.03.673,CGTgamblingSpanTasks,2022.2.1,Win32,59.95203837,,,,,,,,2.647,,,,,,,,,,,,,,2,n,1.353,0,1,4.147,1.5,,,,,,21.03408097,0,2.208275162,,,,,,,,,,,,,0,61,61,0,1,0.485031246,1,,,,,,,,,,,,,,,,,,,,,,,,,,,,,,,,,,,,,,,,,,,,,,,,,,,,,,,,,,,,,,,,,,,,,,,,,,,,,,,,
,,6138c06bd7d7f2b7720e7a27,2022-09-08_12h08.03.673,CGTgamblingSpanTasks,2022.2.1,Win32,59.95203837,,,,,,,,2.262,,,,,,,,,,,,,,1,v,1.738,28.68598705,1,3.762,1.5,,,,,,28.68598705,0,0.050674956,,,,,,,,,,,,,0,62,62,62,1,0.920905497,0,,,,,,,,,,,,,,,,,,,,,,,,,,,,,,,,,,,,,,,,,,,,,,,,,,,,,,,,,,,,,,,,,,,,,,,,,,,,,,,,
,,6138c06bd7d7f2b7720e7a27,2022-09-08_12h08.03.673,CGTgamblingSpanTasks,2022.2.1,Win32,59.95203837,,,,,,,,2.655,,,,,,,,,,,,,,2,n,1.345,27.2532142,1,4.155,1.5,,,,,,27.2532142,0,0.08089327,,,,,,,,,,,,,0,63,63,119,1,0.907091845,0,,,,,,,,,,,,,,,,,,,,,,,,,,,,,,,,,,,,,,,,,,,,,,,,,,,,,,,,,,,,,,,,,,,,,,,,,,,,,,,,
,,6138c06bd7d7f2b7720e7a27,2022-09-08_12h08.03.673,CGTgamblingSpanTasks,2022.2.1,Win32,59.95203837,,,,,,,,2.851,,,,,,,,,,,,,,1,v,1.149,11.08143071,1,3.851,1,,,,,,11.08143071,0,1.207538756,,,,,,,,,,,,,0,64,64,84,1,0.475047453,1,,,,,,,,,,,,,,,,,,,,,,,,,,,,,,,,,,,,,,,,,,,,,,,,,,,,,,,,,,,,,,,,,,,,,,,,,,,,,,,,
,,6138c06bd7d7f2b7720e7a27,2022-09-08_12h08.03.673,CGTgamblingSpanTasks,2022.2.1,Win32,59.95203837,,,,,,,,0,,,,,,,,,,,,,,2,,,,,1,1,,,,,,25.54604005,0,0.088845411,,,,,,,,,,,,,0,65,65,79,1,0.901957831,0,,,,,,,,,,,,,,,,,,,,,,,,,,,,,,,,,,,,,,,,,,,,,,,,,,,,,,,,,,,,,,,,,,,,,,,,,,,,,,,,
,,6138c06bd7d7f2b7720e7a27,2022-09-08_12h08.03.673,CGTgamblingSpanTasks,2022.2.1,Win32,59.95203837,,,,,,,,2.884,,,,,,,,,,,,,,1,v,1.116,0,1,4.384,1.5,,,,,,8.670591867,0,1.025847652,,,,,,,,,,,,,0,66,66,18,1,0.452680459,1,,,,,,,,,,,,,,,,,,,,,,,,,,,,,,,,,,,,,,,,,,,,,,,,,,,,,,,,,,,,,,,,,,,,,,,,,,,,,,,,
,,6138c06bd7d7f2b7720e7a27,2022-09-08_12h08.03.673,CGTgamblingSpanTasks,2022.2.1,Win32,59.95203837,,,,,,,,2.639,,,,,,,,,,,,,,1,v,1.361,21.7711579,1,3.639,1,,,,,,21.7711579,0,2.502728921,,,,,,,,,,,,,0,67,67,101,1,0.460552621,1,,,,,,,,,,,,,,,,,,,,,,,,,,,,,,,,,,,,,,,,,,,,,,,,,,,,,,,,,,,,,,,,,,,,,,,,,,,,,,,,
,,6138c06bd7d7f2b7720e7a27,2022-09-08_12h08.03.673,CGTgamblingSpanTasks,2022.2.1,Win32,59.95203837,,,,,,,,2.821,,,,,,,,,,,,,,1,v,1.179,15.43649625,1,4.321,1.5,,,,,,15.43649625,0,1.65459324,,,,,,,,,,,,,0,68,68,33,1,0.479480163,1,,,,,,,,,,,,,,,,,,,,,,,,,,,,,,,,,,,,,,,,,,,,,,,,,,,,,,,,,,,,,,,,,,,,,,,,,,,,,,,,
,,6138c06bd7d7f2b7720e7a27,2022-09-08_12h08.03.673,CGTgamblingSpanTasks,2022.2.1,Win32,59.95203837,,,,,,,,2.856,,,,,,,,,,,,,,2,n,1.144,0,1,3.856,1,,,,,,21.16780451,0,2.469465385,,,,,,,,,,,,,0,69,69,32,1,0.456531699,1,,,,,,,,,,,,,,,,,,,,,,,,,,,,,,,,,,,,,,,,,,,,,,,,,,,,,,,,,,,,,,,,,,,,,,,,,,,,,,,,
,,6138c06bd7d7f2b7720e7a27,2022-09-08_12h08.03.673,CGTgamblingSpanTasks,2022.2.1,Win32,59.95203837,,,,,,,,2.78,,,,,,,,,,,,,,1,n,1.22,11.61882862,0,4.28,1.5,,,,,,4.022743614,0,11.61882862,,,,,,,,,,,,,0,70,70,38,1,0.011499376,0,,,,,,,,,,,,,,,,,,,,,,,,,,,,,,,,,,,,,,,,,,,,,,,,,,,,,,,,,,,,,,,,,,,,,,,,,,,,,,,,
,,6138c06bd7d7f2b7720e7a27,2022-09-08_12h08.03.673,CGTgamblingSpanTasks,2022.2.1,Win32,59.95203837,,,,,,,,2.699,,,,,,,,,,,,,,2,n,1.301,21.46599803,1,3.699,1,,,,,,21.46599803,0,0.059789256,,,,,,,,,,,,,0,71,71,8,1,0.909019081,0,,,,,,,,,,,,,,,,,,,,,,,,,,,,,,,,,,,,,,,,,,,,,,,,,,,,,,,,,,,,,,,,,,,,,,,,,,,,,,,,
,,6138c06bd7d7f2b7720e7a27,2022-09-08_12h08.03.673,CGTgamblingSpanTasks,2022.2.1,Win32,59.95203837,,,,,,,,2.974,,,,,,,,,,,,,,2,n,1.026,29.76099779,1,4.474,1.5,,,,,,29.76099779,0,0.095763086,,,,,,,,,,,,,0,72,72,35,1,0.904537896,0,,,,,,,,,,,,,,,,,,,,,,,,,,,,,,,,,,,,,,,,,,,,,,,,,,,,,,,,,,,,,,,,,,,,,,,,,,,,,,,,
,,6138c06bd7d7f2b7720e7a27,2022-09-08_12h08.03.673,CGTgamblingSpanTasks,2022.2.1,Win32,59.95203837,,,,,,,,2.874,,,,,,,,,,,,,,1,v,1.126,26.11188619,1,3.874,1,,,,,,26.11188619,0,0.081942421,,,,,,,,,,,,,0,73,73,105,1,0.905343856,0,,,,,,,,,,,,,,,,,,,,,,,,,,,,,,,,,,,,,,,,,,,,,,,,,,,,,,,,,,,,,,,,,,,,,,,,,,,,,,,,
,,6138c06bd7d7f2b7720e7a27,2022-09-08_12h08.03.673,CGTgamblingSpanTasks,2022.2.1,Win32,59.95203837,,,,,,,,2.74,,,,,,,,,,,,,,1,v,1.26,26.16821818,1,3.74,1,,,,,,26.16821818,0,0.093528069,,,,,,,,,,,,,0,74,74,42,1,0.901022427,0,,,,,,,,,,,,,,,,,,,,,,,,,,,,,,,,,,,,,,,,,,,,,,,,,,,,,,,,,,,,,,,,,,,,,,,,,,,,,,,,
,,6138c06bd7d7f2b7720e7a27,2022-09-08_12h08.03.673,CGTgamblingSpanTasks,2022.2.1,Win32,59.95203837,,,,,,,,2.918,,,,,,,,,,,,,,1,n,1.082,11.41737518,0,3.918,1,,,,,,18.11029021,0,11.41737518,,,,,,,,,,,,,0,75,75,48,1,0.069445859,0,,,,,,,,,,,,,,,,,,,,,,,,,,,,,,,,,,,,,,,,,,,,,,,,,,,,,,,,,,,,,,,,,,,,,,,,,,,,,,,,
,,6138c06bd7d7f2b7720e7a27,2022-09-08_12h08.03.673,CGTgamblingSpanTasks,2022.2.1,Win32,59.95203837,,,,,,,,2.618,,,,,,,,,,,,,,1,n,1.382,4.251676631,0,4.118,1.5,,,,,,3.395192929,0,4.251676631,,,,,,,,,,,,,0,76,76,7,1,0.023467153,0,,,,,,,,,,,,,,,,,,,,,,,,,,,,,,,,,,,,,,,,,,,,,,,,,,,,,,,,,,,,,,,,,,,,,,,,,,,,,,,,
,,6138c06bd7d7f2b7720e7a27,2022-09-08_12h08.03.673,CGTgamblingSpanTasks,2022.2.1,Win32,59.95203837,,,,,,,,2.871,,,,,,,,,,,,,,1,v,1.129,27.4965044,1,3.871,1,,,,,,27.4965044,0,2.461467004,,,,,,,,,,,,,0,77,77,36,1,0.526550878,1,,,,,,,,,,,,,,,,,,,,,,,,,,,,,,,,,,,,,,,,,,,,,,,,,,,,,,,,,,,,,,,,,,,,,,,,,,,,,,,,
,,6138c06bd7d7f2b7720e7a27,2022-09-08_12h08.03.673,CGTgamblingSpanTasks,2022.2.1,Win32,59.95203837,,,,,,,,2.97,,,,,,,,,,,,,,2,v,1.03,5.683635938,0,3.97,1,,,,,,4.941039335,0,5.683635938,,,,,,,,,,,,,0,78,78,9,1,0.025481984,0,,,,,,,,,,,,,,,,,,,,,,,,,,,,,,,,,,,,,,,,,,,,,,,,,,,,,,,,,,,,,,,,,,,,,,,,,,,,,,,,
,,6138c06bd7d7f2b7720e7a27,2022-09-08_12h08.03.673,CGTgamblingSpanTasks,2022.2.1,Win32,59.95203837,,,,,,,,2.954,,,,,,,,,,,,,,1,v,1.046,0,1,4.454,1.5,,,,,,25.21882231,0,0.085746782,,,,,,,,,,,,,0,79,79,64,1,0.90272076,0,,,,,,,,,,,,,,,,,,,,,,,,,,,,,,,,,,,,,,,,,,,,,,,,,,,,,,,,,,,,,,,,,,,,,,,,,,,,,,,,
,,6138c06bd7d7f2b7720e7a27,2022-09-08_12h08.03.673,CGTgamblingSpanTasks,2022.2.1,Win32,59.95203837,,,,,,,,2.985,,,,,,,,,,,,,,1,v,1.015,21.2188881,1,4.485,1.5,,,,,,21.2188881,0,2.067660742,,,,,,,,,,,,,0,80,80,107,1,0.50470775,1,,,,,,,,,,,,,,,,,,,,,,,,,,,,,,,,,,,,,,,,,,,,,,,,,,,,,,,,,,,,,,,,,,,,,,,,,,,,,,,,
,,6138c06bd7d7f2b7720e7a27,2022-09-08_12h08.03.673,CGTgamblingSpanTasks,2022.2.1,Win32,59.95203837,,,,,,,,2.87,,,,,,,,,,,,,,1,v,1.13,0,1,3.87,1,,,,,,9.012590634,0,1.002188111,,,,,,,,,,,,,0,81,81,12,1,0.46958041,1,,,,,,,,,,,,,,,,,,,,,,,,,,,,,,,,,,,,,,,,,,,,,,,,,,,,,,,,,,,,,,,,,,,,,,,,,,,,,,,,
,,6138c06bd7d7f2b7720e7a27,2022-09-08_12h08.03.673,CGTgamblingSpanTasks,2022.2.1,Win32,59.95203837,,,,,,,,3.123,,,,,,,,,,,,,,2,n,0.877,18.20422443,1,4.623,1.5,,,,,,18.20422443,0,1.635040165,,,,,,,,,,,,,0,82,82,82,1,0.525708991,1,,,,,,,,,,,,,,,,,,,,,,,,,,,,,,,,,,,,,,,,,,,,,,,,,,,,,,,,,,,,,,,,,,,,,,,,,,,,,,,,
,,6138c06bd7d7f2b7720e7a27,2022-09-08_12h08.03.673,CGTgamblingSpanTasks,2022.2.1,Win32,59.95203837,,,,,,,,2.943,,,,,,,,,,,,,,1,v,1.057,0,1,3.943,1,,,,,,27.12325385,0,0.080932047,,,,,,,,,,,,,0,83,83,14,1,0.906929184,0,,,,,,,,,,,,,,,,,,,,,,,,,,,,,,,,,,,,,,,,,,,,,,,,,,,,,,,,,,,,,,,,,,,,,,,,,,,,,,,,
,,6138c06bd7d7f2b7720e7a27,2022-09-08_12h08.03.673,CGTgamblingSpanTasks,2022.2.1,Win32,59.95203837,,,,,,,,2.963,,,,,,,,,,,,,,2,n,1.037,7.534278541,1,4.463,1.5,,,,,,7.534278541,0,0.747140182,,,,,,,,,,,,,0,84,84,37,1,0.50012466,1,,,,,,,,,,,,,,,,,,,,,,,,,,,,,,,,,,,,,,,,,,,,,,,,,,,,,,,,,,,,,,,,,,,,,,,,,,,,,,,,
,,6138c06bd7d7f2b7720e7a27,2022-09-08_12h08.03.673,CGTgamblingSpanTasks,2022.2.1,Win32,59.95203837,,,,,,,,2.428,,,,,,,,,,,,,,1,v,1.572,24.66627941,1,3.428,1,,,,,,24.66627941,0,2.765426402,,,,,,,,,,,,,0,85,85,24,1,0.467360588,1,,,,,,,,,,,,,,,,,,,,,,,,,,,,,,,,,,,,,,,,,,,,,,,,,,,,,,,,,,,,,,,,,,,,,,,,,,,,,,,,
,,6138c06bd7d7f2b7720e7a27,2022-09-08_12h08.03.673,CGTgamblingSpanTasks,2022.2.1,Win32,59.95203837,,,,,,,,3.101,,,,,,,,,,,,,,2,n,0.899,26.36733703,1,4.601,1.5,,,,,,26.36733703,0,2.201057101,,,,,,,,,,,,,0,86,86,90,1,0.544064207,1,,,,,,,,,,,,,,,,,,,,,,,,,,,,,,,,,,,,,,,,,,,,,,,,,,,,,,,,,,,,,,,,,,,,,,,,,,,,,,,,
,,6138c06bd7d7f2b7720e7a27,2022-09-08_12h08.03.673,CGTgamblingSpanTasks,2022.2.1,Win32,59.95203837,,,,,,,,2.615,,,,,,,,,,,,,,1,n,1.385,8.653432553,0,3.615,1,,,,,,15.13999312,0,8.653432553,,,,,,,,,,,,,0,87,87,54,1,0.081767484,0,,,,,,,,,,,,,,,,,,,,,,,,,,,,,,,,,,,,,,,,,,,,,,,,,,,,,,,,,,,,,,,,,,,,,,,,,,,,,,,,
,,6138c06bd7d7f2b7720e7a27,2022-09-08_12h08.03.673,CGTgamblingSpanTasks,2022.2.1,Win32,59.95203837,,,,,,,,2.743,,,,,,,,,,,,,,2,v,1.257,8.512335864,0,3.743,1,,,,,,10.05300841,0,8.512335864,,,,,,,,,,,,,0,88,88,74,1,0.040729225,0,,,,,,,,,,,,,,,,,,,,,,,,,,,,,,,,,,,,,,,,,,,,,,,,,,,,,,,,,,,,,,,,,,,,,,,,,,,,,,,,
,,6138c06bd7d7f2b7720e7a27,2022-09-08_12h08.03.673,CGTgamblingSpanTasks,2022.2.1,Win32,59.95203837,,,,,,,,2.984,,,,,,,,,,,,,,2,n,1.016,19.68065872,1,3.984,1,,,,,,19.68065872,0,1.843597162,,,,,,,,,,,,,0,89,89,80,1,0.514941058,1,,,,,,,,,,,,,,,,,,,,,,,,,,,,,,,,,,,,,,,,,,,,,,,,,,,,,,,,,,,,,,,,,,,,,,,,,,,,,,,,
,,6138c06bd7d7f2b7720e7a27,2022-09-08_12h08.03.673,CGTgamblingSpanTasks,2022.2.1,Win32,59.95203837,,,,,,,,2.414,,,,,,,,,,,,,,1,v,1.586,0,1,3.914,1.5,,,,,,29.30724159,0,3.247012935,,,,,,,,,,,,,0,90,90,71,1,0.470571125,1,,,,,,,,,,,,,,,,,,,,,,,,,,,,,,,,,,,,,,,,,,,,,,,,,,,,,,,,,,,,,,,,,,,,,,,,,,,,,,,,
,,6138c06bd7d7f2b7720e7a27,2022-09-08_12h08.03.673,CGTgamblingSpanTasks,2022.2.1,Win32,59.95203837,,,,,,,,2.953,,,,,,,,,,,,,,2,n,1.047,0,1,3.953,1,,,,,,13.84410806,0,1.535873964,,,,,,,,,,,,,0,91,91,88,1,0.470209002,1,,,,,,,,,,,,,,,,,,,,,,,,,,,,,,,,,,,,,,,,,,,,,,,,,,,,,,,,,,,,,,,,,,,,,,,,,,,,,,,,
,,6138c06bd7d7f2b7720e7a27,2022-09-08_12h08.03.673,CGTgamblingSpanTasks,2022.2.1,Win32,59.95203837,,,,,,,,2.639,,,,,,,,,,,,,,2,n,1.361,0,1,3.639,1,,,,,,25.76582409,0,2.393193076,,,,,,,,,,,,,0,92,92,46,1,0.517129855,1,,,,,,,,,,,,,,,,,,,,,,,,,,,,,,,,,,,,,,,,,,,,,,,,,,,,,,,,,,,,,,,,,,,,,,,,,,,,,,,,
,,6138c06bd7d7f2b7720e7a27,2022-09-08_12h08.03.673,CGTgamblingSpanTasks,2022.2.1,Win32,59.95203837,,,,,,,,2.604,,,,,,,,,,,,,,2,n,1.396,0,1,4.104,1.5,,,,,,17.85020524,0,2.058701084,,,,,,,,,,,,,0,93,93,25,1,0.459662216,1,,,,,,,,,,,,,,,,,,,,,,,,,,,,,,,,,,,,,,,,,,,,,,,,,,,,,,,,,,,,,,,,,,,,,,,,,,,,,,,,
,,6138c06bd7d7f2b7720e7a27,2022-09-08_12h08.03.673,CGTgamblingSpanTasks,2022.2.1,Win32,59.95203837,,,,,,,,2.97,,,,,,,,,,,,,,2,n,1.03,27.53810185,1,4.47,1.5,,,,,,27.53810185,0,0.097022401,,,,,,,,,,,,,0,94,94,50,1,0.901515865,0,,,,,,,,,,,,,,,,,,,,,,,,,,,,,,,,,,,,,,,,,,,,,,,,,,,,,,,,,,,,,,,,,,,,,,,,,,,,,,,,
,,6138c06bd7d7f2b7720e7a27,2022-09-08_12h08.03.673,CGTgamblingSpanTasks,2022.2.1,Win32,59.95203837,,,,,,,,2.954,,,,,,,,,,,,,,2,n,1.046,0,1,4.454,1.5,,,,,,24.35708027,0,2.738695417,,,,,,,,,,,,,0,95,95,114,1,0.466573634,1,,,,,,,,,,,,,,,,,,,,,,,,,,,,,,,,,,,,,,,,,,,,,,,,,,,,,,,,,,,,,,,,,,,,,,,,,,,,,,,,
,,6138c06bd7d7f2b7720e7a27,2022-09-08_12h08.03.673,CGTgamblingSpanTasks,2022.2.1,Win32,59.95203837,,,,,,,,2.59,,,,,,,,,,,,,,1,v,1.41,0,1,3.59,1,,,,,,23.24777057,0,2.003482335,,,,,,,,,,,,,0,96,96,59,1,0.536135174,1,,,,,,,,,,,,,,,,,,,,,,,,,,,,,,,,,,,,,,,,,,,,,,,,,,,,,,,,,,,,,,,,,,,,,,,,,,,,,,,,
,,6138c06bd7d7f2b7720e7a27,2022-09-08_12h08.03.673,CGTgamblingSpanTasks,2022.2.1,Win32,59.95203837,,,,,,,,3.035,,,,,,,,,,,,,,2,n,0.965,29.75778644,1,4.535,1.5,,,,,,29.75778644,0,2.810531415,,,,,,,,,,,,,0,97,97,113,1,0.512824233,1,,,,,,,,,,,,,,,,,,,,,,,,,,,,,,,,,,,,,,,,,,,,,,,,,,,,,,,,,,,,,,,,,,,,,,,,,,,,,,,,
,,6138c06bd7d7f2b7720e7a27,2022-09-08_12h08.03.673,CGTgamblingSpanTasks,2022.2.1,Win32,59.95203837,,,,,,,,3.478,,,,,,,,,,,,,,2,v,0.522,2.257683666,0,4.978,1.5,,,,,,22.0050376,0,2.257683666,,,,,,,,,,,,,0,98,98,4,1,0.491147312,1,,,,,,,,,,,,,,,,,,,,,,,,,,,,,,,,,,,,,,,,,,,,,,,,,,,,,,,,,,,,,,,,,,,,,,,,,,,,,,,,
,,6138c06bd7d7f2b7720e7a27,2022-09-08_12h08.03.673,CGTgamblingSpanTasks,2022.2.1,Win32,59.95203837,,,,,,,,2.823,,,,,,,,,,,,,,2,v,1.177,10.41201161,0,3.823,1,,,,,,6.307062696,0,10.41201161,,,,,,,,,,,,,0,99,99,23,1,0.018187109,0,,,,,,,,,,,,,,,,,,,,,,,,,,,,,,,,,,,,,,,,,,,,,,,,,,,,,,,,,,,,,,,,,,,,,,,,,,,,,,,,
,,6138c06bd7d7f2b7720e7a27,2022-09-08_12h08.03.673,CGTgamblingSpanTasks,2022.2.1,Win32,59.95203837,,,,,,,,2.921,,,,,,,,,,,,,,2,n,1.079,28.33977875,1,4.421,1.5,,,,,,28.33977875,0,2.768313633,,,,,,,,,,,,,0,100,100,116,1,0.50406901,1,,,,,,,,,,,,,,,,,,,,,,,,,,,,,,,,,,,,,,,,,,,,,,,,,,,,,,,,,,,,,,,,,,,,,,,,,,,,,,,,
,,6138c06bd7d7f2b7720e7a27,2022-09-08_12h08.03.673,CGTgamblingSpanTasks,2022.2.1,Win32,59.95203837,,,,,,,,2.705,,,,,,,,,,,,,,1,n,1.295,10.68505773,0,4.205,1.5,,,,,,17.64114152,0,10.68505773,,,,,,,,,,,,,0,101,101,98,1,0.074299362,0,,,,,,,,,,,,,,,,,,,,,,,,,,,,,,,,,,,,,,,,,,,,,,,,,,,,,,,,,,,,,,,,,,,,,,,,,,,,,,,,
,,6138c06bd7d7f2b7720e7a27,2022-09-08_12h08.03.673,CGTgamblingSpanTasks,2022.2.1,Win32,59.95203837,,,,,,,,2.799,,,,,,,,,,,,,,1,v,1.201,27.38828234,1,3.799,1,,,,,,27.38828234,0,0.0639233,,,,,,,,,,,,,0,102,102,43,1,0.914010176,0,,,,,,,,,,,,,,,,,,,,,,,,,,,,,,,,,,,,,,,,,,,,,,,,,,,,,,,,,,,,,,,,,,,,,,,,,,,,,,,,
,,6138c06bd7d7f2b7720e7a27,2022-09-08_12h08.03.673,CGTgamblingSpanTasks,2022.2.1,Win32,59.95203837,,,,,,,,2.894,,,,,,,,,,,,,,1,n,1.106,11.42134125,0,3.894,1,,,,,,12.9904115,0,11.42134125,,,,,,,,,,,,,0,103,103,118,1,0.037876033,0,,,,,,,,,,,,,,,,,,,,,,,,,,,,,,,,,,,,,,,,,,,,,,,,,,,,,,,,,,,,,,,,,,,,,,,,,,,,,,,,
,,6138c06bd7d7f2b7720e7a27,2022-09-08_12h08.03.673,CGTgamblingSpanTasks,2022.2.1,Win32,59.95203837,,,,,,,,2.977,,,,,,,,,,,,,,2,n,1.023,23.59556381,1,3.977,1,,,,,,23.59556381,0,2.464662219,,,,,,,,,,,,,0,104,104,22,1,0.486383205,1,,,,,,,,,,,,,,,,,,,,,,,,,,,,,,,,,,,,,,,,,,,,,,,,,,,,,,,,,,,,,,,,,,,,,,,,,,,,,,,,
,,6138c06bd7d7f2b7720e7a27,2022-09-08_12h08.03.673,CGTgamblingSpanTasks,2022.2.1,Win32,59.95203837,,,,,,,,3.181,,,,,,,,,,,,,,2,n,0.819,0,1,4.681,1.5,,,,,,27.76752685,0,0.083968035,,,,,,,,,,,,,0,105,105,13,1,0.906513967,0,,,,,,,,,,,,,,,,,,,,,,,,,,,,,,,,,,,,,,,,,,,,,,,,,,,,,,,,,,,,,,,,,,,,,,,,,,,,,,,,
,,6138c06bd7d7f2b7720e7a27,2022-09-08_12h08.03.673,CGTgamblingSpanTasks,2022.2.1,Win32,59.95203837,,,,,,,,3.112,,,,,,,,,,,,,,1,v,0.888,0,1,4.112,1,,,,,,27.7711693,0,2.320849632,,,,,,,,,,,,,0,106,106,94,1,0.543786368,1,,,,,,,,,,,,,,,,,,,,,,,,,,,,,,,,,,,,,,,,,,,,,,,,,,,,,,,,,,,,,,,,,,,,,,,,,,,,,,,,
,,6138c06bd7d7f2b7720e7a27,2022-09-08_12h08.03.673,CGTgamblingSpanTasks,2022.2.1,Win32,59.95203837,,,,,,,,3.004,,,,,,,,,,,,,,1,n,0.996,5.526483034,0,4.004,1,,,,,,9.725876653,0,5.526483034,,,,,,,,,,,,,0,107,107,44,1,0.082550696,0,,,,,,,,,,,,,,,,,,,,,,,,,,,,,,,,,,,,,,,,,,,,,,,,,,,,,,,,,,,,,,,,,,,,,,,,,,,,,,,,
,,6138c06bd7d7f2b7720e7a27,2022-09-08_12h08.03.673,CGTgamblingSpanTasks,2022.2.1,Win32,59.95203837,,,,,,,,2.931,,,,,,,,,,,,,,1,v,1.069,0,1,3.931,1,,,,,,19.5450126,0,2.123581464,,,,,,,,,,,,,0,108,108,65,1,0.475836144,1,,,,,,,,,,,,,,,,,,,,,,,,,,,,,,,,,,,,,,,,,,,,,,,,,,,,,,,,,,,,,,,,,,,,,,,,,,,,,,,,
,,6138c06bd7d7f2b7720e7a27,2022-09-08_12h08.03.673,CGTgamblingSpanTasks,2022.2.1,Win32,59.95203837,,,,,,,,3.089,,,,,,,,,,,,,,1,v,0.911,0,1,4.089,1,,,,,,27.39221343,0,2.743407746,,,,,,,,,,,,,0,109,109,47,1,0.49752044,1,,,,,,,,,,,,,,,,,,,,,,,,,,,,,,,,,,,,,,,,,,,,,,,,,,,,,,,,,,,,,,,,,,,,,,,,,,,,,,,,
,,6138c06bd7d7f2b7720e7a27,2022-09-08_12h08.03.673,CGTgamblingSpanTasks,2022.2.1,Win32,59.95203837,,,,,,,,2.146,,,,,,,,,,,,,,2,v,1.854,6.781500919,0,3.646,1.5,,,,,,8.363821911,0,6.781500919,,,,,,,,,,,,,0,110,110,61,1,0.044227959,0,,,,,,,,,,,,,,,,,,,,,,,,,,,,,,,,,,,,,,,,,,,,,,,,,,,,,,,,,,,,,,,,,,,,,,,,,,,,,,,,
,,6138c06bd7d7f2b7720e7a27,2022-09-08_12h08.03.673,CGTgamblingSpanTasks,2022.2.1,Win32,59.95203837,,,,,,,,2.81,,,,,,,,,,,,,,1,v,1.19,0,1,3.81,1,,,,,,21.00799273,0,0.067969053,,,,,,,,,,,,,0,111,111,92,1,0.904360262,0,,,,,,,,,,,,,,,,,,,,,,,,,,,,,,,,,,,,,,,,,,,,,,,,,,,,,,,,,,,,,,,,,,,,,,,,,,,,,,,,
,,6138c06bd7d7f2b7720e7a27,2022-09-08_12h08.03.673,CGTgamblingSpanTasks,2022.2.1,Win32,59.95203837,,,,,,,,2.866,,,,,,,,,,,,,,1,v,1.134,28.13634754,1,3.866,1,,,,,,28.13634754,0,2.532806323,,,,,,,,,,,,,0,112,112,28,1,0.525136524,1,,,,,,,,,,,,,,,,,,,,,,,,,,,,,,,,,,,,,,,,,,,,,,,,,,,,,,,,,,,,,,,,,,,,,,,,,,,,,,,,
,,6138c06bd7d7f2b7720e7a27,2022-09-08_12h08.03.673,CGTgamblingSpanTasks,2022.2.1,Win32,59.95203837,,,,,,,,2.768,,,,,,,,,,,,,,1,n,1.232,3.877530383,0,4.268,1.5,,,,,,3.471484939,0,3.877530383,,,,,,,,,,,,,0,113,113,40,1,0.02623078,0,,,,,,,,,,,,,,,,,,,,,,,,,,,,,,,,,,,,,,,,,,,,,,,,,,,,,,,,,,,,,,,,,,,,,,,,,,,,,,,,
,,6138c06bd7d7f2b7720e7a27,2022-09-08_12h08.03.673,CGTgamblingSpanTasks,2022.2.1,Win32,59.95203837,,,,,,,,2.74,,,,,,,,,,,,,,2,n,1.26,0,1,4.24,1.5,,,,,,23.4214135,0,2.485985001,,,,,,,,,,,,,0,114,114,81,1,0.482105905,1,,,,,,,,,,,,,,,,,,,,,,,,,,,,,,,,,,,,,,,,,,,,,,,,,,,,,,,,,,,,,,,,,,,,,,,,,,,,,,,,
,,6138c06bd7d7f2b7720e7a27,2022-09-08_12h08.03.673,CGTgamblingSpanTasks,2022.2.1,Win32,59.95203837,,,,,,,,2.851,,,,,,,,,,,,,,1,v,1.149,24.8002852,1,4.351,1.5,,,,,,24.8002852,0,0.071848086,,,,,,,,,,,,,0,115,115,16,1,0.90783559,0,,,,,,,,,,,,,,,,,,,,,,,,,,,,,,,,,,,,,,,,,,,,,,,,,,,,,,,,,,,,,,,,,,,,,,,,,,,,,,,,
,,6138c06bd7d7f2b7720e7a27,2022-09-08_12h08.03.673,CGTgamblingSpanTasks,2022.2.1,Win32,59.95203837,,,,,,,,2.629,,,,,,,,,,,,,,2,n,1.371,0,1,4.129,1.5,,,,,,27.93093084,0,0.050207531,,,,,,,,,,,,,0,116,116,83,1,0.920505936,0,,,,,,,,,,,,,,,,,,,,,,,,,,,,,,,,,,,,,,,,,,,,,,,,,,,,,,,,,,,,,,,,,,,,,,,,,,,,,,,,
,,6138c06bd7d7f2b7720e7a27,2022-09-08_12h08.03.673,CGTgamblingSpanTasks,2022.2.1,Win32,59.95203837,,,,,,,,2.671,,,,,,,,,,,,,,1,v,1.329,8.217594828,1,3.671,1,,,,,,8.217594828,0,0.951019374,,,,,,,,,,,,,0,117,117,87,1,0.458722936,1,,,,,,,,,,,,,,,,,,,,,,,,,,,,,,,,,,,,,,,,,,,,,,,,,,,,,,,,,,,,,,,,,,,,,,,,,,,,,,,,
,,6138c06bd7d7f2b7720e7a27,2022-09-08_12h08.03.673,CGTgamblingSpanTasks,2022.2.1,Win32,59.95203837,,,,,,,,2.755,,,,,,,,,,,,,,1,v,1.245,0,1,4.255,1.5,,,,,,7.066129113,0,0.585581699,,,,,,,,,,,,,0,118,118,19,1,0.545860632,1,,,,,,,,,,,,,,,,,,,,,,,,,,,,,,,,,,,,,,,,,,,,,,,,,,,,,,,,,,,,,,,,,,,,,,,,,,,,,,,,
,,6138c06bd7d7f2b7720e7a27,2022-09-08_12h08.03.673,CGTgamblingSpanTasks,2022.2.1,Win32,59.95203837,,,,,,,,2.855,,,,,,,,,,,,,,2,n,1.145,25.56803059,1,4.355,1.5,,,,,,25.56803059,0,2.543951743,,,,,,,,,,,,,0,119,119,41,1,0.499247217,1,,,,,,,,,,,,,,,,,,,,,,,,,,,,,,,,,,,,,,,,,,,,,,,,,,,,,,,,,,,,,,,,,,,,,,,,,,,,,,,,
,,6138c06bd7d7f2b7720e7a27,2022-09-08_12h08.03.673,CGTgamblingSpanTasks,2022.2.1,Win32,59.95203837,,,,,,,,,,,,,,,,,,,,,,,,,,,,,,,,,,,,,,,,,,,,,,,,,,,,,,,,return,17.254,,,,,,,,,,,,,,,,,,,,,,,,,,,,,,,,,,,,,,,,,,,,,,,,,,,,,,,,,,,,,,,,,,,,,,,,,,,,,,
,,6138c06bd7d7f2b7720e7a27,2022-09-08_12h08.03.673,CGTgamblingSpanTasks,2022.2.1,Win32,59.95203837,,,,,,,,,,,,,,,,,,,,,,,,,,,,,,,,,,,,,,,,,,,,,,,,,,,,,,,,,,return,65.612,,,,,,,,,,,,,,,,,,,,,,,,,,,,,,,,,,,,,,,,,,,,,,,,,,,,,,,,,,,,,,,,,,,,,,,,,,,,
,,6138c06bd7d7f2b7720e7a27,2022-09-08_12h08.03.673,CGTgamblingSpanTasks,2022.2.1,Win32,59.95203837,,,,,,,,,,,,,,,,,,,,,,,,,,,,,,,,,,,,,,,,,,,,,,,,,,,,,,,,,,,,return,34.579,,,,,,,,,,,,,,,,,,,,,,,,,,,,,,,,,,,,,,,,,,,,,,,,,,,,,,,,,,,,,,,,,,,,,,,,,,
,,6138c06bd7d7f2b7720e7a27,2022-09-08_12h08.03.673,CGTgamblingSpanTasks,2022.2.1,Win32,59.95203837,,,,,,,,,,,,,,,,,,,,,,,,,,,,,,,,,,,,,,,,,,,,,,,,,,,,,,,,,,,,,,,0,0.084452975,-0.396353167,1,0,0,cont_buttonPractice,0,0,0,0,1,3,342,24,2,42,,,,,,,,,,,,,,,,,,,,,,,,,,,,,,,,,,,,,,,,,,,,,,,,,,,,,,,,
,,6138c06bd7d7f2b7720e7a27,2022-09-08_12h08.03.673,CGTgamblingSpanTasks,2022.2.1,Win32,59.95203837,,,,,,,,,,,,,,,,,,,,,,,,,,,,,,,,,,,,,,,,,,,,,,,,,,,,,,,,,,,,,,937,1,0.084452975,-0.411708253,1,0,0,cont_buttonPractice,0,1,1,1,1,3,937,73,2,37,,,,,,,,,,,,,,,,,,,,,,,,,,,,,,,,,,,,,,,,,,,,,,,,,,,,,,,,
,,6138c06bd7d7f2b7720e7a27,2022-09-08_12h08.03.673,CGTgamblingSpanTasks,2022.2.1,Win32,59.95203837,,,,,,,,,,,,,,,,,,,,,,,,,,,,,,,,,,,,,,,,,,,,,,,,,,,,,,,,,,,,,,,,,,,,,,,,,,,,,,,,return,45.624,,,,,,,,,,,,,,,,,,,,,,,,,,,,,,,,,,,,,,,,,,,,,,,,,,,,,,
,,6138c06bd7d7f2b7720e7a27,2022-09-08_12h08.03.673,CGTgamblingSpanTasks,2022.2.1,Win32,59.95203837,,,,,,,,,,,,,,,,,,,,,,,,,,,,,,,,,,,,,,,,,,,,,,,,,,,,,,,,,,,,,,,,,,,,,,,,,,,,,,,,,,"[7,9,5]",0,0,0,0,1,,,,,,,,,,,,,,,,,,,,,,,,,,,,,,,,,,,,,,,,,,,,,,,,
,,6138c06bd7d7f2b7720e7a27,2022-09-08_12h08.03.673,CGTgamblingSpanTasks,2022.2.1,Win32,59.95203837,,,,,,,,,,,,,,,,,,,,,,,,,,,,,,,,,,,,,,,,,,,,,,,,,,,,,,,,,,,,,,,,,,,,,,,,,,,,,,,,,,"[7,9,5]",1,0,1,0,1,,,,,,,,,,,,,,,,,,,,,,,,,,,,,,,,,,,,,,,,,,,,,,,,
,,6138c06bd7d7f2b7720e7a27,2022-09-08_12h08.03.673,CGTgamblingSpanTasks,2022.2.1,Win32,59.95203837,,,,,,,,,,,,,,,,,,,,,,,,,,,,,,,,,,,,,,,,,,,,,,,,,,,,,,,,,,,,,,,,,,,,,,,,,,,,,,,,,,"[7,9,5]",2,0,2,0,1,,,,,,,,,,,,,,,,,,,,,,,,,,,,,,,,,,,,,,,,,,,,,,,,
,,6138c06bd7d7f2b7720e7a27,2022-09-08_12h08.03.673,CGTgamblingSpanTasks,2022.2.1,Win32,59.95203837,,,,,,,,,,,,,,,,,,,,,,,,,,,,,,,,,,,,,,,,,,,,,,,,,,,,,,,,,,,,,,,1,,,,,,,,,,,,,,,,,,,,,,,,,795,0.055662188,-0.379078695,1,0,0,cont_button,0,0,0,0,1,1,,,,,,,,,,,,,,,,,,,,,,,,,,,,,,,,,,,
,,6138c06bd7d7f2b7720e7a27,2022-09-08_12h08.03.673,CGTgamblingSpanTasks,2022.2.1,Win32,59.95203837,,,,,,,,,,,,,,,,,,,,,,,,,,,,,,,,,,,,,,,,,,,,,,,,,,,,,,,,,,,,,,,,,,,,,,,,,,,,,,,,,,"[7,2,8,4]",0,0,0,0,1,,,,,,,,,,,,,,,,,,,,,,,,,,,,,,,,,,,,,,,,,,,,,,,,
,,6138c06bd7d7f2b7720e7a27,2022-09-08_12h08.03.673,CGTgamblingSpanTasks,2022.2.1,Win32,59.95203837,,,,,,,,,,,,,,,,,,,,,,,,,,,,,,,,,,,,,,,,,,,,,,,,,,,,,,,,,,,,,,,,,,,,,,,,,,,,,,,,,,"[7,2,8,4]",1,0,1,0,1,,,,,,,,,,,,,,,,,,,,,,,,,,,,,,,,,,,,,,,,,,,,,,,,
,,6138c06bd7d7f2b7720e7a27,2022-09-08_12h08.03.673,CGTgamblingSpanTasks,2022.2.1,Win32,59.95203837,,,,,,,,,,,,,,,,,,,,,,,,,,,,,,,,,,,,,,,,,,,,,,,,,,,,,,,,,,,,,,,,,,,,,,,,,,,,,,,,,,"[7,2,8,4]",2,0,2,0,1,,,,,,,,,,,,,,,,,,,,,,,,,,,,,,,,,,,,,,,,,,,,,,,,
,,6138c06bd7d7f2b7720e7a27,2022-09-08_12h08.03.673,CGTgamblingSpanTasks,2022.2.1,Win32,59.95203837,,,,,,,,,,,,,,,,,,,,,,,,,,,,,,,,,,,,,,,,,,,,,,,,,,,,,,,,,,,,,,,,,,,,,,,,,,,,,,,,,,"[7,2,8,4]",3,0,3,0,1,,,,,,,,,,,,,,,,,,,,,,,,,,,,,,,,,,,,,,,,,,,,,,,,
,,6138c06bd7d7f2b7720e7a27,2022-09-08_12h08.03.673,CGTgamblingSpanTasks,2022.2.1,Win32,59.95203837,,,,,,,,,,,,,,,,,,,,,,,,,,,,,,,,,,,,,,,,,,,,,,,,,,,,,,,,,,,,,,,1,,,,,,,,,,,,,,,,,,,,,,,,,7284,-0.011516315,-0.402111324,1,0,0,cont_button,0,1,1,1,1,2,,,,,,,,,,,,,,,,,,,,,,,,,,,,,,,,,,,
,,6138c06bd7d7f2b7720e7a27,2022-09-08_12h08.03.673,CGTgamblingSpanTasks,2022.2.1,Win32,59.95203837,,,,,,,,,,,,,,,,,,,,,,,,,,,,,,,,,,,,,,,,,,,,,,,,,,,,,,,,,,,,,,,,,,,,,,,,,,,,,,,,,,"[5,2,6,1,8]",0,0,0,0,1,,,,,,,,,,,,,,,,,,,,,,,,,,,,,,,,,,,,,,,,,,,,,,,,
,,6138c06bd7d7f2b7720e7a27,2022-09-08_12h08.03.673,CGTgamblingSpanTasks,2022.2.1,Win32,59.95203837,,,,,,,,,,,,,,,,,,,,,,,,,,,,,,,,,,,,,,,,,,,,,,,,,,,,,,,,,,,,,,,,,,,,,,,,,,,,,,,,,,"[5,2,6,1,8]",1,0,1,0,1,,,,,,,,,,,,,,,,,,,,,,,,,,,,,,,,,,,,,,,,,,,,,,,,
,,6138c06bd7d7f2b7720e7a27,2022-09-08_12h08.03.673,CGTgamblingSpanTasks,2022.2.1,Win32,59.95203837,,,,,,,,,,,,,,,,,,,,,,,,,,,,,,,,,,,,,,,,,,,,,,,,,,,,,,,,,,,,,,,,,,,,,,,,,,,,,,,,,,"[5,2,6,1,8]",2,0,2,0,1,,,,,,,,,,,,,,,,,,,,,,,,,,,,,,,,,,,,,,,,,,,,,,,,
,,6138c06bd7d7f2b7720e7a27,2022-09-08_12h08.03.673,CGTgamblingSpanTasks,2022.2.1,Win32,59.95203837,,,,,,,,,,,,,,,,,,,,,,,,,,,,,,,,,,,,,,,,,,,,,,,,,,,,,,,,,,,,,,,,,,,,,,,,,,,,,,,,,,"[5,2,6,1,8]",3,0,3,0,1,,,,,,,,,,,,,,,,,,,,,,,,,,,,,,,,,,,,,,,,,,,,,,,,
,,6138c06bd7d7f2b7720e7a27,2022-09-08_12h08.03.673,CGTgamblingSpanTasks,2022.2.1,Win32,59.95203837,,,,,,,,,,,,,,,,,,,,,,,,,,,,,,,,,,,,,,,,,,,,,,,,,,,,,,,,,,,,,,,,,,,,,,,,,,,,,,,,,,"[5,2,6,1,8]",4,0,4,0,1,,,,,,,,,,,,,,,,,,,,,,,,,,,,,,,,,,,,,,,,,,,,,,,,
,,6138c06bd7d7f2b7720e7a27,2022-09-08_12h08.03.673,CGTgamblingSpanTasks,2022.2.1,Win32,59.95203837,,,,,,,,,,,,,,,,,,,,,,,,,,,,,,,,,,,,,,,,,,,,,,,,,,,,,,,,,,,,,,,1,,,,,,,,,,,,,,,,,,,,,,,,,52618,0.113243762,-0.392514395,1,0,0,cont_button,0,2,2,2,1,3,,,,,,,,,,,,,,,,,,,,,,,,,,,,,,,,,,,
,,6138c06bd7d7f2b7720e7a27,2022-09-08_12h08.03.673,CGTgamblingSpanTasks,2022.2.1,Win32,59.95203837,,,,,,,,,,,,,,,,,,,,,,,,,,,,,,,,,,,,,,,,,,,,,,,,,,,,,,,,,,,,,,,,,,,,,,,,,,,,,,,,,,"[8,2,6,7,9,5]",0,0,0,0,1,,,,,,,,,,,,,,,,,,,,,,,,,,,,,,,,,,,,,,,,,,,,,,,,
,,6138c06bd7d7f2b7720e7a27,2022-09-08_12h08.03.673,CGTgamblingSpanTasks,2022.2.1,Win32,59.95203837,,,,,,,,,,,,,,,,,,,,,,,,,,,,,,,,,,,,,,,,,,,,,,,,,,,,,,,,,,,,,,,,,,,,,,,,,,,,,,,,,,"[8,2,6,7,9,5]",1,0,1,0,1,,,,,,,,,,,,,,,,,,,,,,,,,,,,,,,,,,,,,,,,,,,,,,,,
,,6138c06bd7d7f2b7720e7a27,2022-09-08_12h08.03.673,CGTgamblingSpanTasks,2022.2.1,Win32,59.95203837,,,,,,,,,,,,,,,,,,,,,,,,,,,,,,,,,,,,,,,,,,,,,,,,,,,,,,,,,,,,,,,,,,,,,,,,,,,,,,,,,,"[8,2,6,7,9,5]",2,0,2,0,1,,,,,,,,,,,,,,,,,,,,,,,,,,,,,,,,,,,,,,,,,,,,,,,,
,,6138c06bd7d7f2b7720e7a27,2022-09-08_12h08.03.673,CGTgamblingSpanTasks,2022.2.1,Win32,59.95203837,,,,,,,,,,,,,,,,,,,,,,,,,,,,,,,,,,,,,,,,,,,,,,,,,,,,,,,,,,,,,,,,,,,,,,,,,,,,,,,,,,"[8,2,6,7,9,5]",3,0,3,0,1,,,,,,,,,,,,,,,,,,,,,,,,,,,,,,,,,,,,,,,,,,,,,,,,
,,6138c06bd7d7f2b7720e7a27,2022-09-08_12h08.03.673,CGTgamblingSpanTasks,2022.2.1,Win32,59.95203837,,,,,,,,,,,,,,,,,,,,,,,,,,,,,,,,,,,,,,,,,,,,,,,,,,,,,,,,,,,,,,,,,,,,,,,,,,,,,,,,,,"[8,2,6,7,9,5]",4,0,4,0,1,,,,,,,,,,,,,,,,,,,,,,,,,,,,,,,,,,,,,,,,,,,,,,,,
,,6138c06bd7d7f2b7720e7a27,2022-09-08_12h08.03.673,CGTgamblingSpanTasks,2022.2.1,Win32,59.95203837,,,,,,,,,,,,,,,,,,,,,,,,,,,,,,,,,,,,,,,,,,,,,,,,,,,,,,,,,,,,,,,,,,,,,,,,,,,,,,,,,,"[8,2,6,7,9,5]",5,0,5,0,1,,,,,,,,,,,,,,,,,,,,,,,,,,,,,,,,,,,,,,,,,,,,,,,,
,,6138c06bd7d7f2b7720e7a27,2022-09-08_12h08.03.673,CGTgamblingSpanTasks,2022.2.1,Win32,59.95203837,,,,,,,,,,,,,,,,,,,,,,,,,,,,,,,,,,,,,,,,,,,,,,,,,,,,,,,,,,,,,,,1,,,,,,,,,,,,,,,,,,,,,,,,,826795,0.094049904,-0.405950096,1,0,0,cont_button,0,3,3,3,1,4,,,,,,,,,,,,,,,,,,,,,,,,,,,,,,,,,,,
,,6138c06bd7d7f2b7720e7a27,2022-09-08_12h08.03.673,CGTgamblingSpanTasks,2022.2.1,Win32,59.95203837,,,,,,,,,,,,,,,,,,,,,,,,,,,,,,,,,,,,,,,,,,,,,,,,,,,,,,,,,,,,,,,,,,,,,,,,,,,,,,,,,,"[5,3,1,4,9,6,2]",0,0,0,0,1,,,,,,,,,,,,,,,,,,,,,,,,,,,,,,,,,,,,,,,,,,,,,,,,
,,6138c06bd7d7f2b7720e7a27,2022-09-08_12h08.03.673,CGTgamblingSpanTasks,2022.2.1,Win32,59.95203837,,,,,,,,,,,,,,,,,,,,,,,,,,,,,,,,,,,,,,,,,,,,,,,,,,,,,,,,,,,,,,,,,,,,,,,,,,,,,,,,,,"[5,3,1,4,9,6,2]",1,0,1,0,1,,,,,,,,,,,,,,,,,,,,,,,,,,,,,,,,,,,,,,,,,,,,,,,,
,,6138c06bd7d7f2b7720e7a27,2022-09-08_12h08.03.673,CGTgamblingSpanTasks,2022.2.1,Win32,59.95203837,,,,,,,,,,,,,,,,,,,,,,,,,,,,,,,,,,,,,,,,,,,,,,,,,,,,,,,,,,,,,,,,,,,,,,,,,,,,,,,,,,"[5,3,1,4,9,6,2]",2,0,2,0,1,,,,,,,,,,,,,,,,,,,,,,,,,,,,,,,,,,,,,,,,,,,,,,,,
,,6138c06bd7d7f2b7720e7a27,2022-09-08_12h08.03.673,CGTgamblingSpanTasks,2022.2.1,Win32,59.95203837,,,,,,,,,,,,,,,,,,,,,,,,,,,,,,,,,,,,,,,,,,,,,,,,,,,,,,,,,,,,,,,,,,,,,,,,,,,,,,,,,,"[5,3,1,4,9,6,2]",3,0,3,0,1,,,,,,,,,,,,,,,,,,,,,,,,,,,,,,,,,,,,,,,,,,,,,,,,
,,6138c06bd7d7f2b7720e7a27,2022-09-08_12h08.03.673,CGTgamblingSpanTasks,2022.2.1,Win32,59.95203837,,,,,,,,,,,,,,,,,,,,,,,,,,,,,,,,,,,,,,,,,,,,,,,,,,,,,,,,,,,,,,,,,,,,,,,,,,,,,,,,,,"[5,3,1,4,9,6,2]",4,0,4,0,1,,,,,,,,,,,,,,,,,,,,,,,,,,,,,,,,,,,,,,,,,,,,,,,,
,,6138c06bd7d7f2b7720e7a27,2022-09-08_12h08.03.673,CGTgamblingSpanTasks,2022.2.1,Win32,59.95203837,,,,,,,,,,,,,,,,,,,,,,,,,,,,,,,,,,,,,,,,,,,,,,,,,,,,,,,,,,,,,,,,,,,,,,,,,,,,,,,,,,"[5,3,1,4,9,6,2]",5,0,5,0,1,,,,,,,,,,,,,,,,,,,,,,,,,,,,,,,,,,,,,,,,,,,,,,,,
,,6138c06bd7d7f2b7720e7a27,2022-09-08_12h08.03.673,CGTgamblingSpanTasks,2022.2.1,Win32,59.95203837,,,,,,,,,,,,,,,,,,,,,,,,,,,,,,,,,,,,,,,,,,,,,,,,,,,,,,,,,,,,,,,,,,,,,,,,,,,,,,,,,,"[5,3,1,4,9,6,2]",6,0,6,0,1,,,,,,,,,,,,,,,,,,,,,,,,,,,,,,,,,,,,,,,,,,,,,,,,
,,6138c06bd7d7f2b7720e7a27,2022-09-08_12h08.03.673,CGTgamblingSpanTasks,2022.2.1,Win32,59.95203837,,,,,,,,,,,,,,,,,,,,,,,,,,,,,,,,,,,,,,,,,,,,,,,,,,,,,,,,,,,,,,,1,,,,,,,,,,,,,,,,,,,,,,,,,5314962,0.065259117,-0.394433781,1,0,0,cont_button,0,4,4,4,1,5,,,,,,,,,,,,,,,,,,,,,,,,,,,,,,,,,,,
,,6138c06bd7d7f2b7720e7a27,2022-09-08_12h08.03.673,CGTgamblingSpanTasks,2022.2.1,Win32,59.95203837,,,,,,,,,,,,,,,,,,,,,,,,,,,,,,,,,,,,,,,,,,,,,,,,,,,,,,,,,,,,,,,,,,,,,,,,,,,,,,,,,,"[2,1,7,9,3,4,6,5]",0,0,0,0,1,,,,,,,,,,,,,,,,,,,,,,,,,,,,,,,,,,,,,,,,,,,,,,,,
,,6138c06bd7d7f2b7720e7a27,2022-09-08_12h08.03.673,CGTgamblingSpanTasks,2022.2.1,Win32,59.95203837,,,,,,,,,,,,,,,,,,,,,,,,,,,,,,,,,,,,,,,,,,,,,,,,,,,,,,,,,,,,,,,,,,,,,,,,,,,,,,,,,,"[2,1,7,9,3,4,6,5]",1,0,1,0,1,,,,,,,,,,,,,,,,,,,,,,,,,,,,,,,,,,,,,,,,,,,,,,,,
,,6138c06bd7d7f2b7720e7a27,2022-09-08_12h08.03.673,CGTgamblingSpanTasks,2022.2.1,Win32,59.95203837,,,,,,,,,,,,,,,,,,,,,,,,,,,,,,,,,,,,,,,,,,,,,,,,,,,,,,,,,,,,,,,,,,,,,,,,,,,,,,,,,,"[2,1,7,9,3,4,6,5]",2,0,2,0,1,,,,,,,,,,,,,,,,,,,,,,,,,,,,,,,,,,,,,,,,,,,,,,,,
,,6138c06bd7d7f2b7720e7a27,2022-09-08_12h08.03.673,CGTgamblingSpanTasks,2022.2.1,Win32,59.95203837,,,,,,,,,,,,,,,,,,,,,,,,,,,,,,,,,,,,,,,,,,,,,,,,,,,,,,,,,,,,,,,,,,,,,,,,,,,,,,,,,,"[2,1,7,9,3,4,6,5]",3,0,3,0,1,,,,,,,,,,,,,,,,,,,,,,,,,,,,,,,,,,,,,,,,,,,,,,,,
,,6138c06bd7d7f2b7720e7a27,2022-09-08_12h08.03.673,CGTgamblingSpanTasks,2022.2.1,Win32,59.95203837,,,,,,,,,,,,,,,,,,,,,,,,,,,,,,,,,,,,,,,,,,,,,,,,,,,,,,,,,,,,,,,,,,,,,,,,,,,,,,,,,,"[2,1,7,9,3,4,6,5]",4,0,4,0,1,,,,,,,,,,,,,,,,,,,,,,,,,,,,,,,,,,,,,,,,,,,,,,,,
,,6138c06bd7d7f2b7720e7a27,2022-09-08_12h08.03.673,CGTgamblingSpanTasks,2022.2.1,Win32,59.95203837,,,,,,,,,,,,,,,,,,,,,,,,,,,,,,,,,,,,,,,,,,,,,,,,,,,,,,,,,,,,,,,,,,,,,,,,,,,,,,,,,,"[2,1,7,9,3,4,6,5]",5,0,5,0,1,,,,,,,,,,,,,,,,,,,,,,,,,,,,,,,,,,,,,,,,,,,,,,,,
,,6138c06bd7d7f2b7720e7a27,2022-09-08_12h08.03.673,CGTgamblingSpanTasks,2022.2.1,Win32,59.95203837,,,,,,,,,,,,,,,,,,,,,,,,,,,,,,,,,,,,,,,,,,,,,,,,,,,,,,,,,,,,,,,,,,,,,,,,,,,,,,,,,,"[2,1,7,9,3,4,6,5]",6,0,6,0,1,,,,,,,,,,,,,,,,,,,,,,,,,,,,,,,,,,,,,,,,,,,,,,,,
,,6138c06bd7d7f2b7720e7a27,2022-09-08_12h08.03.673,CGTgamblingSpanTasks,2022.2.1,Win32,59.95203837,,,,,,,,,,,,,,,,,,,,,,,,,,,,,,,,,,,,,,,,,,,,,,,,,,,,,,,,,,,,,,,,,,,,,,,,,,,,,,,,,,"[2,1,7,9,3,4,6,5]",7,0,7,0,1,,,,,,,,,,,,,,,,,,,,,,,,,,,,,,,,,,,,,,,,,,,,,,,,
,,6138c06bd7d7f2b7720e7a27,2022-09-08_12h08.03.673,CGTgamblingSpanTasks,2022.2.1,Win32,59.95203837,,,,,,,,,,,,,,,,,,,,,,,,,,,,,,,,,,,,,,,,,,,,,,,,,,,,,,,,,,,,,,,1,,,,,,,,,,,,,,,,,,,,,,,,,21793465,0.119001919,-0.386756238,1,0,0,cont_button,0,5,5,5,1,6,,,,,,,,,,,,,,,,,,,,,,,,,,,,,,,,,,,
,,6138c06bd7d7f2b7720e7a27,2022-09-08_12h08.03.673,CGTgamblingSpanTasks,2022.2.1,Win32,59.95203837,,,,,,,,,,,,,,,,,,,,,,,,,,,,,,,,,,,,,,,,,,,,,,,,,,,,,,,,,,,,,,,,,,,,,,,,,,,,,,,,,,"[7,2,4,9,6,8,3,1,5]",0,0,0,0,1,,,,,,,,,,,,,,,,,,,,,,,,,,,,,,,,,,,,,,,,,,,,,,,,
,,6138c06bd7d7f2b7720e7a27,2022-09-08_12h08.03.673,CGTgamblingSpanTasks,2022.2.1,Win32,59.95203837,,,,,,,,,,,,,,,,,,,,,,,,,,,,,,,,,,,,,,,,,,,,,,,,,,,,,,,,,,,,,,,,,,,,,,,,,,,,,,,,,,"[7,2,4,9,6,8,3,1,5]",1,0,1,0,1,,,,,,,,,,,,,,,,,,,,,,,,,,,,,,,,,,,,,,,,,,,,,,,,
,,6138c06bd7d7f2b7720e7a27,2022-09-08_12h08.03.673,CGTgamblingSpanTasks,2022.2.1,Win32,59.95203837,,,,,,,,,,,,,,,,,,,,,,,,,,,,,,,,,,,,,,,,,,,,,,,,,,,,,,,,,,,,,,,,,,,,,,,,,,,,,,,,,,"[7,2,4,9,6,8,3,1,5]",2,0,2,0,1,,,,,,,,,,,,,,,,,,,,,,,,,,,,,,,,,,,,,,,,,,,,,,,,
,,6138c06bd7d7f2b7720e7a27,2022-09-08_12h08.03.673,CGTgamblingSpanTasks,2022.2.1,Win32,59.95203837,,,,,,,,,,,,,,,,,,,,,,,,,,,,,,,,,,,,,,,,,,,,,,,,,,,,,,,,,,,,,,,,,,,,,,,,,,,,,,,,,,"[7,2,4,9,6,8,3,1,5]",3,0,3,0,1,,,,,,,,,,,,,,,,,,,,,,,,,,,,,,,,,,,,,,,,,,,,,,,,
,,6138c06bd7d7f2b7720e7a27,2022-09-08_12h08.03.673,CGTgamblingSpanTasks,2022.2.1,Win32,59.95203837,,,,,,,,,,,,,,,,,,,,,,,,,,,,,,,,,,,,,,,,,,,,,,,,,,,,,,,,,,,,,,,,,,,,,,,,,,,,,,,,,,"[7,2,4,9,6,8,3,1,5]",4,0,4,0,1,,,,,,,,,,,,,,,,,,,,,,,,,,,,,,,,,,,,,,,,,,,,,,,,
,,6138c06bd7d7f2b7720e7a27,2022-09-08_12h08.03.673,CGTgamblingSpanTasks,2022.2.1,Win32,59.95203837,,,,,,,,,,,,,,,,,,,,,,,,,,,,,,,,,,,,,,,,,,,,,,,,,,,,,,,,,,,,,,,,,,,,,,,,,,,,,,,,,,"[7,2,4,9,6,8,3,1,5]",5,0,5,0,1,,,,,,,,,,,,,,,,,,,,,,,,,,,,,,,,,,,,,,,,,,,,,,,,
,,6138c06bd7d7f2b7720e7a27,2022-09-08_12h08.03.673,CGTgamblingSpanTasks,2022.2.1,Win32,59.95203837,,,,,,,,,,,,,,,,,,,,,,,,,,,,,,,,,,,,,,,,,,,,,,,,,,,,,,,,,,,,,,,,,,,,,,,,,,,,,,,,,,"[7,2,4,9,6,8,3,1,5]",6,0,6,0,1,,,,,,,,,,,,,,,,,,,,,,,,,,,,,,,,,,,,,,,,,,,,,,,,
,,6138c06bd7d7f2b7720e7a27,2022-09-08_12h08.03.673,CGTgamblingSpanTasks,2022.2.1,Win32,59.95203837,,,,,,,,,,,,,,,,,,,,,,,,,,,,,,,,,,,,,,,,,,,,,,,,,,,,,,,,,,,,,,,,,,,,,,,,,,,,,,,,,,"[7,2,4,9,6,8,3,1,5]",7,0,7,0,1,,,,,,,,,,,,,,,,,,,,,,,,,,,,,,,,,,,,,,,,,,,,,,,,
,,6138c06bd7d7f2b7720e7a27,2022-09-08_12h08.03.673,CGTgamblingSpanTasks,2022.2.1,Win32,59.95203837,,,,,,,,,,,,,,,,,,,,,,,,,,,,,,,,,,,,,,,,,,,,,,,,,,,,,,,,,,,,,,,,,,,,,,,,,,,,,,,,,,"[7,2,4,9,6,8,3,1,5]",8,0,8,0,1,,,,,,,,,,,,,,,,,,,,,,,,,,,,,,,,,,,,,,,,,,,,,,,,
,,6138c06bd7d7f2b7720e7a27,2022-09-08_12h08.03.673,CGTgamblingSpanTasks,2022.2.1,Win32,59.95203837,,,,,,,,,,,,,,,,,,,,,,,,,,,,,,,,,,,,,,,,,,,,,,,,,,,,,,,,,,,,,,,1,,,,,,,,,,,,,,,,,,,,,,,,,724968315,0.074856046,-0.400191939,1,0,0,cont_button,0,6,6,6,1,7,,,,,,,,,,,,,,,,,,,,,,,,,,,,,,,,,,,
,,6138c06bd7d7f2b7720e7a27,2022-09-08_12h08.03.673,CGTgamblingSpanTasks,2022.2.1,Win32,59.95203837,,,,,,,,,,,,,,,,,,,,,,,,,,,,,,,,,,,,,,,,,,,,,,,,,,,,,,,,,,,,,,,,,,,,,,,,,,,,,,,,,,"[6,4,2,1,8,7,5,3,9,9]",0,0,0,0,1,,,,,,,,,,,,,,,,,,,,,,,,,,,,,,,,,,,,,,,,,,,,,,,,
,,6138c06bd7d7f2b7720e7a27,2022-09-08_12h08.03.673,CGTgamblingSpanTasks,2022.2.1,Win32,59.95203837,,,,,,,,,,,,,,,,,,,,,,,,,,,,,,,,,,,,,,,,,,,,,,,,,,,,,,,,,,,,,,,,,,,,,,,,,,,,,,,,,,"[6,4,2,1,8,7,5,3,9,9]",1,0,1,0,1,,,,,,,,,,,,,,,,,,,,,,,,,,,,,,,,,,,,,,,,,,,,,,,,
,,6138c06bd7d7f2b7720e7a27,2022-09-08_12h08.03.673,CGTgamblingSpanTasks,2022.2.1,Win32,59.95203837,,,,,,,,,,,,,,,,,,,,,,,,,,,,,,,,,,,,,,,,,,,,,,,,,,,,,,,,,,,,,,,,,,,,,,,,,,,,,,,,,,"[6,4,2,1,8,7,5,3,9,9]",2,0,2,0,1,,,,,,,,,,,,,,,,,,,,,,,,,,,,,,,,,,,,,,,,,,,,,,,,
,,6138c06bd7d7f2b7720e7a27,2022-09-08_12h08.03.673,CGTgamblingSpanTasks,2022.2.1,Win32,59.95203837,,,,,,,,,,,,,,,,,,,,,,,,,,,,,,,,,,,,,,,,,,,,,,,,,,,,,,,,,,,,,,,,,,,,,,,,,,,,,,,,,,"[6,4,2,1,8,7,5,3,9,9]",3,0,3,0,1,,,,,,,,,,,,,,,,,,,,,,,,,,,,,,,,,,,,,,,,,,,,,,,,
,,6138c06bd7d7f2b7720e7a27,2022-09-08_12h08.03.673,CGTgamblingSpanTasks,2022.2.1,Win32,59.95203837,,,,,,,,,,,,,,,,,,,,,,,,,,,,,,,,,,,,,,,,,,,,,,,,,,,,,,,,,,,,,,,,,,,,,,,,,,,,,,,,,,"[6,4,2,1,8,7,5,3,9,9]",4,0,4,0,1,,,,,,,,,,,,,,,,,,,,,,,,,,,,,,,,,,,,,,,,,,,,,,,,
,,6138c06bd7d7f2b7720e7a27,2022-09-08_12h08.03.673,CGTgamblingSpanTasks,2022.2.1,Win32,59.95203837,,,,,,,,,,,,,,,,,,,,,,,,,,,,,,,,,,,,,,,,,,,,,,,,,,,,,,,,,,,,,,,,,,,,,,,,,,,,,,,,,,"[6,4,2,1,8,7,5,3,9,9]",5,0,5,0,1,,,,,,,,,,,,,,,,,,,,,,,,,,,,,,,,,,,,,,,,,,,,,,,,
,,6138c06bd7d7f2b7720e7a27,2022-09-08_12h08.03.673,CGTgamblingSpanTasks,2022.2.1,Win32,59.95203837,,,,,,,,,,,,,,,,,,,,,,,,,,,,,,,,,,,,,,,,,,,,,,,,,,,,,,,,,,,,,,,,,,,,,,,,,,,,,,,,,,"[6,4,2,1,8,7,5,3,9,9]",6,0,6,0,1,,,,,,,,,,,,,,,,,,,,,,,,,,,,,,,,,,,,,,,,,,,,,,,,
,,6138c06bd7d7f2b7720e7a27,2022-09-08_12h08.03.673,CGTgamblingSpanTasks,2022.2.1,Win32,59.95203837,,,,,,,,,,,,,,,,,,,,,,,,,,,,,,,,,,,,,,,,,,,,,,,,,,,,,,,,,,,,,,,,,,,,,,,,,,,,,,,,,,"[6,4,2,1,8,7,5,3,9,9]",7,0,7,0,1,,,,,,,,,,,,,,,,,,,,,,,,,,,,,,,,,,,,,,,,,,,,,,,,
,,6138c06bd7d7f2b7720e7a27,2022-09-08_12h08.03.673,CGTgamblingSpanTasks,2022.2.1,Win32,59.95203837,,,,,,,,,,,,,,,,,,,,,,,,,,,,,,,,,,,,,,,,,,,,,,,,,,,,,,,,,,,,,,,,,,,,,,,,,,,,,,,,,,"[6,4,2,1,8,7,5,3,9,9]",8,0,8,0,1,,,,,,,,,,,,,,,,,,,,,,,,,,,,,,,,,,,,,,,,,,,,,,,,
,,6138c06bd7d7f2b7720e7a27,2022-09-08_12h08.03.673,CGTgamblingSpanTasks,2022.2.1,Win32,59.95203837,,,,,,,,,,,,,,,,,,,,,,,,,,,,,,,,,,,,,,,,,,,,,,,,,,,,,,,,,,,,,,,,,,,,,,,,,,,,,,,,,,"[6,4,2,1,8,7,5,3,9,9]",9,0,9,0,1,,,,,,,,,,,,,,,,,,,,,,,,,,,,,,,,,,,,,,,,,,,,,,,,
,,6138c06bd7d7f2b7720e7a27,2022-09-08_12h08.03.673,CGTgamblingSpanTasks,2022.2.1,Win32,59.95203837,,,,,,,,,,,,,,,,,,,,,,,,,,,,,,,,,,,,,,,,,,,,,,,,,,,,,,,,,,,,,,,1,,,,,,,,,,,,,,,,,,,,,,,,,6421875399,0.003838772,-0.402111324,1,0,0,cont_button,0,7,7,7,1,8,,,,,,,,,,,,,,,,,,,,,,,,,,,,,,,,,,,
,,6138c06bd7d7f2b7720e7a27,2022-09-08_12h08.03.673,CGTgamblingSpanTasks,2022.2.1,Win32,59.95203837,,,,,,,,,,,,,,,,,,,,,,,,,,,,,,,,,,,,,,,,,,,,,,,,,,,,,,,,,,,,,,,,,,,,,,,,,,,,,,,,,,"[9,3,5,7,6,4,2,8,1,1,9]",0,0,0,0,1,,,,,,,,,,,,,,,,,,,,,,,,,,,,,,,,,,,,,,,,,,,,,,,,
,,6138c06bd7d7f2b7720e7a27,2022-09-08_12h08.03.673,CGTgamblingSpanTasks,2022.2.1,Win32,59.95203837,,,,,,,,,,,,,,,,,,,,,,,,,,,,,,,,,,,,,,,,,,,,,,,,,,,,,,,,,,,,,,,,,,,,,,,,,,,,,,,,,,"[9,3,5,7,6,4,2,8,1,1,9]",1,0,1,0,1,,,,,,,,,,,,,,,,,,,,,,,,,,,,,,,,,,,,,,,,,,,,,,,,
,,6138c06bd7d7f2b7720e7a27,2022-09-08_12h08.03.673,CGTgamblingSpanTasks,2022.2.1,Win32,59.95203837,,,,,,,,,,,,,,,,,,,,,,,,,,,,,,,,,,,,,,,,,,,,,,,,,,,,,,,,,,,,,,,,,,,,,,,,,,,,,,,,,,"[9,3,5,7,6,4,2,8,1,1,9]",2,0,2,0,1,,,,,,,,,,,,,,,,,,,,,,,,,,,,,,,,,,,,,,,,,,,,,,,,
,,6138c06bd7d7f2b7720e7a27,2022-09-08_12h08.03.673,CGTgamblingSpanTasks,2022.2.1,Win32,59.95203837,,,,,,,,,,,,,,,,,,,,,,,,,,,,,,,,,,,,,,,,,,,,,,,,,,,,,,,,,,,,,,,,,,,,,,,,,,,,,,,,,,"[9,3,5,7,6,4,2,8,1,1,9]",3,0,3,0,1,,,,,,,,,,,,,,,,,,,,,,,,,,,,,,,,,,,,,,,,,,,,,,,,
,,6138c06bd7d7f2b7720e7a27,2022-09-08_12h08.03.673,CGTgamblingSpanTasks,2022.2.1,Win32,59.95203837,,,,,,,,,,,,,,,,,,,,,,,,,,,,,,,,,,,,,,,,,,,,,,,,,,,,,,,,,,,,,,,,,,,,,,,,,,,,,,,,,,"[9,3,5,7,6,4,2,8,1,1,9]",4,0,4,0,1,,,,,,,,,,,,,,,,,,,,,,,,,,,,,,,,,,,,,,,,,,,,,,,,
,,6138c06bd7d7f2b7720e7a27,2022-09-08_12h08.03.673,CGTgamblingSpanTasks,2022.2.1,Win32,59.95203837,,,,,,,,,,,,,,,,,,,,,,,,,,,,,,,,,,,,,,,,,,,,,,,,,,,,,,,,,,,,,,,,,,,,,,,,,,,,,,,,,,"[9,3,5,7,6,4,2,8,1,1,9]",5,0,5,0,1,,,,,,,,,,,,,,,,,,,,,,,,,,,,,,,,,,,,,,,,,,,,,,,,
,,6138c06bd7d7f2b7720e7a27,2022-09-08_12h08.03.673,CGTgamblingSpanTasks,2022.2.1,Win32,59.95203837,,,,,,,,,,,,,,,,,,,,,,,,,,,,,,,,,,,,,,,,,,,,,,,,,,,,,,,,,,,,,,,,,,,,,,,,,,,,,,,,,,"[9,3,5,7,6,4,2,8,1,1,9]",6,0,6,0,1,,,,,,,,,,,,,,,,,,,,,,,,,,,,,,,,,,,,,,,,,,,,,,,,
,,6138c06bd7d7f2b7720e7a27,2022-09-08_12h08.03.673,CGTgamblingSpanTasks,2022.2.1,Win32,59.95203837,,,,,,,,,,,,,,,,,,,,,,,,,,,,,,,,,,,,,,,,,,,,,,,,,,,,,,,,,,,,,,,,,,,,,,,,,,,,,,,,,,"[9,3,5,7,6,4,2,8,1,1,9]",7,0,7,0,1,,,,,,,,,,,,,,,,,,,,,,,,,,,,,,,,,,,,,,,,,,,,,,,,
,,6138c06bd7d7f2b7720e7a27,2022-09-08_12h08.03.673,CGTgamblingSpanTasks,2022.2.1,Win32,59.95203837,,,,,,,,,,,,,,,,,,,,,,,,,,,,,,,,,,,,,,,,,,,,,,,,,,,,,,,,,,,,,,,,,,,,,,,,,,,,,,,,,,"[9,3,5,7,6,4,2,8,1,1,9]",8,0,8,0,1,,,,,,,,,,,,,,,,,,,,,,,,,,,,,,,,,,,,,,,,,,,,,,,,
,,6138c06bd7d7f2b7720e7a27,2022-09-08_12h08.03.673,CGTgamblingSpanTasks,2022.2.1,Win32,59.95203837,,,,,,,,,,,,,,,,,,,,,,,,,,,,,,,,,,,,,,,,,,,,,,,,,,,,,,,,,,,,,,,,,,,,,,,,,,,,,,,,,,"[9,3,5,7,6,4,2,8,1,1,9]",9,0,9,0,1,,,,,,,,,,,,,,,,,,,,,,,,,,,,,,,,,,,,,,,,,,,,,,,,
,,6138c06bd7d7f2b7720e7a27,2022-09-08_12h08.03.673,CGTgamblingSpanTasks,2022.2.1,Win32,59.95203837,,,,,,,,,,,,,,,,,,,,,,,,,,,,,,,,,,,,,,,,,,,,,,,,,,,,,,,,,,,,,,,,,,,,,,,,,,,,,,,,,,"[9,3,5,7,6,4,2,8,1,1,9]",10,0,10,0,1,,,,,,,,,,,,,,,,,,,,,,,,,,,,,,,,,,,,,,,,,,,,,,,,
,,6138c06bd7d7f2b7720e7a27,2022-09-08_12h08.03.673,CGTgamblingSpanTasks,2022.2.1,Win32,59.95203837,,,,,,,,,,,,,,,,,,,,,,,,,,,,,,,,,,,,,,,,,,,,,,,,,,,,,,,,,,,,,,,1,,,,,,,,,,,,,,,,,,,,,,,,,93576428119,0.049904031,-0.396353167,1,0,0,cont_button,0,8,8,8,1,9,,,,,,,,,,,,,,,,,,,,,,,,,,,,,,,,,,,
,,6138c06bd7d7f2b7720e7a27,2022-09-08_12h08.03.673,CGTgamblingSpanTasks,2022.2.1,Win32,59.95203837,,,,,,,,,,,,,,,,,,,,,,,,,,,,,,,,,,,,,,,,,,,,,,,,,,,,,,,,,,,,,,,,,,,,,,,,,,,,,,,,,,"[3,5,8,6,1,9,7,2,4,4,5,1]",0,0,0,0,1,,,,,,,,,,,,,,,,,,,,,,,,,,,,,,,,,,,,,,,,,,,,,,,,
,,6138c06bd7d7f2b7720e7a27,2022-09-08_12h08.03.673,CGTgamblingSpanTasks,2022.2.1,Win32,59.95203837,,,,,,,,,,,,,,,,,,,,,,,,,,,,,,,,,,,,,,,,,,,,,,,,,,,,,,,,,,,,,,,,,,,,,,,,,,,,,,,,,,"[3,5,8,6,1,9,7,2,4,4,5,1]",1,0,1,0,1,,,,,,,,,,,,,,,,,,,,,,,,,,,,,,,,,,,,,,,,,,,,,,,,
,,6138c06bd7d7f2b7720e7a27,2022-09-08_12h08.03.673,CGTgamblingSpanTasks,2022.2.1,Win32,59.95203837,,,,,,,,,,,,,,,,,,,,,,,,,,,,,,,,,,,,,,,,,,,,,,,,,,,,,,,,,,,,,,,,,,,,,,,,,,,,,,,,,,"[3,5,8,6,1,9,7,2,4,4,5,1]",2,0,2,0,1,,,,,,,,,,,,,,,,,,,,,,,,,,,,,,,,,,,,,,,,,,,,,,,,
,,6138c06bd7d7f2b7720e7a27,2022-09-08_12h08.03.673,CGTgamblingSpanTasks,2022.2.1,Win32,59.95203837,,,,,,,,,,,,,,,,,,,,,,,,,,,,,,,,,,,,,,,,,,,,,,,,,,,,,,,,,,,,,,,,,,,,,,,,,,,,,,,,,,"[3,5,8,6,1,9,7,2,4,4,5,1]",3,0,3,0,1,,,,,,,,,,,,,,,,,,,,,,,,,,,,,,,,,,,,,,,,,,,,,,,,
,,6138c06bd7d7f2b7720e7a27,2022-09-08_12h08.03.673,CGTgamblingSpanTasks,2022.2.1,Win32,59.95203837,,,,,,,,,,,,,,,,,,,,,,,,,,,,,,,,,,,,,,,,,,,,,,,,,,,,,,,,,,,,,,,,,,,,,,,,,,,,,,,,,,"[3,5,8,6,1,9,7,2,4,4,5,1]",4,0,4,0,1,,,,,,,,,,,,,,,,,,,,,,,,,,,,,,,,,,,,,,,,,,,,,,,,
,,6138c06bd7d7f2b7720e7a27,2022-09-08_12h08.03.673,CGTgamblingSpanTasks,2022.2.1,Win32,59.95203837,,,,,,,,,,,,,,,,,,,,,,,,,,,,,,,,,,,,,,,,,,,,,,,,,,,,,,,,,,,,,,,,,,,,,,,,,,,,,,,,,,"[3,5,8,6,1,9,7,2,4,4,5,1]",5,0,5,0,1,,,,,,,,,,,,,,,,,,,,,,,,,,,,,,,,,,,,,,,,,,,,,,,,
,,6138c06bd7d7f2b7720e7a27,2022-09-08_12h08.03.673,CGTgamblingSpanTasks,2022.2.1,Win32,59.95203837,,,,,,,,,,,,,,,,,,,,,,,,,,,,,,,,,,,,,,,,,,,,,,,,,,,,,,,,,,,,,,,,,,,,,,,,,,,,,,,,,,"[3,5,8,6,1,9,7,2,4,4,5,1]",6,0,6,0,1,,,,,,,,,,,,,,,,,,,,,,,,,,,,,,,,,,,,,,,,,,,,,,,,
,,6138c06bd7d7f2b7720e7a27,2022-09-08_12h08.03.673,CGTgamblingSpanTasks,2022.2.1,Win32,59.95203837,,,,,,,,,,,,,,,,,,,,,,,,,,,,,,,,,,,,,,,,,,,,,,,,,,,,,,,,,,,,,,,,,,,,,,,,,,,,,,,,,,"[3,5,8,6,1,9,7,2,4,4,5,1]",7,0,7,0,1,,,,,,,,,,,,,,,,,,,,,,,,,,,,,,,,,,,,,,,,,,,,,,,,
,,6138c06bd7d7f2b7720e7a27,2022-09-08_12h08.03.673,CGTgamblingSpanTasks,2022.2.1,Win32,59.95203837,,,,,,,,,,,,,,,,,,,,,,,,,,,,,,,,,,,,,,,,,,,,,,,,,,,,,,,,,,,,,,,,,,,,,,,,,,,,,,,,,,"[3,5,8,6,1,9,7,2,4,4,5,1]",8,0,8,0,1,,,,,,,,,,,,,,,,,,,,,,,,,,,,,,,,,,,,,,,,,,,,,,,,
,,6138c06bd7d7f2b7720e7a27,2022-09-08_12h08.03.673,CGTgamblingSpanTasks,2022.2.1,Win32,59.95203837,,,,,,,,,,,,,,,,,,,,,,,,,,,,,,,,,,,,,,,,,,,,,,,,,,,,,,,,,,,,,,,,,,,,,,,,,,,,,,,,,,"[3,5,8,6,1,9,7,2,4,4,5,1]",9,0,9,0,1,,,,,,,,,,,,,,,,,,,,,,,,,,,,,,,,,,,,,,,,,,,,,,,,
,,6138c06bd7d7f2b7720e7a27,2022-09-08_12h08.03.673,CGTgamblingSpanTasks,2022.2.1,Win32,59.95203837,,,,,,,,,,,,,,,,,,,,,,,,,,,,,,,,,,,,,,,,,,,,,,,,,,,,,,,,,,,,,,,,,,,,,,,,,,,,,,,,,,"[3,5,8,6,1,9,7,2,4,4,5,1]",10,0,10,0,1,,,,,,,,,,,,,,,,,,,,,,,,,,,,,,,,,,,,,,,,,,,,,,,,
,,6138c06bd7d7f2b7720e7a27,2022-09-08_12h08.03.673,CGTgamblingSpanTasks,2022.2.1,Win32,59.95203837,,,,,,,,,,,,,,,,,,,,,,,,,,,,,,,,,,,,,,,,,,,,,,,,,,,,,,,,,,,,,,,,,,,,,,,,,,,,,,,,,,"[3,5,8,6,1,9,7,2,4,4,5,1]",11,0,11,0,1,,,,,,,,,,,,,,,,,,,,,,,,,,,,,,,,,,,,,,,,,,,,,,,,
,,6138c06bd7d7f2b7720e7a27,2022-09-08_12h08.03.673,CGTgamblingSpanTasks,2022.2.1,Win32,59.95203837,,,,,,,,,,,,,,,,,,,,,,,,,,,,,,,,,,,,,,,,,,,,,,,,,,,,,,,,,,,,,,,1,,,,,,,,,,,,,,,,,,,,,,,,,358619724451,-0.051823417,-0.402111324,1,0,0,cont_button,0,9,9,9,1,10,,,,,,,,,,,,,,,,,,,,,,,,,,,,,,,,,,,
,,6138c06bd7d7f2b7720e7a27,2022-09-08_12h08.03.673,CGTgamblingSpanTasks,2022.2.1,Win32,59.95203837,,,,,,,,,,,,,,,,,,,,,,,,,,,,,,,,,,,,,,,,,,,,,,,,,,,,,,,,,,,,,,,,,,,,,,,,,,,,,,,,,,"[8,4,5,7,1,9,6,3,2,2,3,5,7]",0,0,0,0,1,,,,,,,,,,,,,,,,,,,,,,,,,,,,,,,,,,,,,,,,,,,,,,,,
,,6138c06bd7d7f2b7720e7a27,2022-09-08_12h08.03.673,CGTgamblingSpanTasks,2022.2.1,Win32,59.95203837,,,,,,,,,,,,,,,,,,,,,,,,,,,,,,,,,,,,,,,,,,,,,,,,,,,,,,,,,,,,,,,,,,,,,,,,,,,,,,,,,,"[8,4,5,7,1,9,6,3,2,2,3,5,7]",1,0,1,0,1,,,,,,,,,,,,,,,,,,,,,,,,,,,,,,,,,,,,,,,,,,,,,,,,
,,6138c06bd7d7f2b7720e7a27,2022-09-08_12h08.03.673,CGTgamblingSpanTasks,2022.2.1,Win32,59.95203837,,,,,,,,,,,,,,,,,,,,,,,,,,,,,,,,,,,,,,,,,,,,,,,,,,,,,,,,,,,,,,,,,,,,,,,,,,,,,,,,,,"[8,4,5,7,1,9,6,3,2,2,3,5,7]",2,0,2,0,1,,,,,,,,,,,,,,,,,,,,,,,,,,,,,,,,,,,,,,,,,,,,,,,,
,,6138c06bd7d7f2b7720e7a27,2022-09-08_12h08.03.673,CGTgamblingSpanTasks,2022.2.1,Win32,59.95203837,,,,,,,,,,,,,,,,,,,,,,,,,,,,,,,,,,,,,,,,,,,,,,,,,,,,,,,,,,,,,,,,,,,,,,,,,,,,,,,,,,"[8,4,5,7,1,9,6,3,2,2,3,5,7]",3,0,3,0,1,,,,,,,,,,,,,,,,,,,,,,,,,,,,,,,,,,,,,,,,,,,,,,,,
,,6138c06bd7d7f2b7720e7a27,2022-09-08_12h08.03.673,CGTgamblingSpanTasks,2022.2.1,Win32,59.95203837,,,,,,,,,,,,,,,,,,,,,,,,,,,,,,,,,,,,,,,,,,,,,,,,,,,,,,,,,,,,,,,,,,,,,,,,,,,,,,,,,,"[8,4,5,7,1,9,6,3,2,2,3,5,7]",4,0,4,0,1,,,,,,,,,,,,,,,,,,,,,,,,,,,,,,,,,,,,,,,,,,,,,,,,
,,6138c06bd7d7f2b7720e7a27,2022-09-08_12h08.03.673,CGTgamblingSpanTasks,2022.2.1,Win32,59.95203837,,,,,,,,,,,,,,,,,,,,,,,,,,,,,,,,,,,,,,,,,,,,,,,,,,,,,,,,,,,,,,,,,,,,,,,,,,,,,,,,,,"[8,4,5,7,1,9,6,3,2,2,3,5,7]",5,0,5,0,1,,,,,,,,,,,,,,,,,,,,,,,,,,,,,,,,,,,,,,,,,,,,,,,,
,,6138c06bd7d7f2b7720e7a27,2022-09-08_12h08.03.673,CGTgamblingSpanTasks,2022.2.1,Win32,59.95203837,,,,,,,,,,,,,,,,,,,,,,,,,,,,,,,,,,,,,,,,,,,,,,,,,,,,,,,,,,,,,,,,,,,,,,,,,,,,,,,,,,"[8,4,5,7,1,9,6,3,2,2,3,5,7]",6,0,6,0,1,,,,,,,,,,,,,,,,,,,,,,,,,,,,,,,,,,,,,,,,,,,,,,,,
,,6138c06bd7d7f2b7720e7a27,2022-09-08_12h08.03.673,CGTgamblingSpanTasks,2022.2.1,Win32,59.95203837,,,,,,,,,,,,,,,,,,,,,,,,,,,,,,,,,,,,,,,,,,,,,,,,,,,,,,,,,,,,,,,,,,,,,,,,,,,,,,,,,,"[8,4,5,7,1,9,6,3,2,2,3,5,7]",7,0,7,0,1,,,,,,,,,,,,,,,,,,,,,,,,,,,,,,,,,,,,,,,,,,,,,,,,
,,6138c06bd7d7f2b7720e7a27,2022-09-08_12h08.03.673,CGTgamblingSpanTasks,2022.2.1,Win32,59.95203837,,,,,,,,,,,,,,,,,,,,,,,,,,,,,,,,,,,,,,,,,,,,,,,,,,,,,,,,,,,,,,,,,,,,,,,,,,,,,,,,,,"[8,4,5,7,1,9,6,3,2,2,3,5,7]",8,0,8,0,1,,,,,,,,,,,,,,,,,,,,,,,,,,,,,,,,,,,,,,,,,,,,,,,,
,,6138c06bd7d7f2b7720e7a27,2022-09-08_12h08.03.673,CGTgamblingSpanTasks,2022.2.1,Win32,59.95203837,,,,,,,,,,,,,,,,,,,,,,,,,,,,,,,,,,,,,,,,,,,,,,,,,,,,,,,,,,,,,,,,,,,,,,,,,,,,,,,,,,"[8,4,5,7,1,9,6,3,2,2,3,5,7]",9,0,9,0,1,,,,,,,,,,,,,,,,,,,,,,,,,,,,,,,,,,,,,,,,,,,,,,,,
,,6138c06bd7d7f2b7720e7a27,2022-09-08_12h08.03.673,CGTgamblingSpanTasks,2022.2.1,Win32,59.95203837,,,,,,,,,,,,,,,,,,,,,,,,,,,,,,,,,,,,,,,,,,,,,,,,,,,,,,,,,,,,,,,,,,,,,,,,,,,,,,,,,,"[8,4,5,7,1,9,6,3,2,2,3,5,7]",10,0,10,0,1,,,,,,,,,,,,,,,,,,,,,,,,,,,,,,,,,,,,,,,,,,,,,,,,
,,6138c06bd7d7f2b7720e7a27,2022-09-08_12h08.03.673,CGTgamblingSpanTasks,2022.2.1,Win32,59.95203837,,,,,,,,,,,,,,,,,,,,,,,,,,,,,,,,,,,,,,,,,,,,,,,,,,,,,,,,,,,,,,,,,,,,,,,,,,,,,,,,,,"[8,4,5,7,1,9,6,3,2,2,3,5,7]",11,0,11,0,1,,,,,,,,,,,,,,,,,,,,,,,,,,,,,,,,,,,,,,,,,,,,,,,,
,,6138c06bd7d7f2b7720e7a27,2022-09-08_12h08.03.673,CGTgamblingSpanTasks,2022.2.1,Win32,59.95203837,,,,,,,,,,,,,,,,,,,,,,,,,,,,,,,,,,,,,,,,,,,,,,,,,,,,,,,,,,,,,,,,,,,,,,,,,,,,,,,,,,"[8,4,5,7,1,9,6,3,2,2,3,5,7]",12,0,12,0,1,,,,,,,,,,,,,,,,,,,,,,,,,,,,,,,,,,,,,,,,,,,,,,,,
,,6138c06bd7d7f2b7720e7a27,2022-09-08_12h08.03.673,CGTgamblingSpanTasks,2022.2.1,Win32,59.95203837,,,,,,,,,,,,,,,,,,,,,,,,,,,,,,,,,,,,,,,,,,,,,,,,,,,,,,,,,,,,,,,1,,,,,,,,,,,,,,,,,,,,,,,,,8457196322357,0.084452975,-0.400191939,1,0,0,cont_button,0,10,10,10,1,11,,,,,,,,,,,,,,,,,,,,,,,,,,,,,,,,,,,
,,6138c06bd7d7f2b7720e7a27,2022-09-08_12h08.03.673,CGTgamblingSpanTasks,2022.2.1,Win32,59.95203837,,,,,,,,,,,,,,,,,,,,,,,,,,,,,,,,,,,,,,,,,,,,,,,,,,,,,,,,,,,,,,,,,,,,,,,,,,,,,,,,,,"[5,6,1,7,2,3,8,4,9,9,3,1,8,7]",0,0,0,0,1,,,,,,,,,,,,,,,,,,,,,,,,,,,,,,,,,,,,,,,,,,,,,,,,
,,6138c06bd7d7f2b7720e7a27,2022-09-08_12h08.03.673,CGTgamblingSpanTasks,2022.2.1,Win32,59.95203837,,,,,,,,,,,,,,,,,,,,,,,,,,,,,,,,,,,,,,,,,,,,,,,,,,,,,,,,,,,,,,,,,,,,,,,,,,,,,,,,,,"[5,6,1,7,2,3,8,4,9,9,3,1,8,7]",1,0,1,0,1,,,,,,,,,,,,,,,,,,,,,,,,,,,,,,,,,,,,,,,,,,,,,,,,
,,6138c06bd7d7f2b7720e7a27,2022-09-08_12h08.03.673,CGTgamblingSpanTasks,2022.2.1,Win32,59.95203837,,,,,,,,,,,,,,,,,,,,,,,,,,,,,,,,,,,,,,,,,,,,,,,,,,,,,,,,,,,,,,,,,,,,,,,,,,,,,,,,,,"[5,6,1,7,2,3,8,4,9,9,3,1,8,7]",2,0,2,0,1,,,,,,,,,,,,,,,,,,,,,,,,,,,,,,,,,,,,,,,,,,,,,,,,
,,6138c06bd7d7f2b7720e7a27,2022-09-08_12h08.03.673,CGTgamblingSpanTasks,2022.2.1,Win32,59.95203837,,,,,,,,,,,,,,,,,,,,,,,,,,,,,,,,,,,,,,,,,,,,,,,,,,,,,,,,,,,,,,,,,,,,,,,,,,,,,,,,,,"[5,6,1,7,2,3,8,4,9,9,3,1,8,7]",3,0,3,0,1,,,,,,,,,,,,,,,,,,,,,,,,,,,,,,,,,,,,,,,,,,,,,,,,
,,6138c06bd7d7f2b7720e7a27,2022-09-08_12h08.03.673,CGTgamblingSpanTasks,2022.2.1,Win32,59.95203837,,,,,,,,,,,,,,,,,,,,,,,,,,,,,,,,,,,,,,,,,,,,,,,,,,,,,,,,,,,,,,,,,,,,,,,,,,,,,,,,,,"[5,6,1,7,2,3,8,4,9,9,3,1,8,7]",4,0,4,0,1,,,,,,,,,,,,,,,,,,,,,,,,,,,,,,,,,,,,,,,,,,,,,,,,
,,6138c06bd7d7f2b7720e7a27,2022-09-08_12h08.03.673,CGTgamblingSpanTasks,2022.2.1,Win32,59.95203837,,,,,,,,,,,,,,,,,,,,,,,,,,,,,,,,,,,,,,,,,,,,,,,,,,,,,,,,,,,,,,,,,,,,,,,,,,,,,,,,,,"[5,6,1,7,2,3,8,4,9,9,3,1,8,7]",5,0,5,0,1,,,,,,,,,,,,,,,,,,,,,,,,,,,,,,,,,,,,,,,,,,,,,,,,
,,6138c06bd7d7f2b7720e7a27,2022-09-08_12h08.03.673,CGTgamblingSpanTasks,2022.2.1,Win32,59.95203837,,,,,,,,,,,,,,,,,,,,,,,,,,,,,,,,,,,,,,,,,,,,,,,,,,,,,,,,,,,,,,,,,,,,,,,,,,,,,,,,,,"[5,6,1,7,2,3,8,4,9,9,3,1,8,7]",6,0,6,0,1,,,,,,,,,,,,,,,,,,,,,,,,,,,,,,,,,,,,,,,,,,,,,,,,
,,6138c06bd7d7f2b7720e7a27,2022-09-08_12h08.03.673,CGTgamblingSpanTasks,2022.2.1,Win32,59.95203837,,,,,,,,,,,,,,,,,,,,,,,,,,,,,,,,,,,,,,,,,,,,,,,,,,,,,,,,,,,,,,,,,,,,,,,,,,,,,,,,,,"[5,6,1,7,2,3,8,4,9,9,3,1,8,7]",7,0,7,0,1,,,,,,,,,,,,,,,,,,,,,,,,,,,,,,,,,,,,,,,,,,,,,,,,
,,6138c06bd7d7f2b7720e7a27,2022-09-08_12h08.03.673,CGTgamblingSpanTasks,2022.2.1,Win32,59.95203837,,,,,,,,,,,,,,,,,,,,,,,,,,,,,,,,,,,,,,,,,,,,,,,,,,,,,,,,,,,,,,,,,,,,,,,,,,,,,,,,,,"[5,6,1,7,2,3,8,4,9,9,3,1,8,7]",8,0,8,0,1,,,,,,,,,,,,,,,,,,,,,,,,,,,,,,,,,,,,,,,,,,,,,,,,
,,6138c06bd7d7f2b7720e7a27,2022-09-08_12h08.03.673,CGTgamblingSpanTasks,2022.2.1,Win32,59.95203837,,,,,,,,,,,,,,,,,,,,,,,,,,,,,,,,,,,,,,,,,,,,,,,,,,,,,,,,,,,,,,,,,,,,,,,,,,,,,,,,,,"[5,6,1,7,2,3,8,4,9,9,3,1,8,7]",9,0,9,0,1,,,,,,,,,,,,,,,,,,,,,,,,,,,,,,,,,,,,,,,,,,,,,,,,
,,6138c06bd7d7f2b7720e7a27,2022-09-08_12h08.03.673,CGTgamblingSpanTasks,2022.2.1,Win32,59.95203837,,,,,,,,,,,,,,,,,,,,,,,,,,,,,,,,,,,,,,,,,,,,,,,,,,,,,,,,,,,,,,,,,,,,,,,,,,,,,,,,,,"[5,6,1,7,2,3,8,4,9,9,3,1,8,7]",10,0,10,0,1,,,,,,,,,,,,,,,,,,,,,,,,,,,,,,,,,,,,,,,,,,,,,,,,
,,6138c06bd7d7f2b7720e7a27,2022-09-08_12h08.03.673,CGTgamblingSpanTasks,2022.2.1,Win32,59.95203837,,,,,,,,,,,,,,,,,,,,,,,,,,,,,,,,,,,,,,,,,,,,,,,,,,,,,,,,,,,,,,,,,,,,,,,,,,,,,,,,,,"[5,6,1,7,2,3,8,4,9,9,3,1,8,7]",11,0,11,0,1,,,,,,,,,,,,,,,,,,,,,,,,,,,,,,,,,,,,,,,,,,,,,,,,
,,6138c06bd7d7f2b7720e7a27,2022-09-08_12h08.03.673,CGTgamblingSpanTasks,2022.2.1,Win32,59.95203837,,,,,,,,,,,,,,,,,,,,,,,,,,,,,,,,,,,,,,,,,,,,,,,,,,,,,,,,,,,,,,,,,,,,,,,,,,,,,,,,,,"[5,6,1,7,2,3,8,4,9,9,3,1,8,7]",12,0,12,0,1,,,,,,,,,,,,,,,,,,,,,,,,,,,,,,,,,,,,,,,,,,,,,,,,
,,6138c06bd7d7f2b7720e7a27,2022-09-08_12h08.03.673,CGTgamblingSpanTasks,2022.2.1,Win32,59.95203837,,,,,,,,,,,,,,,,,,,,,,,,,,,,,,,,,,,,,,,,,,,,,,,,,,,,,,,,,,,,,,,,,,,,,,,,,,,,,,,,,,"[5,6,1,7,2,3,8,4,9,9,3,1,8,7]",13,0,13,0,1,,,,,,,,,,,,,,,,,,,,,,,,,,,,,,,,,,,,,,,,,,,,,,,,
,,6138c06bd7d7f2b7720e7a27,2022-09-08_12h08.03.673,CGTgamblingSpanTasks,2022.2.1,Win32,59.95203837,,,,,,,,,,,,,,,,,,,,,,,,,,,,,,,,,,,,,,,,,,,,,,,,,,,,,,,,,,,,,,,1,,,,,,,,,,,,,,,,,,,,,,,,,56172384993187,0.063339731,-0.405950096,1,0,0,cont_button,0,11,11,11,1,12,,,,,,,,,,,,,,,,,,,,,,,,,,,,,,,,,,,
,,6138c06bd7d7f2b7720e7a27,2022-09-08_12h08.03.673,CGTgamblingSpanTasks,2022.2.1,Win32,59.95203837,,,,,,,,,,,,,,,,,,,,,,,,,,,,,,,,,,,,,,,,,,,,,,,,,,,,,,,,,,,,,,,,,,,,,,,,,,,,,,,,,,"[9,3,4,8,2,7,5,6,1,1,6,3,9,2,5]",0,0,0,0,1,,,,,,,,,,,,,,,,,,,,,,,,,,,,,,,,,,,,,,,,,,,,,,,,
,,6138c06bd7d7f2b7720e7a27,2022-09-08_12h08.03.673,CGTgamblingSpanTasks,2022.2.1,Win32,59.95203837,,,,,,,,,,,,,,,,,,,,,,,,,,,,,,,,,,,,,,,,,,,,,,,,,,,,,,,,,,,,,,,,,,,,,,,,,,,,,,,,,,"[9,3,4,8,2,7,5,6,1,1,6,3,9,2,5]",1,0,1,0,1,,,,,,,,,,,,,,,,,,,,,,,,,,,,,,,,,,,,,,,,,,,,,,,,
,,6138c06bd7d7f2b7720e7a27,2022-09-08_12h08.03.673,CGTgamblingSpanTasks,2022.2.1,Win32,59.95203837,,,,,,,,,,,,,,,,,,,,,,,,,,,,,,,,,,,,,,,,,,,,,,,,,,,,,,,,,,,,,,,,,,,,,,,,,,,,,,,,,,"[9,3,4,8,2,7,5,6,1,1,6,3,9,2,5]",2,0,2,0,1,,,,,,,,,,,,,,,,,,,,,,,,,,,,,,,,,,,,,,,,,,,,,,,,
,,6138c06bd7d7f2b7720e7a27,2022-09-08_12h08.03.673,CGTgamblingSpanTasks,2022.2.1,Win32,59.95203837,,,,,,,,,,,,,,,,,,,,,,,,,,,,,,,,,,,,,,,,,,,,,,,,,,,,,,,,,,,,,,,,,,,,,,,,,,,,,,,,,,"[9,3,4,8,2,7,5,6,1,1,6,3,9,2,5]",3,0,3,0,1,,,,,,,,,,,,,,,,,,,,,,,,,,,,,,,,,,,,,,,,,,,,,,,,
,,6138c06bd7d7f2b7720e7a27,2022-09-08_12h08.03.673,CGTgamblingSpanTasks,2022.2.1,Win32,59.95203837,,,,,,,,,,,,,,,,,,,,,,,,,,,,,,,,,,,,,,,,,,,,,,,,,,,,,,,,,,,,,,,,,,,,,,,,,,,,,,,,,,"[9,3,4,8,2,7,5,6,1,1,6,3,9,2,5]",4,0,4,0,1,,,,,,,,,,,,,,,,,,,,,,,,,,,,,,,,,,,,,,,,,,,,,,,,
,,6138c06bd7d7f2b7720e7a27,2022-09-08_12h08.03.673,CGTgamblingSpanTasks,2022.2.1,Win32,59.95203837,,,,,,,,,,,,,,,,,,,,,,,,,,,,,,,,,,,,,,,,,,,,,,,,,,,,,,,,,,,,,,,,,,,,,,,,,,,,,,,,,,"[9,3,4,8,2,7,5,6,1,1,6,3,9,2,5]",5,0,5,0,1,,,,,,,,,,,,,,,,,,,,,,,,,,,,,,,,,,,,,,,,,,,,,,,,
,,6138c06bd7d7f2b7720e7a27,2022-09-08_12h08.03.673,CGTgamblingSpanTasks,2022.2.1,Win32,59.95203837,,,,,,,,,,,,,,,,,,,,,,,,,,,,,,,,,,,,,,,,,,,,,,,,,,,,,,,,,,,,,,,,,,,,,,,,,,,,,,,,,,"[9,3,4,8,2,7,5,6,1,1,6,3,9,2,5]",6,0,6,0,1,,,,,,,,,,,,,,,,,,,,,,,,,,,,,,,,,,,,,,,,,,,,,,,,
,,6138c06bd7d7f2b7720e7a27,2022-09-08_12h08.03.673,CGTgamblingSpanTasks,2022.2.1,Win32,59.95203837,,,,,,,,,,,,,,,,,,,,,,,,,,,,,,,,,,,,,,,,,,,,,,,,,,,,,,,,,,,,,,,,,,,,,,,,,,,,,,,,,,"[9,3,4,8,2,7,5,6,1,1,6,3,9,2,5]",7,0,7,0,1,,,,,,,,,,,,,,,,,,,,,,,,,,,,,,,,,,,,,,,,,,,,,,,,
,,6138c06bd7d7f2b7720e7a27,2022-09-08_12h08.03.673,CGTgamblingSpanTasks,2022.2.1,Win32,59.95203837,,,,,,,,,,,,,,,,,,,,,,,,,,,,,,,,,,,,,,,,,,,,,,,,,,,,,,,,,,,,,,,,,,,,,,,,,,,,,,,,,,"[9,3,4,8,2,7,5,6,1,1,6,3,9,2,5]",8,0,8,0,1,,,,,,,,,,,,,,,,,,,,,,,,,,,,,,,,,,,,,,,,,,,,,,,,
,,6138c06bd7d7f2b7720e7a27,2022-09-08_12h08.03.673,CGTgamblingSpanTasks,2022.2.1,Win32,59.95203837,,,,,,,,,,,,,,,,,,,,,,,,,,,,,,,,,,,,,,,,,,,,,,,,,,,,,,,,,,,,,,,,,,,,,,,,,,,,,,,,,,"[9,3,4,8,2,7,5,6,1,1,6,3,9,2,5]",9,0,9,0,1,,,,,,,,,,,,,,,,,,,,,,,,,,,,,,,,,,,,,,,,,,,,,,,,
,,6138c06bd7d7f2b7720e7a27,2022-09-08_12h08.03.673,CGTgamblingSpanTasks,2022.2.1,Win32,59.95203837,,,,,,,,,,,,,,,,,,,,,,,,,,,,,,,,,,,,,,,,,,,,,,,,,,,,,,,,,,,,,,,,,,,,,,,,,,,,,,,,,,"[9,3,4,8,2,7,5,6,1,1,6,3,9,2,5]",10,0,10,0,1,,,,,,,,,,,,,,,,,,,,,,,,,,,,,,,,,,,,,,,,,,,,,,,,
,,6138c06bd7d7f2b7720e7a27,2022-09-08_12h08.03.673,CGTgamblingSpanTasks,2022.2.1,Win32,59.95203837,,,,,,,,,,,,,,,,,,,,,,,,,,,,,,,,,,,,,,,,,,,,,,,,,,,,,,,,,,,,,,,,,,,,,,,,,,,,,,,,,,"[9,3,4,8,2,7,5,6,1,1,6,3,9,2,5]",11,0,11,0,1,,,,,,,,,,,,,,,,,,,,,,,,,,,,,,,,,,,,,,,,,,,,,,,,
,,6138c06bd7d7f2b7720e7a27,2022-09-08_12h08.03.673,CGTgamblingSpanTasks,2022.2.1,Win32,59.95203837,,,,,,,,,,,,,,,,,,,,,,,,,,,,,,,,,,,,,,,,,,,,,,,,,,,,,,,,,,,,,,,,,,,,,,,,,,,,,,,,,,"[9,3,4,8,2,7,5,6,1,1,6,3,9,2,5]",12,0,12,0,1,,,,,,,,,,,,,,,,,,,,,,,,,,,,,,,,,,,,,,,,,,,,,,,,
,,6138c06bd7d7f2b7720e7a27,2022-09-08_12h08.03.673,CGTgamblingSpanTasks,2022.2.1,Win32,59.95203837,,,,,,,,,,,,,,,,,,,,,,,,,,,,,,,,,,,,,,,,,,,,,,,,,,,,,,,,,,,,,,,,,,,,,,,,,,,,,,,,,,"[9,3,4,8,2,7,5,6,1,1,6,3,9,2,5]",13,0,13,0,1,,,,,,,,,,,,,,,,,,,,,,,,,,,,,,,,,,,,,,,,,,,,,,,,
,,6138c06bd7d7f2b7720e7a27,2022-09-08_12h08.03.673,CGTgamblingSpanTasks,2022.2.1,Win32,59.95203837,,,,,,,,,,,,,,,,,,,,,,,,,,,,,,,,,,,,,,,,,,,,,,,,,,,,,,,,,,,,,,,,,,,,,,,,,,,,,,,,,,"[9,3,4,8,2,7,5,6,1,1,6,3,9,2,5]",14,0,14,0,1,,,,,,,,,,,,,,,,,,,,,,,,,,,,,,,,,,,,,,,,,,,,,,,,
,,6138c06bd7d7f2b7720e7a27,2022-09-08_12h08.03.673,CGTgamblingSpanTasks,2022.2.1,Win32,59.95203837,,,,,,,,,,,,,,,,,,,,,,,,,,,,,,,,,,,,,,,,,,,,,,,,,,,,,,,,,,,,,,,1,,,,,,,,,,,,,,,,,,,,,,,,,934827561163925,-0.021113244,-0.398272553,1,0,0,cont_button,0,12,12,12,1,13,,,,,,,,,,,,,,,,,,,,,,,,,,,,,,,,,,,
,,6138c06bd7d7f2b7720e7a27,2022-09-08_12h08.03.673,CGTgamblingSpanTasks,2022.2.1,Win32,59.95203837,,,,,,,,,,,,,,,,,,,,,,,,,,,,,,,,,,,,,,,,,,,,,,,,,,,,,,,,,,,,,,,,,,,,,,,,,,,,,,,,,,"[3,9,1,5,6,4,2,8,7,7,4,1,9,2,6,3]",0,0,0,0,1,,,,,,,,,,,,,,,,,,,,,,,,,,,,,,,,,,,,,,,,,,,,,,,,
,,6138c06bd7d7f2b7720e7a27,2022-09-08_12h08.03.673,CGTgamblingSpanTasks,2022.2.1,Win32,59.95203837,,,,,,,,,,,,,,,,,,,,,,,,,,,,,,,,,,,,,,,,,,,,,,,,,,,,,,,,,,,,,,,,,,,,,,,,,,,,,,,,,,"[3,9,1,5,6,4,2,8,7,7,4,1,9,2,6,3]",1,0,1,0,1,,,,,,,,,,,,,,,,,,,,,,,,,,,,,,,,,,,,,,,,,,,,,,,,
,,6138c06bd7d7f2b7720e7a27,2022-09-08_12h08.03.673,CGTgamblingSpanTasks,2022.2.1,Win32,59.95203837,,,,,,,,,,,,,,,,,,,,,,,,,,,,,,,,,,,,,,,,,,,,,,,,,,,,,,,,,,,,,,,,,,,,,,,,,,,,,,,,,,"[3,9,1,5,6,4,2,8,7,7,4,1,9,2,6,3]",2,0,2,0,1,,,,,,,,,,,,,,,,,,,,,,,,,,,,,,,,,,,,,,,,,,,,,,,,
,,6138c06bd7d7f2b7720e7a27,2022-09-08_12h08.03.673,CGTgamblingSpanTasks,2022.2.1,Win32,59.95203837,,,,,,,,,,,,,,,,,,,,,,,,,,,,,,,,,,,,,,,,,,,,,,,,,,,,,,,,,,,,,,,,,,,,,,,,,,,,,,,,,,"[3,9,1,5,6,4,2,8,7,7,4,1,9,2,6,3]",3,0,3,0,1,,,,,,,,,,,,,,,,,,,,,,,,,,,,,,,,,,,,,,,,,,,,,,,,
,,6138c06bd7d7f2b7720e7a27,2022-09-08_12h08.03.673,CGTgamblingSpanTasks,2022.2.1,Win32,59.95203837,,,,,,,,,,,,,,,,,,,,,,,,,,,,,,,,,,,,,,,,,,,,,,,,,,,,,,,,,,,,,,,,,,,,,,,,,,,,,,,,,,"[3,9,1,5,6,4,2,8,7,7,4,1,9,2,6,3]",4,0,4,0,1,,,,,,,,,,,,,,,,,,,,,,,,,,,,,,,,,,,,,,,,,,,,,,,,
,,6138c06bd7d7f2b7720e7a27,2022-09-08_12h08.03.673,CGTgamblingSpanTasks,2022.2.1,Win32,59.95203837,,,,,,,,,,,,,,,,,,,,,,,,,,,,,,,,,,,,,,,,,,,,,,,,,,,,,,,,,,,,,,,,,,,,,,,,,,,,,,,,,,"[3,9,1,5,6,4,2,8,7,7,4,1,9,2,6,3]",5,0,5,0,1,,,,,,,,,,,,,,,,,,,,,,,,,,,,,,,,,,,,,,,,,,,,,,,,
,,6138c06bd7d7f2b7720e7a27,2022-09-08_12h08.03.673,CGTgamblingSpanTasks,2022.2.1,Win32,59.95203837,,,,,,,,,,,,,,,,,,,,,,,,,,,,,,,,,,,,,,,,,,,,,,,,,,,,,,,,,,,,,,,,,,,,,,,,,,,,,,,,,,"[3,9,1,5,6,4,2,8,7,7,4,1,9,2,6,3]",6,0,6,0,1,,,,,,,,,,,,,,,,,,,,,,,,,,,,,,,,,,,,,,,,,,,,,,,,
,,6138c06bd7d7f2b7720e7a27,2022-09-08_12h08.03.673,CGTgamblingSpanTasks,2022.2.1,Win32,59.95203837,,,,,,,,,,,,,,,,,,,,,,,,,,,,,,,,,,,,,,,,,,,,,,,,,,,,,,,,,,,,,,,,,,,,,,,,,,,,,,,,,,"[3,9,1,5,6,4,2,8,7,7,4,1,9,2,6,3]",7,0,7,0,1,,,,,,,,,,,,,,,,,,,,,,,,,,,,,,,,,,,,,,,,,,,,,,,,
,,6138c06bd7d7f2b7720e7a27,2022-09-08_12h08.03.673,CGTgamblingSpanTasks,2022.2.1,Win32,59.95203837,,,,,,,,,,,,,,,,,,,,,,,,,,,,,,,,,,,,,,,,,,,,,,,,,,,,,,,,,,,,,,,,,,,,,,,,,,,,,,,,,,"[3,9,1,5,6,4,2,8,7,7,4,1,9,2,6,3]",8,0,8,0,1,,,,,,,,,,,,,,,,,,,,,,,,,,,,,,,,,,,,,,,,,,,,,,,,
,,6138c06bd7d7f2b7720e7a27,2022-09-08_12h08.03.673,CGTgamblingSpanTasks,2022.2.1,Win32,59.95203837,,,,,,,,,,,,,,,,,,,,,,,,,,,,,,,,,,,,,,,,,,,,,,,,,,,,,,,,,,,,,,,,,,,,,,,,,,,,,,,,,,"[3,9,1,5,6,4,2,8,7,7,4,1,9,2,6,3]",9,0,9,0,1,,,,,,,,,,,,,,,,,,,,,,,,,,,,,,,,,,,,,,,,,,,,,,,,
,,6138c06bd7d7f2b7720e7a27,2022-09-08_12h08.03.673,CGTgamblingSpanTasks,2022.2.1,Win32,59.95203837,,,,,,,,,,,,,,,,,,,,,,,,,,,,,,,,,,,,,,,,,,,,,,,,,,,,,,,,,,,,,,,,,,,,,,,,,,,,,,,,,,"[3,9,1,5,6,4,2,8,7,7,4,1,9,2,6,3]",10,0,10,0,1,,,,,,,,,,,,,,,,,,,,,,,,,,,,,,,,,,,,,,,,,,,,,,,,
,,6138c06bd7d7f2b7720e7a27,2022-09-08_12h08.03.673,CGTgamblingSpanTasks,2022.2.1,Win32,59.95203837,,,,,,,,,,,,,,,,,,,,,,,,,,,,,,,,,,,,,,,,,,,,,,,,,,,,,,,,,,,,,,,,,,,,,,,,,,,,,,,,,,"[3,9,1,5,6,4,2,8,7,7,4,1,9,2,6,3]",11,0,11,0,1,,,,,,,,,,,,,,,,,,,,,,,,,,,,,,,,,,,,,,,,,,,,,,,,
,,6138c06bd7d7f2b7720e7a27,2022-09-08_12h08.03.673,CGTgamblingSpanTasks,2022.2.1,Win32,59.95203837,,,,,,,,,,,,,,,,,,,,,,,,,,,,,,,,,,,,,,,,,,,,,,,,,,,,,,,,,,,,,,,,,,,,,,,,,,,,,,,,,,"[3,9,1,5,6,4,2,8,7,7,4,1,9,2,6,3]",12,0,12,0,1,,,,,,,,,,,,,,,,,,,,,,,,,,,,,,,,,,,,,,,,,,,,,,,,
,,6138c06bd7d7f2b7720e7a27,2022-09-08_12h08.03.673,CGTgamblingSpanTasks,2022.2.1,Win32,59.95203837,,,,,,,,,,,,,,,,,,,,,,,,,,,,,,,,,,,,,,,,,,,,,,,,,,,,,,,,,,,,,,,,,,,,,,,,,,,,,,,,,,"[3,9,1,5,6,4,2,8,7,7,4,1,9,2,6,3]",13,0,13,0,1,,,,,,,,,,,,,,,,,,,,,,,,,,,,,,,,,,,,,,,,,,,,,,,,
,,6138c06bd7d7f2b7720e7a27,2022-09-08_12h08.03.673,CGTgamblingSpanTasks,2022.2.1,Win32,59.95203837,,,,,,,,,,,,,,,,,,,,,,,,,,,,,,,,,,,,,,,,,,,,,,,,,,,,,,,,,,,,,,,,,,,,,,,,,,,,,,,,,,"[3,9,1,5,6,4,2,8,7,7,4,1,9,2,6,3]",14,0,14,0,1,,,,,,,,,,,,,,,,,,,,,,,,,,,,,,,,,,,,,,,,,,,,,,,,
,,6138c06bd7d7f2b7720e7a27,2022-09-08_12h08.03.673,CGTgamblingSpanTasks,2022.2.1,Win32,59.95203837,,,,,,,,,,,,,,,,,,,,,,,,,,,,,,,,,,,,,,,,,,,,,,,,,,,,,,,,,,,,,,,,,,,,,,,,,,,,,,,,,,"[3,9,1,5,6,4,2,8,7,7,4,1,9,2,6,3]",15,0,15,0,1,,,,,,,,,,,,,,,,,,,,,,,,,,,,,,,,,,,,,,,,,,,,,,,,
,,6138c06bd7d7f2b7720e7a27,2022-09-08_12h08.03.673,CGTgamblingSpanTasks,2022.2.1,Win32,59.95203837,,,,,,,,,,,,,,,,,,,,,,,,,,,,,,,,,,,,,,,,,,,,,,,,,,,,,,,,,,,,,,,1,,,,,,,,,,,,,,,,,,,,,,,,,3915642877419263,0.021113244,-0.40403071,1,0,0,cont_button,0,13,13,13,1,14,,,,,,,,,,,,,,,,,,,,,,,,,,,,,,,,,,,
,,6138c06bd7d7f2b7720e7a27,2022-09-08_12h08.03.673,CGTgamblingSpanTasks,2022.2.1,Win32,59.95203837,,,,,,,,,,,,,,,,,,,,,,,,,,,,,,,,,,,,,,,,,,,,,,,,,,,,,,,,,,,,,,,,,,,,,,,,,,,,,,,,,,,,,,,,,,,,,,,,,,,,,return,4.264,,,,,,,,,,,,,,,,,,,,,,,,,,,,,,,,,
,,6138c06bd7d7f2b7720e7a27,2022-09-08_12h08.03.673,CGTgamblingSpanTasks,2022.2.1,Win32,59.95203837,,,,,,,,,,,,,,,,,,,,,,,,,,,,,,,,,,,,,,,,,,,,,,,,,,,,,,,,,,,,,,,,,,,,,,,,,,,,,,,,,,,,,,,,,,,,,,,,,,,,,,,return,46.147,,,,,,,,,,,,,,,,,,,,,,,,,,,,,,,
,,6138c06bd7d7f2b7720e7a27,2022-09-08_12h08.03.673,CGTgamblingSpanTasks,2022.2.1,Win32,59.95203837,,,,,,,,,,,,,,,,,,,,,,,,,,,,,,,,,,,,,,,,,,,,,,,,,,,,,,,,,,,,,,,1,,,,,,,,,,,,3,342,24,2,42,,,,,,,,,,,,,,,,,,,,,,,,,,42,-0.030710173,-0.40403071,1,0,0,cont_buttonPractice_2,0,0,0,0,1,,,,,,,,,,,,,,,,,,,
,,6138c06bd7d7f2b7720e7a27,2022-09-08_12h08.03.673,CGTgamblingSpanTasks,2022.2.1,Win32,59.95203837,,,,,,,,,,,,,,,,,,,,,,,,,,,,,,,,,,,,,,,,,,,,,,,,,,,,,,,,,,,,,,,1,,,,,,,,,,,,3,937,73,2,37,,,,,,,,,,,,,,,,,,,,,,,,,,37,0.030710173,-0.40403071,1,0,0,cont_buttonPractice_2,0,1,1,1,1,,,,,,,,,,,,,,,,,,,
,,6138c06bd7d7f2b7720e7a27,2022-09-08_12h08.03.673,CGTgamblingSpanTasks,2022.2.1,Win32,59.95203837,,,,,,,,,,,,,,,,,,,,,,,,,,,,,,,,,,,,,,,,,,,,,,,,,,,,,,,,,,,,,,,,,,,,,,,,,,,,,,,,,,,,,,,,,,,,,,,,,,,,,,,,,,,,,,,,,,,,,return,3.037,,,,,,,,,,,,,,,,,
,,6138c06bd7d7f2b7720e7a27,2022-09-08_12h08.03.673,CGTgamblingSpanTasks,2022.2.1,Win32,59.95203837,,,,,,,,,,,,,,,,,,,,,,,,,,,,,,,,,,,,,,,,,,,,,,,,,,,,,,,,,,,,,,,,,,,,,,,,,,,,,,,,,,"[3,1]",,,,,,,,,,,,,,,,,,,,,,,,,,,,,,,,,,,,,0,0,0,0,1,,,,,,,,,,,,
,,6138c06bd7d7f2b7720e7a27,2022-09-08_12h08.03.673,CGTgamblingSpanTasks,2022.2.1,Win32,59.95203837,,,,,,,,,,,,,,,,,,,,,,,,,,,,,,,,,,,,,,,,,,,,,,,,,,,,,,,,,,,,,,,,,,,,,,,,,,,,,,,,,,"[3,1]",,,,,,,,,,,,,,,,,,,,,,,,,,,,,,,,,,,,,1,0,1,0,1,,,,,,,,,,,,
,,6138c06bd7d7f2b7720e7a27,2022-09-08_12h08.03.673,CGTgamblingSpanTasks,2022.2.1,Win32,59.95203837,,,,,,,,,,,,,,,,,,,,,,,,,,,,,,,,,,,,,,,,,,,,,,,,,,,,,,,,,,,,,,,1,,,,,,,,,,,,,,,,,,,,,,,,,,,,,,,,,,,,,1,,,,,,,,,,,,,,,,,,,,,,,,13,0.080614203,-0.36756238,1,0,0,cont_buttonBS,0,0,0,0,1
,,6138c06bd7d7f2b7720e7a27,2022-09-08_12h08.03.673,CGTgamblingSpanTasks,2022.2.1,Win32,59.95203837,,,,,,,,,,,,,,,,,,,,,,,,,,,,,,,,,,,,,,,,,,,,,,,,,,,,,,,,,,,,,,,,,,,,,,,,,,,,,,,,,,"[8,3,5]",,,,,,,,,,,,,,,,,,,,,,,,,,,,,,,,,,,,,0,0,0,0,1,,,,,,,,,,,,
,,6138c06bd7d7f2b7720e7a27,2022-09-08_12h08.03.673,CGTgamblingSpanTasks,2022.2.1,Win32,59.95203837,,,,,,,,,,,,,,,,,,,,,,,,,,,,,,,,,,,,,,,,,,,,,,,,,,,,,,,,,,,,,,,,,,,,,,,,,,,,,,,,,,"[8,3,5]",,,,,,,,,,,,,,,,,,,,,,,,,,,,,,,,,,,,,1,0,1,0,1,,,,,,,,,,,,
