riskyGain,riskyLoss,alternative,isi,iti,loc,riskyoption1,riskyoption2,safeoption,ischecktrial,trials.thisRepN,trials.thisTrialN,trials.thisN,trials.thisIndex,staticRDM.thisRepN,staticRDM.thisTrialN,staticRDM.thisN,staticRDM.thisIndex,Instructions.started,inst1.started,inst1.keys,inst1.rt,startPract.started,startPracResp.started,startPracResp.keys,startPracResp.rt,circleLeft.started,circleRight.started,lineLeft.started,orText.started,lossTxt.started,gainTxt.started,safeTxt.started,vLeft.started,nRight.started,choice1.started,choice1.keys,choice1.rt,isiText.started,isiText.stopped,noRespTxt.started,ocGamble.started,ocSafe.started,outcomeText.started,hideGamble.started,noRespTxt.stopped,ocGamble.stopped,ocSafe.stopped,outcomeText.stopped,hideGamble.stopped,outcome,itiText.started,itiText.stopped,postPracText.started,postPractResp.started,postPractResp.keys,postPractResp.rt,circleLeftReal.started,circleRightReal.started,lineLeftReal.started,orTextReal.started,lossTxtReal.started,gainTxtReal.started,safeTxtReal.started,vLeftReal.started,nRightReal.started,realChoice.started,loc,realChoice.keys,isiTextReal.started,isiTextReal.stopped,noRespTxtReal.started,ocGambleReal.started,ocSafeReal.started,outcomeTextReal.started,hideGambleReal.started,noRespTxtReal.stopped,ocGambleReal.stopped,ocSafeReal.stopped,outcomeTextReal.stopped,hideGambleReal.stopped,outcomes,choices,itiTextReal.started,itiTextReal.stopped,realChoice.rt,participant,session,date,expName,psychopyVersion,frameRate,
,,,,,,,,,,,,,,,,,,6.952640194998821,8.957386487003532,return,54.30276634199981,,,,,,,,,,,,,,,,,,,,,,,,,,,,,,,,,,,,,,,,,,,,,,,,,,,,,,,,,,,,,,,,,,001,2022-07-31_18h35.42.606,CGTriskyDMtask,2022.2.1,None,
,,,,,,,,,,,,,,,,,,,,,,63.28858279200358,65.27684792500077,v,1.8462236010018387,,,,,,,,,,,,,,,,,,,,,,,,,,,,,,,,,,,,,,,,,,,,,,,,,,,,,,,,,,,,,,001,2022-07-31_18h35.42.606,CGTriskyDMtask,2022.2.1,None,
18.23,0,9.45,2,1,1,,,,,0,0,0,0,,,,,,,,,,,,,67.16417446199921,67.16417446199921,67.16417446199921,67.16417446199921,67.16417446199921,67.16417446199921,67.16417446199921,69.12729726699763,69.12729726699763,69.12729726699763,v,0.5245207619955181,71.12844476399914,73.12888600500446,73.12888600500446,73.12888600500446,73.12888600500446,73.12888600500446,73.12888600500446,74.11532538699976,74.11532538699976,74.11532538699976,74.11532538699976,74.11532538699976,0,74.11532538699976,75.11309030999837,,,,,,,,,,,,,,,1,,,,,,,,,,,,,,,,,,,,001,2022-07-31_18h35.42.606,CGTriskyDMtask,2022.2.1,None,
53.27,0,35.16,1,3,1,,,,,0,1,1,1,,,,,,,,,,,,,75.11309030999837,75.11309030999837,75.11309030999837,75.11309030999837,75.11309030999837,75.11309030999837,75.11309030999837,77.09570496800006,77.09570496800006,77.09570496800006,n,0.340347107994603,79.11316647400236,80.10478163899825,80.10478163899825,80.10478163899825,80.10478163899825,80.10478163899825,80.10478163899825,,,,,,35.16,81.11531367099815,84.11012898499757,,,,,,,,,,,,,,,1,,,,,,,,,,,,,,,,,,,,001,2022-07-31_18h35.42.606,CGTriskyDMtask,2022.2.1,None,
8.27,0,1.15,1,2,2,,,,,0,2,2,2,,,,,,,,,,,,,84.11012898499757,84.11012898499757,84.11012898499757,84.11012898499757,84.11012898499757,84.11012898499757,84.11012898499757,86.10031895700376,86.10031895700376,86.10031895700376,n,0.4796573389976402,88.08669077900413,89.0832422070016,89.0832422070016,89.0832422070016,89.0832422070016,89.0832422070016,89.0832422070016,90.07032413200068,90.07032413200068,90.07032413200068,90.07032413200068,90.07032413200068,0,90.07032413200068,92.08027052900434,,,,,,,,,,,,,,,2,,,,,,,,,,,,,,,,,,,,001,2022-07-31_18h35.42.606,CGTriskyDMtask,2022.2.1,None,
45.88,0,40.41,3,1,1,,,,,0,3,3,3,,,,,,,,,,,,,92.08027052900434,92.08027052900434,92.08027052900434,92.08027052900434,92.08027052900434,92.08027052900434,92.08027052900434,94.05811128300411,94.05811128300411,94.05811128300411,n,0.8095971789953182,96.07021913800418,99.06137463100458,99.06137463100458,99.06137463100458,99.06137463100458,99.06137463100458,99.06137463100458,,,,,,40.41,100.06966998200369,101.07167799799936,,,,,,,,,,,,,,,1,,,,,,,,,,,,,,,,,,,,001,2022-07-31_18h35.42.606,CGTriskyDMtask,2022.2.1,None,
21.56,0,11.96,1,1,2,,,,,0,4,4,4,,,,,,,,,,,,,101.07167799799936,101.07167799799936,101.07167799799936,101.07167799799936,101.07167799799936,101.07167799799936,101.07167799799936,103.04507098400063,103.04507098400063,103.04507098400063,n,0.34238420499605127,105.0416355960042,106.05690833400149,106.05690833400149,106.05690833400149,106.05690833400149,106.05690833400149,106.05690833400149,107.05710319200443,107.05710319200443,107.05710319200443,107.05710319200443,107.05710319200443,21.56,107.05710319200443,108.04380058300012,,,,,,,,,,,,,,,2,,,,,,,,,,,,,,,,,,,,001,2022-07-31_18h35.42.606,CGTriskyDMtask,2022.2.1,None,
,,,,,,,,,,,,,,,,,,,,,,,,,,,,,,,,,,,,,,,,,,,,,,,,,,,,,108.04380058300012,108.04380058300012,v,35.99245384799724,,,,,,,,,,,,,,,,,,,,,,,,,,,,,,,001,2022-07-31_18h35.42.606,CGTriskyDMtask,2022.2.1,None,
,,,,,1,19.28,0.0,8.36,0,,,,,0,0,0,13,,,,,,,,,,,,,,,,,,,,,,,,,,,,,,,,,,,,,,,,144.0595815150009,144.0595815150009,144.0595815150009,144.0595815150009,144.0595815150009,144.0595815150009,144.0595815150009,146.0534085449981,146.0534085449981,146.0534085449981,1,None,148.052370960002,149.05305969500478,149.05305969500478,149.05305969500478,149.05305969500478,149.05305969500478,149.05305969500478,150.04007836500386,150.04007836500386,150.04007836500386,150.04007836500386,150.04007836500386,nan,nan,150.04007836500386,151.05510087300354,,,001,2022-07-31_18h35.42.606,CGTriskyDMtask,2022.2.1,None,
,,,,,1,16.6,0.0,9.7,0,,,,,0,1,1,27,,,,,,,,,,,,,,,,,,,,,,,,,,,,,,,,,,,,,,,,151.05510087300354,151.05510087300354,151.05510087300354,151.05510087300354,151.05510087300354,151.05510087300354,151.05510087300354,153.0284530200006,153.0284530200006,153.0284530200006,1,v,155.02486146199954,156.04000521200214,156.04000521200214,156.04000521200214,156.04000521200214,156.04000521200214,156.04000521200214,157.02637672499986,157.02637672499986,157.02637672499986,157.02637672499986,157.02637672499986,0.0,1,157.02637672499986,158.03534654599935,0.32742780599801335,,001,2022-07-31_18h35.42.606,CGTriskyDMtask,2022.2.1,None,
,,,,,1,14.26,0.0,0.0,1,,,,,0,2,2,41,,,,,,,,,,,,,,,,,,,,,,,,,,,,,,,,,,,,,,,,158.03534654599935,158.03534654599935,158.03534654599935,158.03534654599935,158.03534654599935,158.03534654599935,158.03534654599935,160.013394693,160.013394693,160.013394693,1,v,162.0251213090014,163.02450173700345,163.02450173700345,163.02450173700345,163.02450173700345,163.02450173700345,163.02450173700345,164.0255701970018,164.0255701970018,164.0255701970018,164.0255701970018,164.0255701970018,14.26,1,164.0255701970018,165.02023432200076,0.2624849769999855,,001,2022-07-31_18h35.42.606,CGTriskyDMtask,2022.2.1,None,
,,,,,2,0.0,0.0,3.13,1,,,,,0,3,3,47,,,,,,,,,,,,,,,,,,,,,,,,,,,,,,,,,,,,,,,,165.02023432200076,165.02023432200076,165.02023432200076,165.02023432200076,165.02023432200076,165.02023432200076,165.02023432200076,167.010436124001,167.010436124001,167.010436124001,2,v,168.99642513800063,169.99313989499933,169.99313989499933,169.99313989499933,169.99313989499933,169.99313989499933,169.99313989499933,170.99499474900222,170.99499474900222,170.99499474900222,170.99499474900222,170.99499474900222,3.13,0,170.99499474900222,171.99025021099806,0.3693120289972285,,001,2022-07-31_18h35.42.606,CGTriskyDMtask,2022.2.1,None,
,,,,,2,18.33,0.0,8.84,0,,,,,0,4,4,17,,,,,,,,,,,,,,,,,,,,,,,,,,,,,,,,,,,,,,,,171.99025021099806,171.99025021099806,171.99025021099806,171.99025021099806,171.99025021099806,171.99025021099806,171.99025021099806,173.9685627910003,173.9685627910003,173.9685627910003,2,n,175.9800347240016,176.9801213259998,176.9801213259998,176.9801213259998,176.9801213259998,176.9801213259998,176.9801213259998,177.9793846149987,177.9793846149987,177.9793846149987,177.9793846149987,177.9793846149987,18.33,1,177.9793846149987,178.98066479500267,0.2991613279955345,,001,2022-07-31_18h35.42.606,CGTriskyDMtask,2022.2.1,None,
,,,,,2,10.35,0.0,0.0,1,,,,,0,5,5,40,,,,,,,,,,,,,,,,,,,,,,,,,,,,,,,,,,,,,,,,178.98066479500267,178.98066479500267,178.98066479500267,178.98066479500267,178.98066479500267,178.98066479500267,178.98066479500267,180.96517100900383,180.96517100900383,180.96517100900383,2,n,182.96555170200008,183.96445928700268,183.96445928700268,183.96445928700268,183.96445928700268,183.96445928700268,183.96445928700268,184.96465973200247,184.96465973200247,184.96465973200247,184.96465973200247,184.96465973200247,10.35,1,184.96465973200247,185.96662404900417,0.31041301199729787,,001,2022-07-31_18h35.42.606,CGTriskyDMtask,2022.2.1,None,
,,,,,2,16.0,0.0,4.0,0,,,,,0,6,6,4,,,,,,,,,,,,,,,,,,,,,,,,,,,,,,,,,,,,,,,,185.96662404900417,185.96662404900417,185.96662404900417,185.96662404900417,185.96662404900417,185.96662404900417,185.96662404900417,187.94037005800055,187.94037005800055,187.94037005800055,2,n,189.93632070400054,190.95134676300222,190.95134676300222,190.95134676300222,190.95134676300222,190.95134676300222,190.95134676300222,191.95075050400192,191.95075050400192,191.95075050400192,191.95075050400192,191.95075050400192,16.0,1,191.95075050400192,192.9473888240027,0.3106426809972618,,001,2022-07-31_18h35.42.606,CGTriskyDMtask,2022.2.1,None,
,,,,,2,15.47,0.0,10.27,0,,,,,0,7,7,35,,,,,,,,,,,,,,,,,,,,,,,,,,,,,,,,,,,,,,,,192.9473888240027,192.9473888240027,192.9473888240027,192.9473888240027,192.9473888240027,192.9473888240027,192.9473888240027,194.92512972799886,194.92512972799886,194.92512972799886,2,n,196.93660437699873,197.9281425320005,197.9281425320005,197.9281425320005,197.9281425320005,197.9281425320005,197.9281425320005,198.92335164100223,198.92335164100223,198.92335164100223,198.92335164100223,198.92335164100223,0.0,1,198.92335164100223,199.91917123799794,0.28698484899359755,,001,2022-07-31_18h35.42.606,CGTriskyDMtask,2022.2.1,None,
,,,,,2,10.68,0.0,10.68,1,,,,,0,8,8,48,,,,,,,,,,,,,,,,,,,,,,,,,,,,,,,,,,,,,,,,199.91917123799794,199.91917123799794,199.91917123799794,199.91917123799794,199.91917123799794,199.91917123799794,199.91917123799794,201.92179746700276,201.92179746700276,201.92179746700276,2,v,203.90443974100344,204.89676829100063,204.89676829100063,204.89676829100063,204.89676829100063,204.89676829100063,204.89676829100063,,,,,,10.68,0,205.90655555500416,206.90669320899906,0.2733667849970516,,001,2022-07-31_18h35.42.606,CGTriskyDMtask,2022.2.1,None,
,,,,,2,14.72,0.0,4.64,0,,,,,0,9,9,6,,,,,,,,,,,,,,,,,,,,,,,,,,,,,,,,,,,,,,,,206.90669320899906,206.90669320899906,206.90669320899906,206.90669320899906,206.90669320899906,206.90669320899906,206.90669320899906,208.89038562700443,208.89038562700443,208.89038562700443,2,n,210.8915229990016,211.88222734400188,211.88222734400188,211.88222734400188,211.88222734400188,211.88222734400188,211.88222734400188,,,,,,0.0,1,212.87808293600392,213.87413961400307,0.44925209699431434,,001,2022-07-31_18h35.42.606,CGTriskyDMtask,2022.2.1,None,
,,,,,1,13.94,0.0,5.03,0,,,,,0,10,10,8,,,,,,,,,,,,,,,,,,,,,,,,,,,,,,,,,,,,,,,,213.87413961400307,213.87413961400307,213.87413961400307,213.87413961400307,213.87413961400307,213.87413961400307,213.87413961400307,215.87652019300003,215.87652019300003,215.87652019300003,1,v,217.85940378899977,218.8596501619977,218.8596501619977,218.8596501619977,218.8596501619977,218.8596501619977,218.8596501619977,219.84687686800316,219.84687686800316,219.84687686800316,219.84687686800316,219.84687686800316,0.0,1,219.84687686800316,220.86151110200444,0.31128921599156456,,001,2022-07-31_18h35.42.606,CGTriskyDMtask,2022.2.1,None,
,,,,,1,28.21,0.0,3.89,0,,,,,0,11,11,1,,,,,,,,,,,,,,,,,,,,,,,,,,,,,,,,,,,,,,,,220.86151110200444,220.86151110200444,220.86151110200444,220.86151110200444,220.86151110200444,220.86151110200444,220.86151110200444,222.84560200000124,222.84560200000124,222.84560200000124,1,v,224.83132346600178,225.84633053400466,225.84633053400466,225.84633053400466,225.84633053400466,225.84633053400466,225.84633053400466,226.84578652300115,226.84578652300115,226.84578652300115,226.84578652300115,226.84578652300115,28.21,1,226.84578652300115,227.84726718899765,0.25407544399786275,,001,2022-07-31_18h35.42.606,CGTriskyDMtask,2022.2.1,None,
,,,,,1,10.24,0.0,6.88,0,,,,,0,12,12,36,,,,,,,,,,,,,,,,,,,,,,,,,,,,,,,,,,,,,,,,227.84726718899765,227.84726718899765,227.84726718899765,227.84726718899765,227.84726718899765,227.84726718899765,227.84726718899765,229.8305177900038,229.8305177900038,229.8305177900038,1,v,231.8314598750003,232.83179783200467,232.83179783200467,232.83179783200467,232.83179783200467,232.83179783200467,232.83179783200467,233.83174791100464,233.83174791100464,233.83174791100464,233.83174791100464,233.83174791100464,10.24,1,233.83174791100464,234.83205085300142,0.46858773099665996,,001,2022-07-31_18h35.42.606,CGTriskyDMtask,2022.2.1,None,
,,,,,1,10.95,0.0,6.53,0,,,,,0,13,13,28,,,,,,,,,,,,,,,,,,,,,,,,,,,,,,,,,,,,,,,,234.83205085300142,234.83205085300142,234.83205085300142,234.83205085300142,234.83205085300142,234.83205085300142,234.83205085300142,236.81664849400113,236.81664849400113,236.81664849400113,1,v,238.81697585700022,239.81717817499884,239.81717817499884,239.81717817499884,239.81717817499884,239.81717817499884,239.81717817499884,,,,,,10.95,1,240.81818214800296,241.81820758100366,0.31511053100257413,,001,2022-07-31_18h35.42.606,CGTriskyDMtask,2022.2.1,None,
,,,,,1,16.11,6.99,6.99,1,,,,,0,14,14,43,,,,,,,,,,,,,,,,,,,,,,,,,,,,,,,,,,,,,,,,241.81820758100366,241.81820758100366,241.81820758100366,241.81820758100366,241.81820758100366,241.81820758100366,241.81820758100366,243.80198937800014,243.80198937800014,243.80198937800014,1,n,245.8031898640038,246.80327066600148,246.80327066600148,246.80327066600148,246.80327066600148,246.80327066600148,246.80327066600148,247.80343556799926,247.80343556799926,247.80343556799926,247.80343556799926,247.80343556799926,6.99,0,247.80343556799926,248.80361752599856,0.46518543999263784,,001,2022-07-31_18h35.42.606,CGTriskyDMtask,2022.2.1,None,
,,,,,2,22.97,0.0,6.51,0,,,,,0,15,15,5,,,,,,,,,,,,,,,,,,,,,,,,,,,,,,,,,,,,,,,,248.80361752599856,248.80361752599856,248.80361752599856,248.80361752599856,248.80361752599856,248.80361752599856,248.80361752599856,250.78810158499982,250.78810158499982,250.78810158499982,2,n,252.78853018300288,253.7886654610047,253.7886654610047,253.7886654610047,253.7886654610047,253.7886654610047,253.7886654610047,254.7887872690044,254.7887872690044,254.7887872690044,254.7887872690044,254.7887872690044,0.0,1,254.7887872690044,255.78978699399886,0.2791382369978237,,001,2022-07-31_18h35.42.606,CGTriskyDMtask,2022.2.1,None,
,,,,,2,17.94,0.0,9.03,0,,,,,0,16,16,19,,,,,,,,,,,,,,,,,,,,,,,,,,,,,,,,,,,,,,,,255.78978699399886,255.78978699399886,255.78978699399886,255.78978699399886,255.78978699399886,255.78978699399886,255.78978699399886,257.7733025600028,257.7733025600028,257.7733025600028,2,n,259.75953684499837,260.77491046999785,260.77491046999785,260.77491046999785,260.77491046999785,260.77491046999785,260.77491046999785,261.77489856700413,261.77489856700413,261.77489856700413,261.77489856700413,261.77489856700413,17.94,1,261.77489856700413,262.76995567900303,0.2622390469914535,,001,2022-07-31_18h35.42.606,CGTriskyDMtask,2022.2.1,None,
,,,,,2,17.0,0.0,9.5,0,,,,,0,17,17,25,,,,,,,,,,,,,,,,,,,,,,,,,,,,,,,,,,,,,,,,262.76995567900303,262.76995567900303,262.76995567900303,262.76995567900303,262.76995567900303,262.76995567900303,262.76995567900303,264.7482794660027,264.7482794660027,264.7482794660027,2,n,266.75984856400464,267.76037301900215,267.76037301900215,267.76037301900215,267.76037301900215,267.76037301900215,267.76037301900215,268.75937108499784,268.75937108499784,268.75937108499784,268.75937108499784,268.75937108499784,17.0,1,268.75937108499784,269.75561738599936,0.23959702199499588,,001,2022-07-31_18h35.42.606,CGTriskyDMtask,2022.2.1,None,
,,,,,1,12.08,0.0,5.96,0,,,,,0,18,18,18,,,,,,,,,,,,,,,,,,,,,,,,,,,,,,,,,,,,,,,,269.75561738599936,269.75561738599936,269.75561738599936,269.75561738599936,269.75561738599936,269.75561738599936,269.75561738599936,271.7345924530018,271.7345924530018,271.7345924530018,1,v,273.73122996799793,274.72789141700196,274.72789141700196,274.72789141700196,274.72789141700196,274.72789141700196,274.72789141700196,275.72969129800185,275.72969129800185,275.72969129800185,275.72969129800185,275.72969129800185,0.0,1,275.72969129800185,276.7253077310015,0.2213073179955245,,001,2022-07-31_18h35.42.606,CGTriskyDMtask,2022.2.1,None,
,,,,,2,19.86,0.0,8.07,0,,,,,0,19,19,11,,,,,,,,,,,,,,,,,,,,,,,,,,,,,,,,,,,,,,,,276.7253077310015,276.7253077310015,276.7253077310015,276.7253077310015,276.7253077310015,276.7253077310015,276.7253077310015,278.71288359900063,278.71288359900063,278.71288359900063,2,n,280.71477016399876,281.71565667899995,281.71565667899995,281.71565667899995,281.71565667899995,281.71565667899995,281.71565667899995,282.7151565250024,282.7151565250024,282.7151565250024,282.7151565250024,282.7151565250024,19.86,1,282.7151565250024,283.7140921879982,0.38686199699441204,,001,2022-07-31_18h35.42.606,CGTriskyDMtask,2022.2.1,None,
,,,,,2,18.77,0.0,8.61,0,,,,,0,20,20,15,,,,,,,,,,,,,,,,,,,,,,,,,,,,,,,,,,,,,,,,283.7140921879982,283.7140921879982,283.7140921879982,283.7140921879982,283.7140921879982,283.7140921879982,283.7140921879982,285.70035168100003,285.70035168100003,285.70035168100003,2,n,287.68612000600115,288.68268926100427,288.68268926100427,288.68268926100427,288.68268926100427,288.68268926100427,288.68268926100427,289.6695394220005,289.6695394220005,289.6695394220005,289.6695394220005,289.6695394220005,18.77,1,289.6695394220005,290.68478394200065,0.3275233599997591,,001,2022-07-31_18h35.42.606,CGTriskyDMtask,2022.2.1,None,
,,,,,2,17.59,0.0,9.2,0,,,,,0,21,21,21,,,,,,,,,,,,,,,,,,,,,,,,,,,,,,,,,,,,,,,,290.68478394200065,290.68478394200065,290.68478394200065,290.68478394200065,290.68478394200065,290.68478394200065,290.68478394200065,292.6687771709985,292.6687771709985,292.6687771709985,2,n,294.65460663400154,295.6537807959976,295.6537807959976,295.6537807959976,295.6537807959976,295.6537807959976,295.6537807959976,296.65312537400314,296.65312537400314,296.65312537400314,296.65312537400314,296.65312537400314,17.59,1,296.65312537400314,297.6543108140031,0.29439618199830875,,001,2022-07-31_18h35.42.606,CGTriskyDMtask,2022.2.1,None,
,,,,,2,10.55,0.0,6.73,0,,,,,0,22,22,32,,,,,,,,,,,,,,,,,,,,,,,,,,,,,,,,,,,,,,,,297.6543108140031,297.6543108140031,297.6543108140031,297.6543108140031,297.6543108140031,297.6543108140031,297.6543108140031,299.6357189170012,299.6357189170012,299.6357189170012,2,n,301.639079665998,302.6387384960035,302.6387384960035,302.6387384960035,302.6387384960035,302.6387384960035,302.6387384960035,,,,,,0.0,1,303.6375171260006,304.6341601430031,0.43154497299110517,,001,2022-07-31_18h35.42.606,CGTriskyDMtask,2022.2.1,None,
,,,,,2,15.96,0.0,10.02,0,,,,,0,23,23,31,,,,,,,,,,,,,,,,,,,,,,,,,,,,,,,,,,,,,,,,304.6341601430031,304.6341601430031,304.6341601430031,304.6341601430031,304.6341601430031,304.6341601430031,304.6341601430031,306.6231903750013,306.6231903750013,306.6231903750013,2,n,308.6226100940039,309.61398847400415,309.61398847400415,309.61398847400415,309.61398847400415,309.61398847400415,309.61398847400415,,,,,,0.0,1,310.6245279799987,311.62555778700334,1.892893213997013,,001,2022-07-31_18h35.42.606,CGTriskyDMtask,2022.2.1,None,
,,,,,1,10.12,0.0,6.94,0,,,,,0,24,24,38,,,,,,,,,,,,,,,,,,,,,,,,,,,,,,,,,,,,,,,,311.62555778700334,311.62555778700334,311.62555778700334,311.62555778700334,311.62555778700334,311.62555778700334,311.62555778700334,313.60695678600314,313.60695678600314,313.60695678600314,1,v,315.61017871100194,316.60978009000246,316.60978009000246,316.60978009000246,316.60978009000246,316.60978009000246,316.60978009000246,317.5958493680009,317.5958493680009,317.5958493680009,317.5958493680009,317.5958493680009,10.12,1,317.5958493680009,318.5924149850034,0.26923673399869585,,001,2022-07-31_18h35.42.606,CGTriskyDMtask,2022.2.1,None,
,,,,,2,11.43,0.0,6.29,0,,,,,0,25,25,24,,,,,,,,,,,,,,,,,,,,,,,,,,,,,,,,,,,,,,,,318.5924149850034,318.5924149850034,318.5924149850034,318.5924149850034,318.5924149850034,318.5924149850034,318.5924149850034,320.5782401770048,320.5782401770048,320.5782401770048,2,n,322.5773863459981,323.5687139040019,323.5687139040019,323.5687139040019,323.5687139040019,323.5687139040019,323.5687139040019,,,,,,0.0,1,324.5775793810026,325.5801174299995,0.32076814500032924,,001,2022-07-31_18h35.42.606,CGTriskyDMtask,2022.2.1,None,
,,,,,2,11.2,0.0,6.4,0,,,,,0,26,26,26,,,,,,,,,,,,,,,,,,,,,,,,,,,,,,,,,,,,,,,,325.5801174299995,325.5801174299995,325.5801174299995,325.5801174299995,325.5801174299995,325.5801174299995,325.5801174299995,327.56282824699883,327.56282824699883,327.56282824699883,2,n,329.56259280000086,330.56455489200016,330.56455489200016,330.56455489200016,330.56455489200016,330.56455489200016,330.56455489200016,,,,,,11.2,1,331.5652535660047,332.56366237600014,0.27293988799647195,,001,2022-07-31_18h35.42.606,CGTriskyDMtask,2022.2.1,None,
,,,,,2,12.36,0.0,5.82,0,,,,,0,27,27,16,,,,,,,,,,,,,,,,,,,,,,,,,,,,,,,,,,,,,,,,332.56366237600014,332.56366237600014,332.56366237600014,332.56366237600014,332.56366237600014,332.56366237600014,332.56366237600014,334.54725475099985,334.54725475099985,334.54725475099985,2,n,336.56658138900093,337.56575809800415,337.56575809800415,337.56575809800415,337.56575809800415,337.56575809800415,337.56575809800415,338.55321085700416,338.55321085700416,338.55321085700416,338.55321085700416,338.55321085700416,0.0,1,338.55321085700416,339.54913501300325,0.27292215999477776,,001,2022-07-31_18h35.42.606,CGTriskyDMtask,2022.2.1,None,
,,,,,2,20.53,0.0,7.73,0,,,,,0,28,28,9,,,,,,,,,,,,,,,,,,,,,,,,,,,,,,,,,,,,,,,,339.54913501300325,339.54913501300325,339.54913501300325,339.54913501300325,339.54913501300325,339.54913501300325,339.54913501300325,341.5512639450026,341.5512639450026,341.5512639450026,2,n,343.53808873399976,344.5341625470028,344.5341625470028,344.5341625470028,344.5341625470028,344.5341625470028,344.5341625470028,345.5362344649984,345.5362344649984,345.5362344649984,345.5362344649984,345.5362344649984,20.53,1,345.5362344649984,346.536375251002,0.2846840949932812,,001,2022-07-31_18h35.42.606,CGTriskyDMtask,2022.2.1,None,
,,,,,1,20.03,0.0,1.99,0,,,,,0,29,29,0,,,,,,,,,,,,,,,,,,,,,,,,,,,,,,,,,,,,,,,,346.536375251002,346.536375251002,346.536375251002,346.536375251002,346.536375251002,346.536375251002,346.536375251002,348.5101062410031,348.5101062410031,348.5101062410031,1,v,350.5210770480044,351.52121814899874,351.52121814899874,351.52121814899874,351.52121814899874,351.52121814899874,351.52121814899874,352.52073809300055,352.52073809300055,352.52073809300055,352.52073809300055,352.52073809300055,0.0,1,352.52073809300055,353.5210670009983,0.20544619800057262,,001,2022-07-31_18h35.42.606,CGTriskyDMtask,2022.2.1,None,
,,,,,1,21.32,0.0,7.34,0,,,,,0,30,30,7,,,,,,,,,,,,,,,,,,,,,,,,,,,,,,,,,,,,,,,,353.5210670009983,353.5210670009983,353.5210670009983,353.5210670009983,353.5210670009983,353.5210670009983,353.5210670009983,355.5063295600048,355.5063295600048,355.5063295600048,1,v,357.5069375009989,358.5059243939977,358.5059243939977,358.5059243939977,358.5059243939977,358.5059243939977,358.5059243939977,359.49270313399757,359.49270313399757,359.49270313399757,359.49270313399757,359.49270313399757,0.0,1,359.49270313399757,360.50814030900074,0.0575450509932125,,001,2022-07-31_18h35.42.606,CGTriskyDMtask,2022.2.1,None,
,,,,,1,15.09,0.0,10.46,0,,,,,0,31,31,39,,,,,,,,,,,,,,,,,,,,,,,,,,,,,,,,,,,,,,,,360.50814030900074,360.50814030900074,360.50814030900074,360.50814030900074,360.50814030900074,360.50814030900074,360.50814030900074,362.4909545749979,362.4909545749979,362.4909545749979,1,v,364.47788430700166,365.49288612999953,365.49288612999953,365.49288612999953,365.49288612999953,365.49288612999953,365.49288612999953,366.49294015899795,366.49294015899795,366.49294015899795,366.49294015899795,366.49294015899795,15.09,1,366.49294015899795,367.48818858300365,0.2569916220018058,,001,2022-07-31_18h35.42.606,CGTriskyDMtask,2022.2.1,None,
,,,,,1,13.1,7.73,4.68,1,,,,,0,32,32,44,,,,,,,,,,,,,,,,,,,,,,,,,,,,,,,,,,,,,,,,367.48818858300365,367.48818858300365,367.48818858300365,367.48818858300365,367.48818858300365,367.48818858300365,367.48818858300365,369.4665145859981,369.4665145859981,369.4665145859981,1,v,371.47798618199886,372.4687709620048,372.4687709620048,372.4687709620048,372.4687709620048,372.4687709620048,372.4687709620048,373.46435382000345,373.46435382000345,373.46435382000345,373.46435382000345,373.46435382000345,7.73,1,373.46435382000345,374.4606446030011,0.6806326269943384,,001,2022-07-31_18h35.42.606,CGTriskyDMtask,2022.2.1,None,
,,,,,1,17.73,0.0,3.13,0,,,,,0,33,33,2,,,,,,,,,,,,,,,,,,,,,,,,,,,,,,,,,,,,,,,,374.4606446030011,374.4606446030011,374.4606446030011,374.4606446030011,374.4606446030011,374.4606446030011,374.4606446030011,376.46302906300116,376.46302906300116,376.46302906300116,1,v,378.44582634499966,379.4378823490042,379.4378823490042,379.4378823490042,379.4378823490042,379.4378823490042,379.4378823490042,,,,,,17.73,1,380.447711507004,381.447969285,0.3649688410005183,,001,2022-07-31_18h35.42.606,CGTriskyDMtask,2022.2.1,None,
,,,,,2,15.7,0.0,10.15,0,,,,,0,34,34,33,,,,,,,,,,,,,,,,,,,,,,,,,,,,,,,,,,,,,,,,381.447969285,381.447969285,381.447969285,381.447969285,381.447969285,381.447969285,381.447969285,383.43040086800465,383.43040086800465,383.43040086800465,2,v,385.4328481410048,386.43300454300334,386.43300454300334,386.43300454300334,386.43300454300334,386.43300454300334,386.43300454300334,387.43226171000424,387.43226171000424,387.43226171000424,387.43226171000424,387.43226171000424,10.15,0,387.43226171000424,388.42851975899976,0.3973655419977149,,001,2022-07-31_18h35.42.606,CGTriskyDMtask,2022.2.1,None,
,,,,,2,16.26,0.0,9.87,0,,,,,0,35,35,29,,,,,,,,,,,,,,,,,,,,,,,,,,,,,,,,,,,,,,,,388.42851975899976,388.42851975899976,388.42851975899976,388.42851975899976,388.42851975899976,388.42851975899976,388.42851975899976,390.4179727619994,390.4179727619994,390.4179727619994,2,n,392.4044246929989,393.40168551300303,393.40168551300303,393.40168551300303,393.40168551300303,393.40168551300303,393.40168551300303,394.4021993409988,394.4021993409988,394.4021993409988,394.4021993409988,394.4021993409988,0.0,1,394.4021993409988,395.4027709820002,0.7690582299910602,,001,2022-07-31_18h35.42.606,CGTriskyDMtask,2022.2.1,None,
,,,,,1,6.79,0.0,9.92,1,,,,,0,36,36,49,,,,,,,,,,,,,,,,,,,,,,,,,,,,,,,,,,,,,,,,395.4027709820002,395.4027709820002,395.4027709820002,395.4027709820002,395.4027709820002,395.4027709820002,395.4027709820002,397.3761756200038,397.3761756200038,397.3761756200038,1,n,399.37296345399955,400.3878814740019,400.3878814740019,400.3878814740019,400.3878814740019,400.3878814740019,400.3878814740019,,,,,,9.92,0,401.3890631070026,402.3875005500013,0.7235923289990751,,001,2022-07-31_18h35.42.606,CGTriskyDMtask,2022.2.1,None,
,,,,,1,25.2,0.0,5.4,0,,,,,0,37,37,3,,,,,,,,,,,,,,,,,,,,,,,,,,,,,,,,,,,,,,,,402.3875005500013,402.3875005500013,402.3875005500013,402.3875005500013,402.3875005500013,402.3875005500013,402.3875005500013,404.3704567750028,404.3704567750028,404.3704567750028,1,v,406.3898116429991,407.38977326799795,407.38977326799795,407.38977326799795,407.38977326799795,407.38977326799795,407.38977326799795,408.3762053320024,408.3762053320024,408.3762053320024,408.3762053320024,408.3762053320024,0.0,1,408.3762053320024,409.38934774600057,0.9293864689971088,,001,2022-07-31_18h35.42.606,CGTriskyDMtask,2022.2.1,None,
,,,,,1,13.04,0.0,5.48,0,,,,,0,38,38,12,,,,,,,,,,,,,,,,,,,,,,,,,,,,,,,,,,,,,,,,409.38934774600057,409.38934774600057,409.38934774600057,409.38934774600057,409.38934774600057,409.38934774600057,409.38934774600057,411.3747671279998,411.3747671279998,411.3747671279998,1,v,413.37529658999847,414.3742945980048,414.3742945980048,414.3742945980048,414.3742945980048,414.3742945980048,414.3742945980048,415.3760248410035,415.3760248410035,415.3760248410035,415.3760248410035,415.3760248410035,0.0,1,415.3760248410035,416.37645062799857,0.2610764519922668,,001,2022-07-31_18h35.42.606,CGTriskyDMtask,2022.2.1,None,
,,,,,2,0.0,0.0,7.55,1,,,,,0,39,39,45,,,,,,,,,,,,,,,,,,,,,,,,,,,,,,,,,,,,,,,,416.37645062799857,416.37645062799857,416.37645062799857,416.37645062799857,416.37645062799857,416.37645062799857,416.37645062799857,418.3587347290013,418.3587347290013,418.3587347290013,2,v,420.361044942998,421.3613549080037,421.3613549080037,421.3613549080037,421.3613549080037,421.3613549080037,421.3613549080037,422.3476036569991,422.3476036569991,422.3476036569991,422.3476036569991,422.3476036569991,7.55,0,422.3476036569991,423.34388816200226,0.4369631749941618,,001,2022-07-31_18h35.42.606,CGTriskyDMtask,2022.2.1,None,
,,,,,2,17.28,0.0,9.36,0,,,,,0,40,40,23,,,,,,,,,,,,,,,,,,,,,,,,,,,,,,,,,,,,,,,,423.34388816200226,423.34388816200226,423.34388816200226,423.34388816200226,423.34388816200226,423.34388816200226,423.34388816200226,425.34617502699984,425.34617502699984,425.34617502699984,2,n,427.3455937789986,428.34590463300265,428.34590463300265,428.34590463300265,428.34590463300265,428.34590463300265,428.34590463300265,429.33303551000427,429.33303551000427,429.33303551000427,429.33303551000427,429.33303551000427,17.28,1,429.33303551000427,430.3477683009987,0.27419156399264466,,001,2022-07-31_18h35.42.606,CGTriskyDMtask,2022.2.1,None,
,,,,,2,13.45,0.0,5.27,0,,,,,0,41,41,10,,,,,,,,,,,,,,,,,,,,,,,,,,,,,,,,,,,,,,,,430.3477683009987,430.3477683009987,430.3477683009987,430.3477683009987,430.3477683009987,430.3477683009987,430.3477683009987,432.33062645800237,432.33062645800237,432.33062645800237,2,n,434.3307363950007,435.3327753690028,435.3327753690028,435.3327753690028,435.3327753690028,435.3327753690028,435.3327753690028,436.3329007630018,436.3329007630018,436.3329007630018,436.3329007630018,436.3329007630018,0.0,1,436.3329007630018,437.3332283280033,0.32113430699973833,,001,2022-07-31_18h35.42.606,CGTriskyDMtask,2022.2.1,None,
,,,,,2,15.27,0.0,10.37,0,,,,,0,42,42,37,,,,,,,,,,,,,,,,,,,,,,,,,,,,,,,,,,,,,,,,437.3332283280033,437.3332283280033,437.3332283280033,437.3332283280033,437.3332283280033,437.3332283280033,437.3332283280033,439.31703997000295,439.31703997000295,439.31703997000295,2,n,441.3178809480014,442.3094284600011,442.3094284600011,442.3094284600011,442.3094284600011,442.3094284600011,442.3094284600011,443.30453094100085,443.30453094100085,443.30453094100085,443.30453094100085,443.30453094100085,15.27,1,443.30453094100085,444.3004411360016,0.2785882109965314,,001,2022-07-31_18h35.42.606,CGTriskyDMtask,2022.2.1,None,
,,,,,2,10.39,0.0,6.81,0,,,,,0,43,43,34,,,,,,,,,,,,,,,,,,,,,,,,,,,,,,,,,,,,,,,,444.3004411360016,444.3004411360016,444.3004411360016,444.3004411360016,444.3004411360016,444.3004411360016,444.3004411360016,446.3029765620013,446.3029765620013,446.3029765620013,2,n,448.2855863479999,449.28693880599894,449.28693880599894,449.28693880599894,449.28693880599894,449.28693880599894,449.28693880599894,,,,,,0.0,1,450.2878683009985,451.28803195000364,0.33270624899159884,,001,2022-07-31_18h35.42.606,CGTriskyDMtask,2022.2.1,None,
,,,,,1,0.0,0.0,10.25,1,,,,,0,44,44,46,,,,,,,,,,,,,,,,,,,,,,,,,,,,,,,,,,,,,,,,451.28803195000364,451.28803195000364,451.28803195000364,451.28803195000364,451.28803195000364,451.28803195000364,451.28803195000364,453.27074485200137,453.27074485200137,453.27074485200137,1,n,455.2726109659998,456.2730889300001,456.2730889300001,456.2730889300001,456.2730889300001,456.2730889300001,456.2730889300001,457.2733226140044,457.2733226140044,457.2733226140044,457.2733226140044,457.2733226140044,10.25,0,457.2733226140044,458.2684518410024,0.22918734299310017,,001,2022-07-31_18h35.42.606,CGTriskyDMtask,2022.2.1,None,
,,,,,2,12.68,0.0,5.66,0,,,,,0,45,45,14,,,,,,,,,,,,,,,,,,,,,,,,,,,,,,,,,,,,,,,,458.2684518410024,458.2684518410024,458.2684518410024,458.2684518410024,458.2684518410024,458.2684518410024,458.2684518410024,460.2578101140025,460.2578101140025,460.2578101140025,2,n,462.25798988399765,463.2493818380026,463.2493818380026,463.2493818380026,463.2493818380026,463.2493818380026,463.2493818380026,,,,,,12.68,1,464.2445541230045,465.24280301100225,0.2819607269921107,,001,2022-07-31_18h35.42.606,CGTriskyDMtask,2022.2.1,None,
,,,,,1,19.86,0.0,0.0,1,,,,,0,46,46,42,,,,,,,,,,,,,,,,,,,,,,,,,,,,,,,,,,,,,,,,465.24280301100225,465.24280301100225,465.24280301100225,465.24280301100225,465.24280301100225,465.24280301100225,465.24280301100225,467.22515729800216,467.22515729800216,467.22515729800216,1,v,469.227041954,470.2256977090001,470.2256977090001,470.2256977090001,470.2256977090001,470.2256977090001,470.2256977090001,471.22791543399944,471.22791543399944,471.22791543399944,471.22791543399944,471.22791543399944,19.86,1,471.22791543399944,472.2230000210038,0.2582789279986173,,001,2022-07-31_18h35.42.606,CGTriskyDMtask,2022.2.1,None,
,,,,,1,10.73,0.0,6.63,0,,,,,0,47,47,30,,,,,,,,,,,,,,,,,,,,,,,,,,,,,,,,,,,,,,,,472.2230000210038,472.2230000210038,472.2230000210038,472.2230000210038,472.2230000210038,472.2230000210038,472.2230000210038,474.20210612200026,474.20210612200026,474.20210612200026,1,v,476.21272232499905,477.2132574339994,477.2132574339994,477.2132574339994,477.2132574339994,477.2132574339994,477.2132574339994,478.1993056179999,478.1993056179999,478.1993056179999,478.1993056179999,478.1993056179999,10.73,1,478.1993056179999,479.1956344249993,0.8255281919919071,,001,2022-07-31_18h35.42.606,CGTriskyDMtask,2022.2.1,None,
,,,,,2,11.62,0.0,6.19,0,,,,,0,48,48,22,,,,,,,,,,,,,,,,,,,,,,,,,,,,,,,,,,,,,,,,479.1956344249993,479.1956344249993,479.1956344249993,479.1956344249993,479.1956344249993,479.1956344249993,479.1956344249993,481.19777091300057,481.19777091300057,481.19777091300057,2,n,483.18067800500285,484.1727726169993,484.1727726169993,484.1727726169993,484.1727726169993,484.1727726169993,484.1727726169993,485.1680481910007,485.1680481910007,485.1680481910007,485.1680481910007,485.1680481910007,0.0,1,485.1680481910007,486.1828460070028,0.8144017589947907,,001,2022-07-31_18h35.42.606,CGTriskyDMtask,2022.2.1,None,
,,,,,2,11.84,0.0,6.08,0,,,,,0,49,49,20,,,,,,,,,,,,,,,,,,,,,,,,,,,,,,,,,,,,,,,,486.1828460070028,486.1828460070028,486.1828460070028,486.1828460070028,486.1828460070028,486.1828460070028,486.1828460070028,488.15643649199774,488.15643649199774,488.15643649199774,2,n,490.1526536809979,491.16812890900474,491.16812890900474,491.16812890900474,491.16812890900474,491.16812890900474,491.16812890900474,492.1677223639999,492.1677223639999,492.1677223639999,492.1677223639999,492.1677223639999,11.84,1,492.1677223639999,,0.4080777560011484,,001,2022-07-31_18h35.42.606,CGTriskyDMtask,2022.2.1,None,
