riskyoption1,riskyoption2,safeoption,ischecktrial,choiceP,easy0difficult1,digitSpan,digits,digitsReverse,trials.thisRepN,trials.thisTrialN,trials.thisN,trials.thisIndex,staticRDM.thisRepN,staticRDM.thisTrialN,staticRDM.thisN,staticRDM.thisIndex,dynamicRDM.thisRepN,dynamicRDM.thisTrialN,dynamicRDM.thisN,dynamicRDM.thisIndex,TrialFSPractice.thisRepN,TrialFSPractice.thisTrialN,TrialFSPractice.thisN,TrialFSPractice.thisIndex,DigitLoopPractice.thisRepN,DigitLoopPractice.thisTrialN,DigitLoopPractice.thisN,DigitLoopPractice.thisIndex,Instructions.started,inst1.started,inst1.keys,inst1.rt,startPract.started,startPracResp.started,startPracResp.keys,startPracResp.rt,postPracText.started,postPractResp.started,postPractResp.keys,postPractResp.rt,circleLeftReal.started,circleRightReal.started,lineLeftReal.started,orTextReal.started,lossTxtReal.started,gainTxtReal.started,safeTxtReal.started,vLeftReal.started,nRightReal.started,realChoice.started,loc,realChoice.keys,realChoice.rt,isiTextReal.started,isiTextReal.stopped,noRespTxtReal.started,ocGambleReal.started,ocSafeReal.started,outcomeTextReal.started,hideGambleReal.started,outcomes,choices,itiTextReal.started,itiTextReal.stopped,dynamicChoiceSet.routineStartVal,showPart2fileName.started,moveAlong.started,dynamicChoiceSet.routineEndVal,bestRho.routineEndVal,bestMu.routineEndVal,moveAlong.keys,moveAlong.rt,noRespTxtReal.stopped,ocGambleReal.stopped,ocSafeReal.stopped,outcomeTextReal.stopped,hideGambleReal.stopped,breaktxt.started,cont_buttonBreak.started,BreakEndMouse.started,BreakEndMouse.x,BreakEndMouse.y,BreakEndMouse.leftButton,BreakEndMouse.midButton,BreakEndMouse.rightButton,BreakEndMouse.time,GenInsText.started,mouse_2.started,cont_buttonGEN.started,mouse_2.x,mouse_2.y,mouse_2.leftButton,mouse_2.midButton,mouse_2.rightButton,mouse_2.time,FSGenInsText.started,FSMouse.started,cont_buttonFSIns.started,FSMouse.x,FSMouse.y,FSMouse.leftButton,FSMouse.midButton,FSMouse.rightButton,FSMouse.time,fixation_2.started,pres_text_practice.started,fixation_2.stopped,pres_text_practice.stopped,recall_txtPractice.started,textboxPractice.started,cont_buttonPractice.started,mousePractice.started,textboxPractice.text,correct,mousePractice.x,mousePractice.y,mousePractice.leftButton,mousePractice.midButton,mousePractice.rightButton,mousePractice.clicked_name,feedbac_textPractice.started,feedbac_textPractice.stopped,text_2.started,text_2.stopped,participant,session,date,expName,psychopyVersion,frameRate,
,,,,,,,,,,,,,,,,,,,,,,,,,,,,,7.0151212319979095,9.019436082999164,return,2.3759030620021804,,,,,,,,,,,,,,,,,,,,,,,,,,,,,,,,,,,,,,,,,,,,,,,,,,,,,,,,,,,,,,,,,,,,,,,,,,,,,,,,,,,,,,,,,,,,,,001,2022-07-30_18h04.40.318,CGTriskyDMtask,2022.2.1,59.83503898596649,
,,,,,,,,,,,,,,,,,,,,,,,,,,,,,,,,,11.422897245000058,13.420910020999145,v,1.7980531949979195,,,,,,,,,,,,,,,,,,,,,,,,,,,,,,,,,,,,,,,,,,,,,,,,,,,,,,,,,,,,,,,,,,,,,,,,,,,,,,,,,,,,,,,,,,001,2022-07-30_18h04.40.318,CGTriskyDMtask,2022.2.1,59.83503898596649,
,,,,,,,,,,,,,,,,,,,,,,,,,,,,,,,,,,,,,15.237240343998565,15.237240343998565,v,1.022620449999522,,,,,,,,,,,,,,,,,,,,,,,,,,,,,,,,,,,,,,,,,,,,,,,,,,,,,,,,,,,,,,,,,,,,,,,,,,,,,,,,,,,,,,001,2022-07-30_18h04.40.318,CGTriskyDMtask,2022.2.1,59.83503898596649,
28.21,0.0,3.89,0,,,,,,,,,,0,0,0,1,,,,,,,,,,,,,,,,,,,,,,,,,16.305928605997906,16.305928605997906,16.305928605997906,16.305928605997906,16.305928605997906,16.305928605997906,16.305928605997906,18.27276076199996,18.27276076199996,18.27276076199996,1,v,0.4109565329999896,20.272000950997608,22.274267737997434,22.274267737997434,22.274267737997434,22.274267737997434,22.274267737997434,22.274267737997434,28.21,1,23.274819541999022,24.274886756000342,,,,,,,,,,,,,,,,,,,,,,,,,,,,,,,,,,,,,,,,,,,,,,,,,,,,,,,,,,,,,,001,2022-07-30_18h04.40.318,CGTriskyDMtask,2022.2.1,59.83503898596649,
17.73,0.0,3.13,0,,,,,,,,,,0,1,1,2,,,,,,,,,,,,,,,,,,,,,,,,,24.274886756000342,24.274886756000342,24.274886756000342,24.274886756000342,24.274886756000342,24.274886756000342,24.274886756000342,26.25880674399741,26.25880674399741,26.25880674399741,2,v,0.42519933699804824,28.25954701599767,30.250116962000902,30.250116962000902,30.250116962000902,30.250116962000902,30.250116962000902,30.250116962000902,3.13,0,31.260631329998432,32.26082416400095,,,,,,,,,,,,,,,,,,,,,,,,,,,,,,,,,,,,,,,,,,,,,,,,,,,,,,,,,,,,,,001,2022-07-30_18h04.40.318,CGTriskyDMtask,2022.2.1,59.83503898596649,
20.03,0.0,1.99,0,,,,,,,,,,0,2,2,0,,,,,,,,,,,,,,,,,,,,,,,,,32.26082416400095,32.26082416400095,32.26082416400095,32.26082416400095,32.26082416400095,32.26082416400095,32.26082416400095,34.234443737997935,34.234443737997935,34.234443737997935,1,v,0.4090094009989116,36.245736726999894,38.23669703899941,38.23669703899941,38.23669703899941,38.23669703899941,38.23669703899941,38.23669703899941,20.03,1,39.24557405399901,40.59265885700006,,,,,,,,,,,,,,,,,,,,,,,,,,,,,,,,,,,,,,,,,,,,,,,,,,,,,,,,,,,,,,001,2022-07-30_18h04.40.318,CGTriskyDMtask,2022.2.1,59.83503898596649,
,,,,,,,,,,,,,,,,,,,,,,,,,,,,,,,,,,,,,,,,,,,,,,,,,,,,,,,,,,,,,,,,,../choiceset/bespoke_choicesets/bespoke_choiceset_rhoInd009_muInd201.csv,40.59265885700006,41.23074871999779,../choiceset/bespoke_choicesets/bespoke_choiceset_rhoInd009_muInd201.csv,9,201,return,0.7656662379995396,,,,,,,,,,,,,,,,,,,,,,,,,,,,,,,,,,,,,,,,,,,,,,,,,,,,,,001,2022-07-30_18h04.40.318,CGTriskyDMtask,2022.2.1,59.83503898596649,
22.4043129424565,0,3.5150889729615296,,0.539668419779305,1,,,,,,,,,,,,0,0,0,0,,,,,,,,,,,,,,,,,,,,,42.02386368899897,42.02386368899897,42.02386368899897,42.02386368899897,42.02386368899897,42.02386368899897,42.02386368899897,43.996594200998516,43.996594200998516,43.996594200998516,1,v,0.32712551199801965,46.01478797500022,48.015977260998625,48.015977260998625,48.015977260998625,48.015977260998625,48.015977260998625,48.015977260998625,22.4043129424565,1,49.01592267099841,50.01607381699796,,,,,,,,,49.01592267099841,49.01592267099841,49.01592267099841,49.01592267099841,49.01592267099841,,,,,,,,,,,,,,,,,,,,,,,,,,,,,,,,,,,,,,,,,,,,,,,,,001,2022-07-30_18h04.40.318,CGTriskyDMtask,2022.2.1,59.83503898596649,
27.1090837410185,0,4.25883268463658,,0.534765241071733,1,,,,,,,,,,,,0,1,1,1,,,,,,,,,,,,,,,,,,,,,50.01607381699796,50.01607381699796,50.01607381699796,50.01607381699796,50.01607381699796,50.01607381699796,50.01607381699796,52.00078659399878,52.00078659399878,52.00078659399878,2,n,0.39409659399825614,54.00105261999852,56.00124213199888,56.00124213199888,56.00124213199888,56.00124213199888,56.00124213199888,56.00124213199888,27.1090837410185,1,57.00242884999898,58.002639218000695,,,,,,,,,,,,,,,,,,,,,,,,,,,,,,,,,,,,,,,,,,,,,,,,,,,,,,,,,,,,,,001,2022-07-30_18h04.40.318,CGTriskyDMtask,2022.2.1,59.83503898596649,
5.629161660769019,0,11.7962615603581,,2.5470732909591e-22,0,,,,,,,,,,,,0,2,2,2,,,,,,,,,,,,,,,,,,,,,58.002639218000695,58.002639218000695,58.002639218000695,58.002639218000695,58.002639218000695,58.002639218000695,58.002639218000695,59.98629957799858,59.98629957799858,59.98629957799858,1,v,0.3454916709997633,61.98740859700047,63.98781755299933,63.98781755299933,63.98781755299933,63.98781755299933,63.98781755299933,63.98781755299933,0,1,64.98774814900025,65.98850751099963,,,,,,,,,64.98774814900025,64.98774814900025,64.98774814900025,64.98774814900025,64.98774814900025,,,,,,,,,,,,,,,,,,,,,,,,,,,,,,,,,,,,,,,,,,,,,,,,,001,2022-07-30_18h04.40.318,CGTriskyDMtask,2022.2.1,59.83503898596649,
,,,,,,,,,,,,,,,,,,,,,,,,,,,,,,,,,,,,,,,,,,,,,,,,,,,,,,,,,,,,,,,,,,,,,,,,,,,,,,65.98850751099963,70.97317752500021,5.000586432997807,[0.04513888888888889],[-0.3940972222222222],[1],[0],[0],[0.7511578999983612],,,,,,,,,,,,,,,,,,,,,,,,,,,,,,,,,,,,,,,,001,2022-07-30_18h04.40.318,CGTriskyDMtask,2022.2.1,59.83503898596649,
,,,,,,,,,,,,,,,,,,,,,,,,,,,,,,,,,,,,,,,,,,,,,,,,,,,,,,,,,,,,,,,,,,,,,,,,,,,,,,,,,,,,,,,71.74055862800014,1.6171001334441826e-05,71.74055862800014,[0.046875],[-0.3940972222222222],[1],[0],[0],[0.6670269440000993],,,,,,,,,,,,,,,,,,,,,,,,,,,,,,,001,2022-07-30_18h04.40.318,CGTriskyDMtask,2022.2.1,59.83503898596649,
,,,,,,,,,,,,,,,,,,,,,,,,,,,,,,,,,,,,,,,,,,,,,,,,,,,,,,,,,,,,,,,,,,,,,,,,,,,,,,,,,,,,,,,,,,,,,,,,72.40768522399958,2.9775001166854054e-05,72.40768522399958,[0.046875],[-0.3940972222222222],[1],[0],[0],[0.7321091029989475],,,,,,,,,,,,,,,,,,,,,,001,2022-07-30_18h04.40.318,CGTriskyDMtask,2022.2.1,59.83503898596649,
,,,,,,3,342,243,,,,,,,,,,,,,0,0,0,0,0,0,0,0,,,,,,,,,,,,,,,,,,,,,,,,,,,,,,,,,,,,,,,,,,,,,,,,,,,,,,,,,,,,,,,,,,,,,,,,,,,,,73.14097078899795,74.1235321690001,74.12711632299761,75.12443931400048,,,,,,,,,,,,,,,,,,001,2022-07-30_18h04.40.318,CGTriskyDMtask,2022.2.1,59.83503898596649,
,,,,,,3,342,243,,,,,,,,,,,,,0,0,0,0,1,0,1,0,,,,,,,,,,,,,,,,,,,,,,,,,,,,,,,,,,,,,,,,,,,,,,,,,,,,,,,,,,,,,,,,,,,,,,,,,,,,,75.12443931400048,76.12368439299826,76.12368439299826,77.1256515770001,,,,,,,,,,,,,,,,,,001,2022-07-30_18h04.40.318,CGTriskyDMtask,2022.2.1,59.83503898596649,
,,,,,,3,342,243,,,,,,,,,,,,,0,0,0,0,2,0,2,0,,,,,,,,,,,,,,,,,,,,,,,,,,,,,,,,,,,,,,,,,,,,,,,,,,,,,,,,,,,,,,,,,,,,,,,,,,,,,77.1256515770001,78.1258408169997,78.1258408169997,79.12625067299814,,,,,,,,,,,,,,,,,,001,2022-07-30_18h04.40.318,CGTriskyDMtask,2022.2.1,59.83503898596649,
,,,,,,3,342,243,,,,,,,,,,,,,0,0,0,0,,,,,,,,,,,,,,,,,,,,,,,,,,,,,,,,,,,,,,,,,,,,,,,,,,,,,,,,,,,,,,,,,,,,,,,,,,,,,,,,,,,,,79.12625067299814,79.12625067299814,79.12625067299814,0.0011252229996898677,432,0,0.046875,-0.3940972222222222,1,0,0,cont_buttonPractice,81.82756277699809,82.8275558719979,,,,001,2022-07-30_18h04.40.318,CGTriskyDMtask,2022.2.1,59.83503898596649,
,,,,,,3,937,739,,,,,,,,,,,,,0,1,1,1,0,0,0,0,,,,,,,,,,,,,,,,,,,,,,,,,,,,,,,,,,,,,,,,,,,,,,,,,,,,,,,,,,,,,,,,,,,,,,,,,,,,,82.8275558719979,83.81113631799963,83.8278012640003,84.81117175599866,,,,,,,,,,,,,,,,,,001,2022-07-30_18h04.40.318,CGTriskyDMtask,2022.2.1,59.83503898596649,
,,,,,,3,937,739,,,,,,,,,,,,,0,1,1,1,1,0,1,0,,,,,,,,,,,,,,,,,,,,,,,,,,,,,,,,,,,,,,,,,,,,,,,,,,,,,,,,,,,,,,,,,,,,,,,,,,,,,84.81117175599866,85.82799595200049,85.81118545299978,,,,,,,,,,,,,,,,,,,001,2022-07-30_18h04.40.318,CGTriskyDMtask,2022.2.1,59.83503898596649,
,,,,,,3,937,739,,,,,,,,,,,,,0,1,1,1,2,0,2,0,,,,,,,,,,,,,,,,,,,,,,,,,,,,,,,,,,,,,,,,,,,,,,,,,,,,,,,,,,,,,,,,,,,,,,,,,,,,,86.82905862299958,87.81248195199805,87.82919541199954,88.81278560300052,,,,,,,,,,,,,,,,,,001,2022-07-30_18h04.40.318,CGTriskyDMtask,2022.2.1,59.83503898596649,
,,,,,,3,937,739,,,,,,,,,,,,,0,1,1,1,,,,,,,,,,,,,,,,,,,,,,,,,,,,,,,,,,,,,,,,,,,,,,,,,,,,,,,,,,,,,,,,,,,,,,,,,,,,,,,,,,,,,88.81278560300052,88.81278560300052,88.81278560300052,0.0006147029998828657,937,1,0.046875,-0.3940972222222222,1,0,0,cont_buttonPractice,91.33070036999925,92.33058795499892,,,,001,2022-07-30_18h04.40.318,CGTriskyDMtask,2022.2.1,59.83503898596649,
,,,,,,,,,,,,,,,,,,,,,,,,,,,,,,,,,,,,,,,,,,,,,,,,,,,,,,,,,,,,,,,,,,,,,,,,,,,,,,,,,,,,,,,,,,,,,,,,,,,,,,,,,,,,,,,,,,,,,,,,,,,92.33058795499892,,,,,,,,
