riskyoption1,riskyoption2,safeoption,ischecktrial,choiceP,easy0difficult1,digitSpan,digits,digitsReverse,trials.thisRepN,trials.thisTrialN,trials.thisN,trials.thisIndex,staticRDM.thisRepN,staticRDM.thisTrialN,staticRDM.thisN,staticRDM.thisIndex,dynamicRDM.thisRepN,dynamicRDM.thisTrialN,dynamicRDM.thisN,dynamicRDM.thisIndex,TrialFSPractice.thisRepN,TrialFSPractice.thisTrialN,TrialFSPractice.thisN,TrialFSPractice.thisIndex,DigitLoopPractice.thisRepN,DigitLoopPractice.thisTrialN,DigitLoopPractice.thisN,DigitLoopPractice.thisIndex,Instructions.started,inst1.started,inst1.keys,inst1.rt,startPract.started,startPracResp.started,startPracResp.keys,startPracResp.rt,postPracText.started,postPractResp.started,postPractResp.keys,postPractResp.rt,circleLeftReal.started,circleRightReal.started,lineLeftReal.started,orTextReal.started,lossTxtReal.started,gainTxtReal.started,safeTxtReal.started,vLeftReal.started,nRightReal.started,realChoice.started,loc,realChoice.keys,realChoice.rt,isiTextReal.started,isiTextReal.stopped,noRespTxtReal.started,ocGambleReal.started,ocSafeReal.started,outcomeTextReal.started,hideGambleReal.started,noRespTxtReal.stopped,ocGambleReal.stopped,ocSafeReal.stopped,outcomeTextReal.stopped,hideGambleReal.stopped,outcomes,choices,itiTextReal.started,itiTextReal.stopped,dynamicChoiceSet.routineStartVal,showPart2fileName.started,moveAlong.started,dynamicChoiceSet.routineEndVal,bestRho.routineEndVal,bestMu.routineEndVal,moveAlong.keys,moveAlong.rt,breaktxt.started,cont_buttonBreak.started,BreakEndMouse.started,BreakEndMouse.x,BreakEndMouse.y,BreakEndMouse.leftButton,BreakEndMouse.midButton,BreakEndMouse.rightButton,BreakEndMouse.time,GenInsText.started,mouse_2.started,cont_buttonGEN.started,mouse_2.x,mouse_2.y,mouse_2.leftButton,mouse_2.midButton,mouse_2.rightButton,mouse_2.time,FSGenInsText.started,FSMouse.started,cont_buttonFSIns.started,FSMouse.x,FSMouse.y,FSMouse.leftButton,FSMouse.midButton,FSMouse.rightButton,FSMouse.time,fixation_2.started,pres_text_practice.started,fixation_2.stopped,pres_text_practice.stopped,recall_txtPractice.started,textboxPractice.started,cont_buttonPractice.started,mousePractice.started,textboxPractice.text,correct,mousePractice.x,mousePractice.y,mousePractice.leftButton,mousePractice.midButton,mousePractice.rightButton,mousePractice.clicked_name,feedbac_textPractice.started,feedbac_textPractice.stopped,participant,session,date,expName,psychopyVersion,frameRate,
,,,,,,,,,,,,,,,,,,,,,,,,,,,,,6.565986109999358,8.562855883999873,return,10.14621080300276,,,,,,,,,,,,,,,,,,,,,,,,,,,,,,,,,,,,,,,,,,,,,,,,,,,,,,,,,,,,,,,,,,,,,,,,,,,,,,,,,,,,,,,,,,,,001,2022-07-30_17h50.18.662,CGTriskyDMtask,2022.2.1,60.76665250583384,
,,,,,,,,,,,,,,,,,,,,,,,,,,,,,,,,,18.732982371002436,20.716890037001576,v,0.344067261001328,,,,,,,,,,,,,,,,,,,,,,,,,,,,,,,,,,,,,,,,,,,,,,,,,,,,,,,,,,,,,,,,,,,,,,,,,,,,,,,,,,,,,,,,001,2022-07-30_17h50.18.662,CGTriskyDMtask,2022.2.1,60.76665250583384,
,,,,,,,,,,,,,,,,,,,,,,,,,,,,,,,,,,,,,21.08444850700107,21.08444850700107,v,1.6725439180008834,,,,,,,,,,,,,,,,,,,,,,,,,,,,,,,,,,,,,,,,,,,,,,,,,,,,,,,,,,,,,,,,,,,,,,,,,,,,,,,,,,,,001,2022-07-30_17h50.18.662,CGTriskyDMtask,2022.2.1,60.76665250583384,
20.03,0.0,1.99,0,,,,,,,,,,0,0,0,0,,,,,,,,,,,,,,,,,,,,,,,,,22.800795400002244,22.800795400002244,22.800795400002244,22.800795400002244,22.800795400002244,22.800795400002244,22.800795400002244,24.767608180001844,24.767608180001844,24.767608180001844,2,v,1.3817282910022186,26.76845253099964,28.769479397000396,28.769479397000396,28.769479397000396,28.769479397000396,28.769479397000396,28.769479397000396,29.769741145999433,29.769741145999433,29.769741145999433,29.769741145999433,29.769741145999433,1.99,0,29.769741145999433,30.768994490001205,,,,,,,,,,,,,,,,,,,,,,,,,,,,,,,,,,,,,,,,,,,,,,,,,,,,,,,001,2022-07-30_17h50.18.662,CGTriskyDMtask,2022.2.1,60.76665250583384,
17.73,0.0,3.13,0,,,,,,,,,,0,1,1,2,,,,,,,,,,,,,,,,,,,,,,,,,30.768994490001205,30.768994490001205,30.768994490001205,30.768994490001205,30.768994490001205,30.768994490001205,30.768994490001205,32.754491441002756,32.754491441002756,32.754491441002756,1,v,0.7860723320009129,34.74066326200045,36.73886961400058,36.73886961400058,36.73886961400058,36.73886961400058,36.73886961400058,36.73886961400058,37.739727495001716,37.739727495001716,37.739727495001716,37.739727495001716,37.739727495001716,17.73,1,37.739727495001716,38.73982118600179,,,,,,,,,,,,,,,,,,,,,,,,,,,,,,,,,,,,,,,,,,,,,,,,,,,,,,,001,2022-07-30_17h50.18.662,CGTriskyDMtask,2022.2.1,60.76665250583384,
28.21,0.0,3.89,0,,,,,,,,,,0,2,2,1,,,,,,,,,,,,,,,,,,,,,,,,,38.73982118600179,38.73982118600179,38.73982118600179,38.73982118600179,38.73982118600179,38.73982118600179,38.73982118600179,40.72240621099991,40.72240621099991,40.72240621099991,1,v,0.4020782580009836,42.72441365600025,44.724791945001925,44.724791945001925,44.724791945001925,44.724791945001925,44.724791945001925,44.724791945001925,45.710709750001115,45.710709750001115,45.710709750001115,45.710709750001115,45.710709750001115,28.21,1,45.710709750001115,47.058598076000635,,,,,,,,,,,,,,,,,,,,,,,,,,,,,,,,,,,,,,,,,,,,,,,,,,,,,,,001,2022-07-30_17h50.18.662,CGTriskyDMtask,2022.2.1,60.76665250583384,
,,,,,,,,,,,,,,,,,,,,,,,,,,,,,,,,,,,,,,,,,,,,,,,,,,,,,,,,,,,,,,,,,,,,,,../choiceset/bespoke_choicesets/bespoke_choiceset_rhoInd200_muInd001.csv,47.058598076000635,47.709405069999775,../choiceset/bespoke_choicesets/bespoke_choiceset_rhoInd200_muInd001.csv,200,1,return,6.27950610300104,,,,,,,,,,,,,,,,,,,,,,,,,,,,,,,,,,,,,,,,,,,,,,,001,2022-07-30_17h50.18.662,CGTriskyDMtask,2022.2.1,60.76665250583384,
11.4432723867591,0,8.31689882555511,,0.50775268934198,1,,,,,,,,,,,,0,0,0,0,,,,,,,,,,,,,,,,,,,,,54.01753605400154,54.01753605400154,54.01753605400154,54.01753605400154,54.01753605400154,54.01753605400154,54.01753605400154,55.99370494899995,55.99370494899995,55.99370494899995,2,v,0.5952840889985964,57.99612578500091,59.99569354800042,59.99569354800042,59.99569354800042,59.99569354800042,59.99569354800042,59.99569354800042,60.982697069001006,60.982697069001006,60.982697069001006,60.982697069001006,60.982697069001006,8.31689882555511,0,60.982697069001006,61.979038112000126,,,,,,,,,,,,,,,,,,,,,,,,,,,,,,,,,,,,,,,,,,,,,,,,,,,,,,,001,2022-07-30_17h50.18.662,CGTriskyDMtask,2022.2.1,60.76665250583384,
28.254506971011896,0,5.04147694184212,,0.9658457848363492,0,,,,,,,,,,,,0,1,1,1,,,,,,,,,,,,,,,,,,,,,61.979038112000126,61.979038112000126,61.979038112000126,61.979038112000126,61.979038112000126,61.979038112000126,61.979038112000126,63.98150786900078,63.98150786900078,63.98150786900078,2,n,0.3356333839983563,65.9640876980011,67.9660229000001,67.9660229000001,67.9660229000001,67.9660229000001,67.9660229000001,67.9660229000001,68.96616085500136,68.96616085500136,68.96616085500136,68.96616085500136,68.96616085500136,28.254506971011896,1,68.96616085500136,69.96655726400058,,,,,,,,,,,,,,,,,,,,,,,,,,,,,,,,,,,,,,,,,,,,,,,,,,,,,,,001,2022-07-30_17h50.18.662,CGTriskyDMtask,2022.2.1,60.76665250583384,
7.72362079351442,0,7.809286691609301,,0.0270167056879838,0,,,,,,,,,,,,0,2,2,2,,,,,,,,,,,,,,,,,,,,,69.96655726400058,69.96655726400058,69.96655726400058,69.96655726400058,69.96655726400058,69.96655726400058,69.96655726400058,71.94868873100131,71.94868873100131,71.94868873100131,2,v,1.4720142020014464,73.9512981500011,75.95062822900218,75.95062822900218,75.95062822900218,75.95062822900218,75.95062822900218,75.95062822900218,76.93745358800152,76.93745358800152,76.93745358800152,76.93745358800152,76.93745358800152,7.809286691609301,0,76.93745358800152,77.95268711899917,,,,,,,,,,,,,,,,,,,,,,,,,,,,,,,,,,,,,,,,,,,,,,,,,,,,,,,001,2022-07-30_17h50.18.662,CGTriskyDMtask,2022.2.1,60.76665250583384,
,,,,,,,,,,,,,,,,,,,,,,,,,,,,,,,,,,,,,,,,,,,,,,,,,,,,,,,,,,,,,,,,,,,,,,,,,,,,,,77.95268711899917,82.93779467900094,5.001530012999865,[0.05555555555555555],[-0.4270833333333333],[1],[0],[0],[1.367378122999071],,,,,,,,,,,,,,,,,,,,,,,,,,,,,,,,,,,,,,001,2022-07-30_17h50.18.662,CGTriskyDMtask,2022.2.1,60.76665250583384,
,,,,,,,,,,,,,,,,,,,,,,,,,,,,,,,,,,,,,,,,,,,,,,,,,,,,,,,,,,,,,,,,,,,,,,,,,,,,,,,,,,,,,,,84.32345824300137,1.834700015024282e-05,84.32345824300137,[0.05381944444444445],[-0.4270833333333333],[1],[0],[0],[0.5692287880010554],,,,,,,,,,,,,,,,,,,,,,,,,,,,,001,2022-07-30_17h50.18.662,CGTriskyDMtask,2022.2.1,60.76665250583384,
,,,,,,,,,,,,,,,,,,,,,,,,,,,,,,,,,,,,,,,,,,,,,,,,,,,,,,,,,,,,,,,,,,,,,,,,,,,,,,,,,,,,,,,,,,,,,,,,84.88729769299971,1.8991999240824953e-05,84.88729769299971,[0.05381944444444445],[-0.4270833333333333],[1],[0],[0],[0.8803891159986961],,,,,,,,,,,,,,,,,,,,001,2022-07-30_17h50.18.662,CGTriskyDMtask,2022.2.1,60.76665250583384,
,,,,,,3,342,243,,,,,,,,,,,,,0,0,0,0,0,0,0,0,,,,,,,,,,,,,,,,,,,,,,,,,,,,,,,,,,,,,,,,,,,,,,,,,,,,,,,,,,,,,,,,,,,,,,,,,,,,,85.77219596700161,86.75432762100172,86.77069933500024,87.75631346199953,,,,,,,,,,,,,,,,001,2022-07-30_17h50.18.662,CGTriskyDMtask,2022.2.1,60.76665250583384,
,,,,,,3,342,243,,,,,,,,,,,,,0,0,0,0,1,0,1,0,,,,,,,,,,,,,,,,,,,,,,,,,,,,,,,,,,,,,,,,,,,,,,,,,,,,,,,,,,,,,,,,,,,,,,,,,,,,,87.75631346199953,88.7562385759993,88.7562385759993,89.74367886899927,,,,,,,,,,,,,,,,001,2022-07-30_17h50.18.662,CGTriskyDMtask,2022.2.1,60.76665250583384,
,,,,,,3,342,243,,,,,,,,,,,,,0,0,0,0,2,0,2,0,,,,,,,,,,,,,,,,,,,,,,,,,,,,,,,,,,,,,,,,,,,,,,,,,,,,,,,,,,,,,,,,,,,,,,,,,,,,,89.74367886899927,90.75569526600157,90.75569526600157,91.74508606000018,,,,,,,,,,,,,,,,001,2022-07-30_17h50.18.662,CGTriskyDMtask,2022.2.1,60.76665250583384,
,,,,,,3,342,243,,,,,,,,,,,,,0,0,0,0,,,,,,,,,,,,,,,,,,,,,,,,,,,,,,,,,,,,,,,,,,,,,,,,,,,,,,,,,,,,,,,,,,,,,,,,,,,,,,,,,,,,,91.74508606000018,91.74508606000018,91.74508606000018,-0.0009759820022736676,342,1,0.05381944444444445,-0.4236111111111111,1,0,0,cont_buttonPractice,93.4078878140026,94.40823727600218,,001,2022-07-30_17h50.18.662,CGTriskyDMtask,2022.2.1,60.76665250583384,
,,,,,,3,937,739,,,,,,,,,,,,,0,1,1,1,0,0,0,0,,,,,,,,,,,,,,,,,,,,,,,,,,,,,,,,,,,,,,,,,,,,,,,,,,,,,,,,,,,,,,,,,,,,,,,,,,,,,94.40823727600218,95.40845456700117,95.40845456700117,,,,,,,,,,,,,,,,,001,2022-07-30_17h50.18.662,CGTriskyDMtask,2022.2.1,60.76665250583384,
,,,,,,3,937,739,,,,,,,,,,,,,0,1,1,1,1,0,1,0,,,,,,,,,,,,,,,,,,,,,,,,,,,,,,,,,,,,,,,,,,,,,,,,,,,,,,,,,,,,,,,,,,,,,,,,,,,,,96.40729217700209,97.39091466800164,97.39417549000063,98.392850430002,,,,,,,,,,,,,,,,001,2022-07-30_17h50.18.662,CGTriskyDMtask,2022.2.1,60.76665250583384,
,,,,,,3,937,739,,,,,,,,,,,,,0,1,1,1,2,0,2,0,,,,,,,,,,,,,,,,,,,,,,,,,,,,,,,,,,,,,,,,,,,,,,,,,,,,,,,,,,,,,,,,,,,,,,,,,,,,,98.392850430002,99.39214752400221,99.39214752400221,100.38141014299981,,,,,,,,,,,,,,,,001,2022-07-30_17h50.18.662,CGTriskyDMtask,2022.2.1,60.76665250583384,
,,,,,,3,937,739,,,,,,,,,,,,,0,1,1,1,,,,,,,,,,,,,,,,,,,,,,,,,,,,,,,,,,,,,,,,,,,,,,,,,,,,,,,,,,,,,,,,,,,,,,,,,,,,,,,,,,,,,100.38141014299981,100.38141014299981,100.38141014299981,-0.0007162510009948164,937,1,0.08680555555555555,-0.3993055555555556,1,0,0,cont_buttonPractice,103.97796561900032,104.9633436740005,,001,2022-07-30_17h50.18.662,CGTriskyDMtask,2022.2.1,60.76665250583384,
