riskyGain,riskyLoss,alternative,isi,iti,loc,riskyoption1,riskyoption2,safeoption,ischecktrial,trials.thisRepN,trials.thisTrialN,trials.thisN,trials.thisIndex,staticRDM.thisRepN,staticRDM.thisTrialN,staticRDM.thisN,staticRDM.thisIndex,participant,session,date,expName,psychopyVersion,frameRate,
18.23,0,9.45,2,1,1,,,,,0,0,0,0,,,,,,001,2022-07-31_18h58.34.140,CGTriskyDMtask,2022.2.1,60.895759448984215,
53.27,0,35.16,1,3,1,,,,,0,1,1,1,,,,,,001,2022-07-31_18h58.34.140,CGTriskyDMtask,2022.2.1,60.895759448984215,
8.27,0,1.15,1,2,2,,,,,0,2,2,2,,,,,,001,2022-07-31_18h58.34.140,CGTriskyDMtask,2022.2.1,60.895759448984215,
45.88,0,40.41,3,1,1,,,,,0,3,3,3,,,,,,001,2022-07-31_18h58.34.140,CGTriskyDMtask,2022.2.1,60.895759448984215,
21.56,0,11.96,1,1,2,,,,,0,4,4,4,,,,,,001,2022-07-31_18h58.34.140,CGTriskyDMtask,2022.2.1,60.895759448984215,
,,,,,,20.53,0.0,7.73,0,,,,,0,0,0,9,,001,2022-07-31_18h58.34.140,CGTriskyDMtask,2022.2.1,60.895759448984215,
,,,,,,17.73,0.0,3.13,0,,,,,0,1,1,2,,001,2022-07-31_18h58.34.140,CGTriskyDMtask,2022.2.1,60.895759448984215,
,,,,,,20.03,0.0,1.99,0,,,,,0,2,2,0,,001,2022-07-31_18h58.34.140,CGTriskyDMtask,2022.2.1,60.895759448984215,
,,,,,,0.0,0.0,3.13,1,,,,,0,3,3,47,,001,2022-07-31_18h58.34.140,CGTriskyDMtask,2022.2.1,60.895759448984215,
,,,,,,13.94,0.0,5.03,0,,,,,0,4,4,8,,001,2022-07-31_18h58.34.140,CGTriskyDMtask,2022.2.1,60.895759448984215,
,,,,,,18.33,0.0,8.84,0,,,,,0,5,5,17,,001,2022-07-31_18h58.34.140,CGTriskyDMtask,2022.2.1,60.895759448984215,
,,,,,,19.28,0.0,8.36,0,,,,,0,6,6,13,,001,2022-07-31_18h58.34.140,CGTriskyDMtask,2022.2.1,60.895759448984215,
,,,,,,15.96,0.0,10.02,0,,,,,0,7,7,31,,001,2022-07-31_18h58.34.140,CGTriskyDMtask,2022.2.1,60.895759448984215,
,,,,,,28.21,0.0,3.89,0,,,,,0,8,8,1,,001,2022-07-31_18h58.34.140,CGTriskyDMtask,2022.2.1,60.895759448984215,
,,,,,,17.28,0.0,9.36,0,,,,,0,9,9,23,,001,2022-07-31_18h58.34.140,CGTriskyDMtask,2022.2.1,60.895759448984215,
,,,,,,12.08,0.0,5.96,0,,,,,0,10,10,18,,001,2022-07-31_18h58.34.140,CGTriskyDMtask,2022.2.1,60.895759448984215,
,,,,,,15.7,0.0,10.15,0,,,,,0,11,11,33,,001,2022-07-31_18h58.34.140,CGTriskyDMtask,2022.2.1,60.895759448984215,
,,,,,,12.36,0.0,5.82,0,,,,,0,12,12,16,,001,2022-07-31_18h58.34.140,CGTriskyDMtask,2022.2.1,60.895759448984215,
,,,,,,13.1,7.73,4.68,1,,,,,0,13,13,44,,001,2022-07-31_18h58.34.140,CGTriskyDMtask,2022.2.1,60.895759448984215,
,,,,,,19.86,0.0,8.07,0,,,,,0,14,14,11,,001,2022-07-31_18h58.34.140,CGTriskyDMtask,2022.2.1,60.895759448984215,
,,,,,,11.84,0.0,6.08,0,,,,,0,15,15,20,,001,2022-07-31_18h58.34.140,CGTriskyDMtask,2022.2.1,60.895759448984215,
,,,,,,10.68,0.0,10.68,1,,,,,0,16,16,48,,001,2022-07-31_18h58.34.140,CGTriskyDMtask,2022.2.1,60.895759448984215,
,,,,,,11.43,0.0,6.29,0,,,,,0,17,17,24,,001,2022-07-31_18h58.34.140,CGTriskyDMtask,2022.2.1,60.895759448984215,
,,,,,,0.0,0.0,7.55,1,,,,,0,18,18,45,,001,2022-07-31_18h58.34.140,CGTriskyDMtask,2022.2.1,60.895759448984215,
,,,,,,11.62,0.0,6.19,0,,,,,0,19,19,22,,001,2022-07-31_18h58.34.140,CGTriskyDMtask,2022.2.1,60.895759448984215,
,,,,,,10.35,0.0,0.0,1,,,,,0,20,20,40,,001,2022-07-31_18h58.34.140,CGTriskyDMtask,2022.2.1,60.895759448984215,
,,,,,,14.26,0.0,0.0,1,,,,,0,21,21,41,,001,2022-07-31_18h58.34.140,CGTriskyDMtask,2022.2.1,60.895759448984215,
,,,,,,14.72,0.0,4.64,0,,,,,0,22,22,6,,001,2022-07-31_18h58.34.140,CGTriskyDMtask,2022.2.1,60.895759448984215,
,,,,,,10.24,0.0,6.88,0,,,,,0,23,23,36,,001,2022-07-31_18h58.34.140,CGTriskyDMtask,2022.2.1,60.895759448984215,
,,,,,,15.09,0.0,10.46,0,,,,,0,24,24,39,,001,2022-07-31_18h58.34.140,CGTriskyDMtask,2022.2.1,60.895759448984215,
,,,,,,10.55,0.0,6.73,0,,,,,0,25,25,32,,001,2022-07-31_18h58.34.140,CGTriskyDMtask,2022.2.1,60.895759448984215,
,,,,,,17.59,0.0,9.2,0,,,,,0,26,26,21,,001,2022-07-31_18h58.34.140,CGTriskyDMtask,2022.2.1,60.895759448984215,
,,,,,,15.47,0.0,10.27,0,,,,,0,27,27,35,,001,2022-07-31_18h58.34.140,CGTriskyDMtask,2022.2.1,60.895759448984215,
,,,,,,16.26,0.0,9.87,0,,,,,0,28,28,29,,001,2022-07-31_18h58.34.140,CGTriskyDMtask,2022.2.1,60.895759448984215,
,,,,,,10.12,0.0,6.94,0,,,,,0,29,29,38,,001,2022-07-31_18h58.34.140,CGTriskyDMtask,2022.2.1,60.895759448984215,
,,,,,,6.79,0.0,9.92,1,,,,,0,30,30,49,,001,2022-07-31_18h58.34.140,CGTriskyDMtask,2022.2.1,60.895759448984215,
,,,,,,22.97,0.0,6.51,0,,,,,0,31,31,5,,001,2022-07-31_18h58.34.140,CGTriskyDMtask,2022.2.1,60.895759448984215,
,,,,,,0.0,0.0,10.25,1,,,,,0,32,32,46,,001,2022-07-31_18h58.34.140,CGTriskyDMtask,2022.2.1,60.895759448984215,
,,,,,,21.32,0.0,7.34,0,,,,,0,33,33,7,,001,2022-07-31_18h58.34.140,CGTriskyDMtask,2022.2.1,60.895759448984215,
,,,,,,10.73,0.0,6.63,0,,,,,0,34,34,30,,001,2022-07-31_18h58.34.140,CGTriskyDMtask,2022.2.1,60.895759448984215,
,,,,,,25.2,0.0,5.4,0,,,,,0,35,35,3,,001,2022-07-31_18h58.34.140,CGTriskyDMtask,2022.2.1,60.895759448984215,
,,,,,,19.86,0.0,0.0,1,,,,,0,36,36,42,,001,2022-07-31_18h58.34.140,CGTriskyDMtask,2022.2.1,60.895759448984215,
,,,,,,17.94,0.0,9.03,0,,,,,0,37,37,19,,001,2022-07-31_18h58.34.140,CGTriskyDMtask,2022.2.1,60.895759448984215,
,,,,,,16.11,6.99,6.99,1,,,,,0,38,38,43,,001,2022-07-31_18h58.34.140,CGTriskyDMtask,2022.2.1,60.895759448984215,
,,,,,,13.45,0.0,5.27,0,,,,,0,39,39,10,,001,2022-07-31_18h58.34.140,CGTriskyDMtask,2022.2.1,60.895759448984215,
,,,,,,17.0,0.0,9.5,0,,,,,0,40,40,25,,001,2022-07-31_18h58.34.140,CGTriskyDMtask,2022.2.1,60.895759448984215,
,,,,,,16.6,0.0,9.7,0,,,,,0,41,41,27,,001,2022-07-31_18h58.34.140,CGTriskyDMtask,2022.2.1,60.895759448984215,
,,,,,,12.68,0.0,5.66,0,,,,,0,42,42,14,,001,2022-07-31_18h58.34.140,CGTriskyDMtask,2022.2.1,60.895759448984215,
,,,,,,10.95,0.0,6.53,0,,,,,0,43,43,28,,001,2022-07-31_18h58.34.140,CGTriskyDMtask,2022.2.1,60.895759448984215,
,,,,,,11.2,0.0,6.4,0,,,,,0,44,44,26,,001,2022-07-31_18h58.34.140,CGTriskyDMtask,2022.2.1,60.895759448984215,
,,,,,,13.04,0.0,5.48,0,,,,,0,45,45,12,,001,2022-07-31_18h58.34.140,CGTriskyDMtask,2022.2.1,60.895759448984215,
,,,,,,16.0,0.0,4.0,0,,,,,0,46,46,4,,001,2022-07-31_18h58.34.140,CGTriskyDMtask,2022.2.1,60.895759448984215,
,,,,,,15.27,0.0,10.37,0,,,,,0,47,47,37,,001,2022-07-31_18h58.34.140,CGTriskyDMtask,2022.2.1,60.895759448984215,
,,,,,,18.77,0.0,8.61,0,,,,,0,48,48,15,,001,2022-07-31_18h58.34.140,CGTriskyDMtask,2022.2.1,60.895759448984215,
,,,,,,10.39,0.0,6.81,0,,,,,0,49,49,34,,001,2022-07-31_18h58.34.140,CGTriskyDMtask,2022.2.1,60.895759448984215,
