riskyoption1,riskyoption2,safeoption,ischecktrial,choiceP,easy0difficult1,trials.thisRepN,trials.thisTrialN,trials.thisN,trials.thisIndex,staticRDM.thisRepN,staticRDM.thisTrialN,staticRDM.thisN,staticRDM.thisIndex,dynamicRDM.thisRepN,dynamicRDM.thisTrialN,dynamicRDM.thisN,dynamicRDM.thisIndex,Instructions.started,inst1.started,inst1.keys,inst1.rt,startPract.started,startPracResp.started,startPracResp.keys,startPracResp.rt,postPracText.started,postPractResp.started,postPractResp.keys,postPractResp.rt,circleLeftReal.started,circleRightReal.started,lineLeftReal.started,orTextReal.started,lossTxtReal.started,gainTxtReal.started,safeTxtReal.started,vLeftReal.started,nRightReal.started,realChoice.started,loc,realChoice.keys,realChoice.rt,isiTextReal.started,isiTextReal.stopped,noRespTxtReal.started,ocGambleReal.started,ocSafeReal.started,outcomeTextReal.started,hideGambleReal.started,outcomes,choices,itiTextReal.started,itiTextReal.stopped,noRespTxtReal.stopped,ocGambleReal.stopped,ocSafeReal.stopped,outcomeTextReal.stopped,hideGambleReal.stopped,dynamicChoiceSet.routineStartVal,showPart2fileName.started,moveAlong.started,dynamicChoiceSet.routineEndVal,bestRho.routineEndVal,bestMu.routineEndVal,moveAlong.keys,moveAlong.rt,vLeftReal.stopped,nRightReal.stopped,realChoice.stopped,circleLeftReal.stopped,circleRightReal.stopped,lineLeftReal.stopped,orTextReal.stopped,lossTxtReal.stopped,gainTxtReal.stopped,safeTxtReal.stopped,participant,session,date,expName,psychopyVersion,frameRate,
,,,,,,,,,,,,,,,,,,6.562758526997641,8.56697374000214,return,17.026952532003634,,,,,,,,,,,,,,,,,,,,,,,,,,,,,,,,,,,,,,,,,,,,,,,,,,,,,,,,,001,2022-07-31_18h01.34.476,CGTriskyDMtask,2022.2.1,60.019440415956616,
,,,,,,,,,,,,,,,,,,,,,,25.62320515600004,27.605794025999785,v,0.24478661100147292,,,,,,,,,,,,,,,,,,,,,,,,,,,,,,,,,,,,,,,,,,,,,,,,,,,,,001,2022-07-31_18h01.34.476,CGTriskyDMtask,2022.2.1,60.019440415956616,
,,,,,,,,,,,,,,,,,,,,,,,,,,27.87486904099933,27.87486904099933,v,3.4877168530001654,,,,,,,,,,,,,,,,,,,,,,,,,,,,,,,,,,,,,,,,,,,,,,,,,001,2022-07-31_18h01.34.476,CGTriskyDMtask,2022.2.1,60.019440415956616,
15.96,0.0,10.02,0,,,,,,,0,0,0,31,,,,,,,,,,,,,,,,,31.410332819999894,31.410332819999894,31.410332819999894,31.410332819999894,31.410332819999894,31.410332819999894,31.410332819999894,33.37540155299939,33.37540155299939,33.37540155299939,1,v,0.5549021629994968,35.3757046239989,37.37612051200267,37.37612051200267,37.37612051200267,37.37612051200267,37.37612051200267,37.37612051200267,15.96,1,38.37687053799891,39.37652649800293,,,,,,,,,,,,,,,,,,,,,,,,,001,2022-07-31_18h01.34.476,CGTriskyDMtask,2022.2.1,60.019440415956616,
13.1,7.73,4.68,1,,,,,,,0,1,1,44,,,,,,,,,,,,,,,,,39.37652649800293,39.37652649800293,39.37652649800293,39.37652649800293,39.37652649800293,39.37652649800293,39.37652649800293,41.360831124999095,41.360831124999095,41.360831124999095,1,v,0.8980884510019678,43.36203901100089,45.362359637001646,45.362359637001646,45.362359637001646,45.362359637001646,45.362359637001646,45.362359637001646,7.73,1,46.36244333299692,47.36266789799993,46.36244333299692,46.36244333299692,46.36244333299692,46.36244333299692,46.36244333299692,,,,,,,,,,,,,,,,,,,,001,2022-07-31_18h01.34.476,CGTriskyDMtask,2022.2.1,60.019440415956616,
16.11,6.99,6.99,1,,,,,,,0,2,2,43,,,,,,,,,,,,,,,,,47.36266789799993,47.36266789799993,47.36266789799993,47.36266789799993,47.36266789799993,47.36266789799993,47.36266789799993,49.34706227100105,49.34706227100105,49.34706227100105,2,n,0.4868547100049909,51.34737636199861,53.34866846800287,53.34866846800287,53.34866846800287,53.34866846800287,53.34866846800287,53.34866846800287,16.11,1,54.348747718002414,55.34924875300203,54.348747718002414,54.348747718002414,54.348747718002414,54.348747718002414,54.348747718002414,,,,,,,,,,,,,,,,,,,,001,2022-07-31_18h01.34.476,CGTriskyDMtask,2022.2.1,60.019440415956616,
25.2,0.0,5.4,0,,,,,,,0,3,3,3,,,,,,,,,,,,,,,,,55.34924875300203,55.34924875300203,55.34924875300203,55.34924875300203,55.34924875300203,55.34924875300203,55.34924875300203,57.332429652997234,57.332429652997234,57.332429652997234,2,n,0.49322750899591483,59.33364480899763,61.33413443300378,61.33413443300378,61.33413443300378,61.33413443300378,61.33413443300378,61.33413443300378,0.0,1,62.33424459199887,63.335338044998934,,,,,,,,,,,,,,,,,,,,,,,,,001,2022-07-31_18h01.34.476,CGTriskyDMtask,2022.2.1,60.019440415956616,
15.7,0.0,10.15,0,,,,,,,0,4,4,33,,,,,,,,,,,,,,,,,63.335338044998934,63.335338044998934,63.335338044998934,63.335338044998934,63.335338044998934,63.335338044998934,63.335338044998934,65.31897970200225,65.31897970200225,65.31897970200225,1,v,0.40318339899386046,67.31920585100306,69.3203966880028,69.3203966880028,69.3203966880028,69.3203966880028,69.3203966880028,69.3203966880028,15.7,1,70.3206272699972,71.32076190200314,,,,,,,,,,,,,,,,,,,,,,,,,001,2022-07-31_18h01.34.476,CGTriskyDMtask,2022.2.1,60.019440415956616,
17.73,0.0,3.13,0,,,,,,,0,5,5,2,,,,,,,,,,,,,,,,,71.32076190200314,71.32076190200314,71.32076190200314,71.32076190200314,71.32076190200314,71.32076190200314,71.32076190200314,73.30526880000252,73.30526880000252,73.30526880000252,1,v,0.59228217999771,75.30577537800127,77.2968241080016,77.2968241080016,77.2968241080016,77.2968241080016,77.2968241080016,77.2968241080016,17.73,1,78.30684998499783,79.30724488299893,,,,,,,,,,,,,,,,,,,,,,,,,001,2022-07-31_18h01.34.476,CGTriskyDMtask,2022.2.1,60.019440415956616,
19.86,0.0,8.07,0,,,,,,,0,6,6,11,,,,,,,,,,,,,,,,,79.30724488299893,79.30724488299893,79.30724488299893,79.30724488299893,79.30724488299893,79.30724488299893,79.30724488299893,81.28971206599817,81.28971206599817,81.28971206599817,1,n,0.816449357997044,83.2918271180024,85.28308816400386,85.28308816400386,85.28308816400386,85.28308816400386,85.28308816400386,85.28308816400386,8.07,0,86.27860824500385,87.27448421699955,86.27860824500385,86.27860824500385,86.27860824500385,86.27860824500385,86.27860824500385,,,,,,,,,,,,,,,,,,,,001,2022-07-31_18h01.34.476,CGTriskyDMtask,2022.2.1,60.019440415956616,
21.32,0.0,7.34,0,,,,,,,0,7,7,7,,,,,,,,,,,,,,,,,87.27448421699955,87.27448421699955,87.27448421699955,87.27448421699955,87.27448421699955,87.27448421699955,87.27448421699955,89.27682704600011,89.27682704600011,89.27682704600011,2,n,0.35715980300301453,91.27654755300318,93.2785413879974,93.2785413879974,93.2785413879974,93.2785413879974,93.2785413879974,93.2785413879974,0.0,1,94.26495296299981,95.27813320200221,94.26495296299981,94.26495296299981,94.26495296299981,94.26495296299981,94.26495296299981,,,,,,,,,,,,,,,,,,,,001,2022-07-31_18h01.34.476,CGTriskyDMtask,2022.2.1,60.019440415956616,
0.0,0.0,3.13,1,,,,,,,0,8,8,47,,,,,,,,,,,,,,,,,95.27813320200221,95.27813320200221,95.27813320200221,95.27813320200221,95.27813320200221,95.27813320200221,95.27813320200221,97.26097599000059,97.26097599000059,97.26097599000059,1,n,0.2691488060008851,99.26340995300416,101.26431539400073,101.26431539400073,101.26431539400073,101.26431539400073,101.26431539400073,101.26431539400073,3.13,0,102.26310658200237,103.26522396899963,,,,,,,,,,,,,,,,,,,,,,,,,001,2022-07-31_18h01.34.476,CGTriskyDMtask,2022.2.1,60.019440415956616,
13.45,0.0,5.27,0,,,,,,,0,9,9,10,,,,,,,,,,,,,,,,,103.26522396899963,103.26522396899963,103.26522396899963,103.26522396899963,103.26522396899963,103.26522396899963,103.26522396899963,105.24838573200395,105.24838573200395,105.24838573200395,2,n,0.30508712199662114,107.23487310900236,109.25022207300208,109.25022207300208,109.25022207300208,109.25022207300208,109.25022207300208,109.25022207300208,0.0,1,110.24965934400097,111.2497762790008,,,,,,,,,,,,,,,,,,,,,,,,,001,2022-07-31_18h01.34.476,CGTriskyDMtask,2022.2.1,60.019440415956616,
10.24,0.0,6.88,0,,,,,,,0,10,10,36,,,,,,,,,,,,,,,,,111.2497762790008,111.2497762790008,111.2497762790008,111.2497762790008,111.2497762790008,111.2497762790008,111.2497762790008,113.23508604000381,113.23508604000381,113.23508604000381,2,n,0.3112250730046071,115.23544762800157,117.22654166899883,117.22654166899883,117.22654166899883,117.22654166899883,117.22654166899883,117.22654166899883,0.0,1,118.2365970030005,119.2369761910013,,,,,,,,,,,,,,,,,,,,,,,,,001,2022-07-31_18h01.34.476,CGTriskyDMtask,2022.2.1,60.019440415956616,
16.6,0.0,9.7,0,,,,,,,0,11,11,27,,,,,,,,,,,,,,,,,119.2369761910013,119.2369761910013,119.2369761910013,119.2369761910013,119.2369761910013,119.2369761910013,119.2369761910013,121.2103803889986,121.2103803889986,121.2103803889986,2,n,0.37558877099945676,123.22165690600377,125.2220871219979,125.2220871219979,125.2220871219979,125.2220871219979,125.2220871219979,125.2220871219979,16.6,1,126.20830268300051,127.20435106600053,126.20830268300051,126.20830268300051,126.20830268300051,126.20830268300051,126.20830268300051,,,,,,,,,,,,,,,,,,,,001,2022-07-31_18h01.34.476,CGTriskyDMtask,2022.2.1,60.019440415956616,
17.28,0.0,9.36,0,,,,,,,0,12,12,23,,,,,,,,,,,,,,,,,127.20435106600053,127.20435106600053,127.20435106600053,127.20435106600053,127.20435106600053,127.20435106600053,127.20435106600053,129.20687528500275,129.20687528500275,129.20687528500275,1,v,1.690792137000244,131.19308493199787,133.20843878300366,133.20843878300366,133.20843878300366,133.20843878300366,133.20843878300366,133.20843878300366,17.28,1,134.2083400920019,135.2090180899977,,,,,,,,,,,,,,,,,,,,,,,,,001,2022-07-31_18h01.34.476,CGTriskyDMtask,2022.2.1,60.019440415956616,
11.2,0.0,6.4,0,,,,,,,0,13,13,26,,,,,,,,,,,,,,,,,135.2090180899977,135.2090180899977,135.2090180899977,135.2090180899977,135.2090180899977,135.2090180899977,135.2090180899977,137.19104578300175,137.19104578300175,137.19104578300175,2,n,0.5224822550007957,139.19335714200133,141.19316837799852,141.19316837799852,141.19316837799852,141.19316837799852,141.19316837799852,141.19316837799852,11.2,1,142.1801382199992,143.19487008699798,142.1801382199992,142.1801382199992,142.1801382199992,142.1801382199992,142.1801382199992,,,,,,,,,,,,,,,,,,,,001,2022-07-31_18h01.34.476,CGTriskyDMtask,2022.2.1,60.019440415956616,
11.84,0.0,6.08,0,,,,,,,0,14,14,20,,,,,,,,,,,,,,,,,143.19487008699798,143.19487008699798,143.19487008699798,143.19487008699798,143.19487008699798,143.19487008699798,143.19487008699798,145.16802862300392,145.16802862300392,145.16802862300392,2,n,0.3056256560012116,147.16497370300203,149.16337321200263,149.16337321200263,149.16337321200263,149.16337321200263,149.16337321200263,149.16337321200263,11.84,1,150.16402006799763,151.16236397100147,150.16402006799763,150.16402006799763,150.16402006799763,150.16402006799763,150.16402006799763,,,,,,,,,,,,,,,,,,,,001,2022-07-31_18h01.34.476,CGTriskyDMtask,2022.2.1,60.019440415956616,
10.73,0.0,6.63,0,,,,,,,0,15,15,30,,,,,,,,,,,,,,,,,151.16236397100147,151.16236397100147,151.16236397100147,151.16236397100147,151.16236397100147,151.16236397100147,151.16236397100147,153.1651211089993,153.1651211089993,153.1651211089993,1,n,0.5165776490030112,155.15154925899697,157.1493507740015,157.1493507740015,157.1493507740015,157.1493507740015,157.1493507740015,157.1493507740015,6.63,0,158.14987457000097,159.1502223110001,158.14987457000097,158.14987457000097,158.14987457000097,158.14987457000097,158.14987457000097,,,,,,,,,,,,,,,,,,,,001,2022-07-31_18h01.34.476,CGTriskyDMtask,2022.2.1,60.019440415956616,
20.03,0.0,1.99,0,,,,,,,0,16,16,0,,,,,,,,,,,,,,,,,159.1502223110001,159.1502223110001,159.1502223110001,159.1502223110001,159.1502223110001,159.1502223110001,159.1502223110001,161.13296303399693,161.13296303399693,161.13296303399693,2,n,0.2856658599994262,163.13477740099916,165.1354365340012,165.1354365340012,165.1354365340012,165.1354365340012,165.1354365340012,165.1354365340012,0.0,1,166.1354475909975,167.13065945400012,166.1354475909975,166.1354475909975,166.1354475909975,166.1354475909975,166.1354475909975,,,,,,,,,,,,,,,,,,,,001,2022-07-31_18h01.34.476,CGTriskyDMtask,2022.2.1,60.019440415956616,
10.95,0.0,6.53,0,,,,,,,0,17,17,28,,,,,,,,,,,,,,,,,167.13065945400012,167.13065945400012,167.13065945400012,167.13065945400012,167.13065945400012,167.13065945400012,167.13065945400012,169.12005127500015,169.12005127500015,169.12005127500015,1,v,0.42662265700346325,171.12059262600087,173.12170836800215,173.12170836800215,173.12170836800215,173.12170836800215,173.12170836800215,173.12170836800215,10.95,1,174.1218477220027,175.12133922900102,174.1218477220027,174.1218477220027,174.1218477220027,174.1218477220027,174.1218477220027,,,,,,,,,,,,,,,,,,,,001,2022-07-31_18h01.34.476,CGTriskyDMtask,2022.2.1,60.019440415956616,
12.36,0.0,5.82,0,,,,,,,0,18,18,16,,,,,,,,,,,,,,,,,175.12133922900102,175.12133922900102,175.12133922900102,175.12133922900102,175.12133922900102,175.12133922900102,175.12133922900102,177.10402281200368,177.10402281200368,177.10402281200368,2,n,0.5536276380007621,179.10681840300094,181.09786076300225,181.09786076300225,181.09786076300225,181.09786076300225,181.09786076300225,181.09786076300225,12.36,1,182.09336802100006,183.10830569999962,182.09336802100006,182.09336802100006,182.09336802100006,182.09336802100006,182.09336802100006,,,,,,,,,,,,,,,,,,,,001,2022-07-31_18h01.34.476,CGTriskyDMtask,2022.2.1,60.019440415956616,
15.27,0.0,10.37,0,,,,,,,0,19,19,37,,,,,,,,,,,,,,,,,183.10830569999962,183.10830569999962,183.10830569999962,183.10830569999962,183.10830569999962,183.10830569999962,183.10830569999962,185.0911297019993,185.0911297019993,185.0911297019993,2,n,0.2793183859976125,187.0783495029973,189.09354552600416,189.09354552600416,189.09354552600416,189.09354552600416,189.09354552600416,189.09354552600416,0.0,1,190.09342353099782,191.0930567530013,190.09342353099782,190.09342353099782,190.09342353099782,190.09342353099782,190.09342353099782,,,,,,,,,,,,,,,,,,,,001,2022-07-31_18h01.34.476,CGTriskyDMtask,2022.2.1,60.019440415956616,
17.94,0.0,9.03,0,,,,,,,0,20,20,19,,,,,,,,,,,,,,,,,191.0930567530013,191.0930567530013,191.0930567530013,191.0930567530013,191.0930567530013,191.0930567530013,191.0930567530013,193.07805137499963,193.07805137499963,193.07805137499963,1,n,0.3398970359994564,195.0787067220008,197.07001403100003,197.07001403100003,197.07001403100003,197.07001403100003,197.07001403100003,197.07001403100003,9.03,0,198.079820095998,199.08002043599845,,,,,,,,,,,,,,,,,,,,,,,,,001,2022-07-31_18h01.34.476,CGTriskyDMtask,2022.2.1,60.019440415956616,
6.79,0.0,9.92,1,,,,,,,0,21,21,49,,,,,,,,,,,,,,,,,199.08002043599845,199.08002043599845,199.08002043599845,199.08002043599845,199.08002043599845,199.08002043599845,199.08002043599845,201.0636517210005,201.0636517210005,201.0636517210005,1,n,0.47467535600299016,203.06481092800095,205.06499915599852,205.06499915599852,205.06499915599852,205.06499915599852,205.06499915599852,205.06499915599852,9.92,0,206.06526133899752,207.0654948119991,206.06526133899752,206.06526133899752,206.06526133899752,206.06526133899752,206.06526133899752,,,,,,,,,,,,,,,,,,,,001,2022-07-31_18h01.34.476,CGTriskyDMtask,2022.2.1,60.019440415956616,
10.35,0.0,0.0,1,,,,,,,0,22,22,40,,,,,,,,,,,,,,,,,207.0654948119991,207.0654948119991,207.0654948119991,207.0654948119991,207.0654948119991,207.0654948119991,207.0654948119991,209.04982102200302,209.04982102200302,209.04982102200302,1,v,0.49669017199630616,211.05014795700117,213.05141318499955,213.05141318499955,213.05141318499955,213.05141318499955,213.05141318499955,213.05141318499955,10.35,1,214.05138523400092,215.05199877599807,214.05138523400092,214.05138523400092,214.05138523400092,214.05138523400092,214.05138523400092,,,,,,,,,,,,,,,,,,,,001,2022-07-31_18h01.34.476,CGTriskyDMtask,2022.2.1,60.019440415956616,
0.0,0.0,7.55,1,,,,,,,0,23,23,45,,,,,,,,,,,,,,,,,215.05199877599807,215.05199877599807,215.05199877599807,215.05199877599807,215.05199877599807,215.05199877599807,215.05199877599807,217.03542360499705,217.03542360499705,217.03542360499705,1,n,0.20687059799820418,219.03649903900077,221.03681491399766,221.03681491399766,221.03681491399766,221.03681491399766,221.03681491399766,221.03681491399766,7.55,0,222.02355054699728,223.03813175699906,222.02355054699728,222.02355054699728,222.02355054699728,222.02355054699728,222.02355054699728,,,,,,,,,,,,,,,,,,,,001,2022-07-31_18h01.34.476,CGTriskyDMtask,2022.2.1,60.019440415956616,
16.0,0.0,4.0,0,,,,,,,0,24,24,4,,,,,,,,,,,,,,,,,223.03813175699906,223.03813175699906,223.03813175699906,223.03813175699906,223.03813175699906,223.03813175699906,223.03813175699906,225.02101917399705,225.02101917399705,225.02101917399705,2,v,0.6688446279949858,227.02119777799817,229.02318400699733,229.02318400699733,229.02318400699733,229.02318400699733,229.02318400699733,229.02318400699733,4.0,0,230.02337309200084,231.01861076700152,,,,,,,,,,,,,,,,,,,,,,,,,001,2022-07-31_18h01.34.476,CGTriskyDMtask,2022.2.1,60.019440415956616,
13.04,0.0,5.48,0,,,,,,,0,25,25,12,,,,,,,,,,,,,,,,,231.01861076700152,231.01861076700152,231.01861076700152,231.01861076700152,231.01861076700152,231.01861076700152,231.01861076700152,233.00808595299895,233.00808595299895,233.00808595299895,1,n,0.5862438039985136,235.00833212800353,236.9998363900013,236.9998363900013,236.9998363900013,236.9998363900013,236.9998363900013,236.9998363900013,5.48,0,238.00970655900164,239.00970475099894,,,,,,,,,,,,,,,,,,,,,,,,,001,2022-07-31_18h01.34.476,CGTriskyDMtask,2022.2.1,60.019440415956616,
19.86,0.0,0.0,1,,,,,,,0,26,26,42,,,,,,,,,,,,,,,,,239.00970475099894,239.00970475099894,239.00970475099894,239.00970475099894,239.00970475099894,239.00970475099894,239.00970475099894,240.98336380300316,240.98336380300316,240.98336380300316,2,n,0.48225458500382956,242.99475464900024,244.98564842499763,244.98564842499763,244.98564842499763,244.98564842499763,244.98564842499763,244.98564842499763,0.0,1,245.99523420100013,246.99056721299712,,,,,,,,,,,,,,,,,,,,,,,,,001,2022-07-31_18h01.34.476,CGTriskyDMtask,2022.2.1,60.019440415956616,
28.21,0.0,3.89,0,,,,,,,0,27,27,1,,,,,,,,,,,,,,,,,246.99056721299712,246.99056721299712,246.99056721299712,246.99056721299712,246.99056721299712,246.99056721299712,246.99056721299712,248.9795968949984,248.9795968949984,248.9795968949984,2,n,0.510496864997549,250.98039970300306,252.98132422700291,252.98132422700291,252.98132422700291,252.98132422700291,252.98132422700291,252.98132422700291,28.21,1,253.98140018000413,254.98106468599872,253.98140018000413,253.98140018000413,253.98140018000413,253.98140018000413,253.98140018000413,,,,,,,,,,,,,,,,,,,,001,2022-07-31_18h01.34.476,CGTriskyDMtask,2022.2.1,60.019440415956616,
18.77,0.0,8.61,0,,,,,,,0,28,28,15,,,,,,,,,,,,,,,,,254.98106468599872,254.98106468599872,254.98106468599872,254.98106468599872,254.98106468599872,254.98106468599872,254.98106468599872,256.9637195440009,256.9637195440009,256.9637195440009,1,v,0.5819134030025452,258.96658047800156,260.96600777399726,260.96600777399726,260.96600777399726,260.96600777399726,260.96600777399726,260.96600777399726,0.0,1,261.95296541199787,262.96797305600194,261.95296541199787,261.95296541199787,261.95296541199787,261.95296541199787,261.95296541199787,,,,,,,,,,,,,,,,,,,,001,2022-07-31_18h01.34.476,CGTriskyDMtask,2022.2.1,60.019440415956616,
19.28,0.0,8.36,0,,,,,,,0,29,29,13,,,,,,,,,,,,,,,,,262.96797305600194,262.96797305600194,262.96797305600194,262.96797305600194,262.96797305600194,262.96797305600194,262.96797305600194,264.95075083900156,264.95075083900156,264.95075083900156,2,v,0.2915690669979085,266.93810693499836,268.95321523000166,268.95321523000166,268.95321523000166,268.95321523000166,268.95321523000166,268.95321523000166,8.36,0,269.9535781700033,270.9487069349998,269.9535781700033,269.9535781700033,269.9535781700033,269.9535781700033,269.9535781700033,,,,,,,,,,,,,,,,,,,,001,2022-07-31_18h01.34.476,CGTriskyDMtask,2022.2.1,60.019440415956616,
10.39,0.0,6.81,0,,,,,,,0,30,30,34,,,,,,,,,,,,,,,,,270.9487069349998,270.9487069349998,270.9487069349998,270.9487069349998,270.9487069349998,270.9487069349998,270.9487069349998,272.93789243399806,272.93789243399806,272.93789243399806,2,n,0.29642246100411285,274.92419746700034,276.9211547149971,276.9211547149971,276.9211547149971,276.9211547149971,276.9211547149971,276.9211547149971,10.39,1,277.9228982229979,278.92312796499755,277.9228982229979,277.9228982229979,277.9228982229979,277.9228982229979,277.9228982229979,,,,,,,,,,,,,,,,,,,,001,2022-07-31_18h01.34.476,CGTriskyDMtask,2022.2.1,60.019440415956616,
17.0,0.0,9.5,0,,,,,,,0,31,31,25,,,,,,,,,,,,,,,,,278.92312796499755,278.92312796499755,278.92312796499755,278.92312796499755,278.92312796499755,278.92312796499755,278.92312796499755,280.90652506399783,280.90652506399783,280.90652506399783,1,n,1.0480732549985987,282.9077608180014,284.90844351099804,284.90844351099804,284.90844351099804,284.90844351099804,284.90844351099804,284.90844351099804,9.5,0,285.8945504279982,286.890316953999,285.8945504279982,285.8945504279982,285.8945504279982,285.8945504279982,285.8945504279982,,,,,,,,,,,,,,,,,,,,001,2022-07-31_18h01.34.476,CGTriskyDMtask,2022.2.1,60.019440415956616,
16.26,0.0,9.87,0,,,,,,,0,32,32,29,,,,,,,,,,,,,,,,,286.890316953999,286.890316953999,286.890316953999,286.890316953999,286.890316953999,286.890316953999,286.890316953999,288.89294585699827,288.89294585699827,288.89294585699827,1,v,0.27669514599983813,290.8760953700039,292.8778799979991,292.8778799979991,292.8778799979991,292.8778799979991,292.8778799979991,292.8778799979991,0.0,1,293.87804025699734,294.8781870620005,293.87804025699734,293.87804025699734,293.87804025699734,293.87804025699734,293.87804025699734,,,,,,,,,,,,,,,,,,,,001,2022-07-31_18h01.34.476,CGTriskyDMtask,2022.2.1,60.019440415956616,
12.08,0.0,5.96,0,,,,,,,0,33,33,18,,,,,,,,,,,,,,,,,294.8781870620005,294.8781870620005,294.8781870620005,294.8781870620005,294.8781870620005,294.8781870620005,294.8781870620005,296.8517585340014,296.8517585340014,296.8517585340014,1,v,0.25439010400441475,298.86291686599725,300.86260509699787,300.86260509699787,300.86260509699787,300.86260509699787,300.86260509699787,300.86260509699787,0.0,1,301.84957785200095,302.8645594970003,301.84957785200095,301.84957785200095,301.84957785200095,301.84957785200095,301.84957785200095,,,,,,,,,,,,,,,,,,,,001,2022-07-31_18h01.34.476,CGTriskyDMtask,2022.2.1,60.019440415956616,
10.12,0.0,6.94,0,,,,,,,0,34,34,38,,,,,,,,,,,,,,,,,302.8645594970003,302.8645594970003,302.8645594970003,302.8645594970003,302.8645594970003,302.8645594970003,302.8645594970003,304.84843270700367,304.84843270700367,304.84843270700367,2,n,0.281865012999333,306.83463869400293,308.8498716890026,308.8498716890026,308.8498716890026,308.8498716890026,308.8498716890026,308.8498716890026,0.0,1,309.85002971900394,310.8492933430025,309.85002971900394,309.85002971900394,309.85002971900394,309.85002971900394,309.85002971900394,,,,,,,,,,,,,,,,,,,,001,2022-07-31_18h01.34.476,CGTriskyDMtask,2022.2.1,60.019440415956616,
0.0,0.0,10.25,1,,,,,,,0,35,35,46,,,,,,,,,,,,,,,,,310.8492933430025,310.8492933430025,310.8492933430025,310.8492933430025,310.8492933430025,310.8492933430025,310.8492933430025,312.8343907660019,312.8343907660019,312.8343907660019,1,n,0.10385555899847532,314.83485292299883,316.82606741900236,316.82606741900236,316.82606741900236,316.82606741900236,316.82606741900236,316.82606741900236,10.25,0,317.83611533600197,318.8364448939974,,,,,,,,,,,,,,,,,,,,,,,,,001,2022-07-31_18h01.34.476,CGTriskyDMtask,2022.2.1,60.019440415956616,
14.72,0.0,4.64,0,,,,,,,0,36,36,6,,,,,,,,,,,,,,,,,318.8364448939974,318.8364448939974,318.8364448939974,318.8364448939974,318.8364448939974,318.8364448939974,318.8364448939974,320.82004817000416,320.82004817000416,320.82004817000416,2,n,0.3185609860011027,322.8210569549992,324.82169419099955,324.82169419099955,324.82169419099955,324.82169419099955,324.82169419099955,324.82169419099955,14.72,1,325.8209641180001,326.81714805999945,,,,,,,,,,,,,,,,,,,,,,,,,001,2022-07-31_18h01.34.476,CGTriskyDMtask,2022.2.1,60.019440415956616,
15.09,0.0,10.46,0,,,,,,,0,37,37,39,,,,,,,,,,,,,,,,,326.81714805999945,326.81714805999945,326.81714805999945,326.81714805999945,326.81714805999945,326.81714805999945,326.81714805999945,328.8090151630022,328.8090151630022,328.8090151630022,1,v,0.2725244399989606,330.8068172530038,332.8076300149987,332.8076300149987,332.8076300149987,332.8076300149987,332.8076300149987,332.8076300149987,0.0,1,333.8078534849992,334.80822525900294,,,,,,,,,,,,,,,,,,,,,,,,,001,2022-07-31_18h01.34.476,CGTriskyDMtask,2022.2.1,60.019440415956616,
14.26,0.0,0.0,1,,,,,,,0,38,38,41,,,,,,,,,,,,,,,,,334.80822525900294,334.80822525900294,334.80822525900294,334.80822525900294,334.80822525900294,334.80822525900294,334.80822525900294,336.79167546999815,336.79167546999815,336.79167546999815,1,v,0.3302505570027279,338.7927026940015,340.793227260001,340.793227260001,340.793227260001,340.793227260001,340.793227260001,340.793227260001,14.26,1,341.7931585289989,342.79460344600375,341.7931585289989,341.7931585289989,341.7931585289989,341.7931585289989,341.7931585289989,,,,,,,,,,,,,,,,,,,,001,2022-07-31_18h01.34.476,CGTriskyDMtask,2022.2.1,60.019440415956616,
20.53,0.0,7.73,0,,,,,,,0,39,39,9,,,,,,,,,,,,,,,,,342.79460344600375,342.79460344600375,342.79460344600375,342.79460344600375,342.79460344600375,342.79460344600375,342.79460344600375,344.7779876700006,344.7779876700006,344.7779876700006,2,n,0.0555357319972245,346.7782981929995,348.77940651000245,348.77940651000245,348.77940651000245,348.77940651000245,348.77940651000245,348.77940651000245,0.0,1,349.7796646850038,350.78005180299806,,,,,,,,,,,,,,,,,,,,,,,,,001,2022-07-31_18h01.34.476,CGTriskyDMtask,2022.2.1,60.019440415956616,
12.68,0.0,5.66,0,,,,,,,0,40,40,14,,,,,,,,,,,,,,,,,350.78005180299806,350.78005180299806,350.78005180299806,350.78005180299806,350.78005180299806,350.78005180299806,350.78005180299806,352.7622844209982,352.7622844209982,352.7622844209982,2,n,0.6403217479964951,354.7645904210003,356.7559397790028,356.7559397790028,356.7559397790028,356.7559397790028,356.7559397790028,356.7559397790028,0.0,1,357.7511585980028,358.7661191549996,357.7511585980028,357.7511585980028,357.7511585980028,357.7511585980028,357.7511585980028,,,,,,,,,,,,,,,,,,,,001,2022-07-31_18h01.34.476,CGTriskyDMtask,2022.2.1,60.019440415956616,
18.33,0.0,8.84,0,,,,,,,0,41,41,17,,,,,,,,,,,,,,,,,358.7661191549996,358.7661191549996,358.7661191549996,358.7661191549996,358.7661191549996,358.7661191549996,358.7661191549996,360.7499831710011,360.7499831710011,360.7499831710011,2,n,0.4201033950012061,362.73606739800016,364.75128834500356,364.75128834500356,364.75128834500356,364.75128834500356,364.75128834500356,364.75128834500356,18.33,1,365.7515676250041,366.74713998600055,,,,,,,,,,,,,,,,,,,,,,,,,001,2022-07-31_18h01.34.476,CGTriskyDMtask,2022.2.1,60.019440415956616,
22.97,0.0,6.51,0,,,,,,,0,42,42,5,,,,,,,,,,,,,,,,,366.74713998600055,366.74713998600055,366.74713998600055,366.74713998600055,366.74713998600055,366.74713998600055,366.74713998600055,368.7363092700034,368.7363092700034,368.7363092700034,2,n,0.4421570030026487,370.7366116089979,372.7274580750018,372.7274580750018,372.7274580750018,372.7274580750018,372.7274580750018,372.7274580750018,22.97,1,373.73773111899936,374.7381597519998,,,,,,,,,,,,,,,,,,,,,,,,,001,2022-07-31_18h01.34.476,CGTriskyDMtask,2022.2.1,60.019440415956616,
15.47,0.0,10.27,0,,,,,,,0,43,43,35,,,,,,,,,,,,,,,,,374.7381597519998,374.7381597519998,374.7381597519998,374.7381597519998,374.7381597519998,374.7381597519998,374.7381597519998,376.7202298530028,376.7202298530028,376.7202298530028,2,v,0.5454851219983539,378.72277632199985,380.7140810760029,380.7140810760029,380.7140810760029,380.7140810760029,380.7140810760029,380.7140810760029,10.27,0,381.7092619169998,382.7053960850026,381.7092619169998,381.7092619169998,381.7092619169998,381.7092619169998,381.7092619169998,,,,,,,,,,,,,,,,,,,,001,2022-07-31_18h01.34.476,CGTriskyDMtask,2022.2.1,60.019440415956616,
10.68,0.0,10.68,1,,,,,,,0,44,44,48,,,,,,,,,,,,,,,,,382.7053960850026,382.7053960850026,382.7053960850026,382.7053960850026,382.7053960850026,382.7053960850026,382.7053960850026,384.70804599999974,384.70804599999974,384.70804599999974,2,v,0.40623553800105583,386.690811227003,388.69286501900206,388.69286501900206,388.69286501900206,388.69286501900206,388.69286501900206,388.69286501900206,10.68,0,389.6930483230026,390.6882635869988,,,,,,,,,,,,,,,,,,,,,,,,,001,2022-07-31_18h01.34.476,CGTriskyDMtask,2022.2.1,60.019440415956616,
13.94,0.0,5.03,0,,,,,,,0,45,45,8,,,,,,,,,,,,,,,,,390.6882635869988,390.6882635869988,390.6882635869988,390.6882635869988,390.6882635869988,390.6882635869988,390.6882635869988,392.6662840909994,392.6662840909994,392.6662840909994,1,v,0.5112671460010461,394.6779554160021,396.6687693790009,396.6687693790009,396.6687693790009,396.6687693790009,396.6687693790009,396.6687693790009,0.0,1,397.6641030530009,398.67946376799955,397.6641030530009,397.6641030530009,397.6641030530009,397.6641030530009,397.6641030530009,,,,,,,,,,,,,,,,,,,,001,2022-07-31_18h01.34.476,CGTriskyDMtask,2022.2.1,60.019440415956616,
17.59,0.0,9.2,0,,,,,,,0,46,46,21,,,,,,,,,,,,,,,,,398.67946376799955,398.67946376799955,398.67946376799955,398.67946376799955,398.67946376799955,398.67946376799955,398.67946376799955,400.6633664519977,400.6633664519977,400.6633664519977,1,v,0.4188711059978232,402.6494361520017,404.64793534699857,404.64793534699857,404.64793534699857,404.64793534699857,404.64793534699857,404.64793534699857,17.59,1,405.64842349399987,406.64689268099755,405.64842349399987,405.64842349399987,405.64842349399987,405.64842349399987,405.64842349399987,,,,,,,,,,,,,,,,,,,,001,2022-07-31_18h01.34.476,CGTriskyDMtask,2022.2.1,60.019440415956616,
10.55,0.0,6.73,0,,,,,,,0,47,47,32,,,,,,,,,,,,,,,,,406.64689268099755,406.64689268099755,406.64689268099755,406.64689268099755,406.64689268099755,406.64689268099755,406.64689268099755,408.6492347450039,408.6492347450039,408.6492347450039,2,v,0.5764293839965831,410.64995016700414,412.64075779799896,412.64075779799896,412.64075779799896,412.64075779799896,412.64075779799896,412.64075779799896,6.73,0,413.65098716899956,414.65043414499814,,,,,,,,,,,,,,,,,,,,,,,,,001,2022-07-31_18h01.34.476,CGTriskyDMtask,2022.2.1,60.019440415956616,
11.43,0.0,6.29,0,,,,,,,0,48,48,24,,,,,,,,,,,,,,,,,414.65043414499814,414.65043414499814,414.65043414499814,414.65043414499814,414.65043414499814,414.65043414499814,414.65043414499814,416.634465668998,416.634465668998,416.634465668998,2,n,0.31144399600452743,418.63587167300284,420.6273063039989,420.6273063039989,420.6273063039989,420.6273063039989,420.6273063039989,420.6273063039989,0.0,1,421.62276484200265,422.61861329899693,421.62276484200265,421.62276484200265,421.62276484200265,421.62276484200265,421.62276484200265,,,,,,,,,,,,,,,,,,,,001,2022-07-31_18h01.34.476,CGTriskyDMtask,2022.2.1,60.019440415956616,
11.62,0.0,6.19,0,,,,,,,0,49,49,22,,,,,,,,,,,,,,,,,422.61861329899693,422.61861329899693,422.61861329899693,422.61861329899693,422.61861329899693,422.61861329899693,422.61861329899693,424.6211800950041,424.6211800950041,424.6211800950041,1,v,0.37283178600046085,426.6073298249976,428.62265272100194,428.62265272100194,428.62265272100194,428.62265272100194,428.62265272100194,428.62265272100194,11.62,1,429.6228179030004,433.41366692099837,,,,,,,,,,,,,,,,,,,,,,,,,001,2022-07-31_18h01.34.476,CGTriskyDMtask,2022.2.1,60.019440415956616,
,,,,,,,,,,,,,,,,,,,,,,,,,,,,,,,,,,,,,,,,,,,,,,,,,,,,,,,,,,,../choiceset/bespoke_choicesets/bespoke_choiceset_rhoInd143_muInd016.csv,433.41366692099837,433.41366692099837,../choiceset/bespoke_choicesets/bespoke_choiceset_rhoInd143_muInd016.csv,143,16,return,10.220683253995958,,,,,,,,,,,,001,2022-07-31_18h01.34.476,CGTriskyDMtask,2022.2.1,60.019440415956616,
25.558707508060603,0,8.490326247527259,,0.9855970054798009,0,,,,,,,,,0,0,0,0,,,,,,,,,,,,,443.6726588149977,443.6726588149977,443.6726588149977,443.6726588149977,443.6726588149977,443.6726588149977,443.6726588149977,445.6445387959975,445.6445387959975,445.6445387959975,2,v,0.5579240630031563,447.64467168699775,449.64609467599803,449.64609467599803,449.64609467599803,449.64609467599803,449.64609467599803,449.64609467599803,8.490326247527259,0,450.6462207549994,451.6462347220004,450.6462207549994,450.6462207549994,450.6462207549994,450.6462207549994,450.6462207549994,,,,,,,,,,,,,,,,,,,,001,2022-07-31_18h01.34.476,CGTriskyDMtask,2022.2.1,60.019440415956616,
12.6627047083108,0,8.19767867181217,,0.541146081313834,1,,,,,,,,,0,1,1,1,,,,,,,,,,,,,451.6462347220004,451.6462347220004,451.6462347220004,451.6462347220004,451.6462347220004,451.6462347220004,451.6462347220004,453.63080709600035,453.63080709600035,453.63080709600035,1,v,0.45119350500317523,455.63134297000215,457.6316033490002,457.6316033490002,457.6316033490002,457.6316033490002,457.6316033490002,457.6316033490002,12.6627047083108,1,458.6325901360033,459.63282649699977,,,,,,,,,,,,,,,,,,,,,,,,,001,2022-07-31_18h01.34.476,CGTriskyDMtask,2022.2.1,60.019440415956616,
13.7974109796458,0,8.9409454955603,,0.538720431153695,1,,,,,,,,,0,2,2,2,,,,,,,,,,,,,459.63282649699977,459.63282649699977,459.63282649699977,459.63282649699977,459.63282649699977,459.63282649699977,459.63282649699977,461.61640535000333,461.61640535000333,461.61640535000333,1,v,0.44192017799650785,463.6174126390033,465.61779647700314,465.61779647700314,465.61779647700314,465.61779647700314,465.61779647700314,465.61779647700314,0,1,466.6179932360028,467.6182948429996,466.6179932360028,466.6179932360028,466.6179932360028,466.6179932360028,466.6179932360028,,,,,,,,,,,,,,,,,,,,001,2022-07-31_18h01.34.476,CGTriskyDMtask,2022.2.1,60.019440415956616,
14.853803854901303,0,9.66260329390643,,0.529049364497671,1,,,,,,,,,0,3,3,3,,,,,,,,,,,,,467.6182948429996,467.6182948429996,467.6182948429996,467.6182948429996,467.6182948429996,467.6182948429996,467.6182948429996,469.60256330700213,469.60256330700213,469.60256330700213,2,n,0.27144766000128584,471.60284555399994,473.6041612609988,473.6041612609988,473.6041612609988,473.6041612609988,473.6041612609988,473.6041612609988,0,1,474.6040955060016,475.60464360399783,474.6040955060016,474.6040955060016,474.6040955060016,474.6040955060016,474.6040955060016,,,,,,,,,,,,,,,,,,,,001,2022-07-31_18h01.34.476,CGTriskyDMtask,2022.2.1,60.019440415956616,
16.6506367349997,0,11.1409118954907,,0.45613042972101503,1,,,,,,,,,0,4,4,4,,,,,,,,,,,,,475.60464360399783,475.60464360399783,475.60464360399783,475.60464360399783,475.60464360399783,475.60464360399783,475.60464360399783,477.58805961100006,477.58805961100006,477.58805961100006,2,v,0.653521753003588,479.5891770669987,481.5895311889981,481.5895311889981,481.5895311889981,481.5895311889981,481.5895311889981,481.5895311889981,11.1409118954907,0,482.5896732500041,483.59076093699696,482.5896732500041,482.5896732500041,482.5896732500041,482.5896732500041,482.5896732500041,,,,,,,,,,,,,,,,,,,,001,2022-07-31_18h01.34.476,CGTriskyDMtask,2022.2.1,60.019440415956616,
17.2413933170727,0,11.299291668285198,,0.5101641669094891,1,,,,,,,,,0,5,5,5,,,,,,,,,,,,,483.59076093699696,483.59076093699696,483.59076093699696,483.59076093699696,483.59076093699696,483.59076093699696,483.59076093699696,485.57459469100286,485.57459469100286,485.57459469100286,1,n,0.2917844630064792,487.574690483998,489.5760240390009,489.5760240390009,489.5760240390009,489.5760240390009,489.5760240390009,489.5760240390009,11.299291668285198,0,490.5759608820008,491.5763422960008,,,,,,,,,,,,,,,,,,,,,,,,,001,2022-07-31_18h01.34.476,CGTriskyDMtask,2022.2.1,60.019440415956616,
8.17218036621343,0,5.41343614185462,,0.4824254475742129,1,,,,,,,,,0,6,6,6,,,,,,,,,,,,,491.5763422960008,491.5763422960008,491.5763422960008,491.5763422960008,491.5763422960008,491.5763422960008,491.5763422960008,493.5608499070004,493.5608499070004,493.5608499070004,2,None,,495.57773552800063,497.5778945780039,497.5778945780039,497.5778945780039,497.5778945780039,497.5778945780039,497.5778945780039,nan,nan,498.5792138340039,499.5792971129995,498.5792138340039,498.5792138340039,498.5792138340039,498.5792138340039,498.5792138340039,,,,,,,,,495.56107468799746,495.56107468799746,495.56107468799746,,,,,,,,,001,2022-07-31_18h01.34.476,CGTriskyDMtask,2022.2.1,60.019440415956616,
1.18576173271285,0,4.98700917554088,,6.81200310118337e-06,0,,,,,,,,,0,7,7,7,,,,,,,,,,,,,499.5792971129995,499.5792971129995,499.5792971129995,499.5792971129995,499.5792971129995,499.5792971129995,499.5792971129995,501.56276175699895,501.56276175699895,501.56276175699895,1,n,0.23143433099903632,503.56402083099965,505.56429892699816,505.56429892699816,505.56429892699816,505.56429892699816,505.56429892699816,505.56429892699816,4.98700917554088,0,506.56428030499956,507.564708979,506.56428030499956,506.56428030499956,506.56428030499956,506.56428030499956,506.56428030499956,,,,,,,,,,,,,,,,,,,,001,2022-07-31_18h01.34.476,CGTriskyDMtask,2022.2.1,60.019440415956616,
13.818637867318499,0,8.956660213007131,,0.538172750300794,1,,,,,,,,,0,8,8,8,,,,,,,,,,,,,507.564708979,507.564708979,507.564708979,507.564708979,507.564708979,507.564708979,507.564708979,509.54924395200214,509.54924395200214,509.54924395200214,1,n,0.3410322530035046,511.54951727799926,513.5506855299973,513.5506855299973,513.5506855299973,513.5506855299973,513.5506855299973,513.5506855299973,8.956660213007131,0,514.5506862149996,515.5513179219997,514.5506862149996,514.5506862149996,514.5506862149996,514.5506862149996,514.5506862149996,,,,,,,,,,,,,,,,,,,,001,2022-07-31_18h01.34.476,CGTriskyDMtask,2022.2.1,60.019440415956616,
10.533695264439999,0,6.98050845288672,,0.48139696666029497,1,,,,,,,,,0,9,9,9,,,,,,,,,,,,,515.5513179219997,515.5513179219997,515.5513179219997,515.5513179219997,515.5513179219997,515.5513179219997,515.5513179219997,517.5346139320027,517.5346139320027,517.5346139320027,2,n,0.31591901700448943,519.5357044350021,521.536179474002,521.536179474002,521.536179474002,521.536179474002,521.536179474002,521.536179474002,10.533695264439999,1,522.5362144730025,523.5375182749995,522.5362144730025,522.5362144730025,522.5362144730025,522.5362144730025,522.5362144730025,,,,,,,,,,,,,,,,,,,,001,2022-07-31_18h01.34.476,CGTriskyDMtask,2022.2.1,60.019440415956616,
8.7517888597562,0,5.70565803000936,,0.523497810400917,1,,,,,,,,,0,10,10,10,,,,,,,,,,,,,523.5375182749995,523.5375182749995,523.5375182749995,523.5375182749995,523.5375182749995,523.5375182749995,523.5375182749995,525.5210381270008,525.5210381270008,525.5210381270008,1,v,0.3291917980022845,527.5212084430023,529.5225430319988,529.5225430319988,529.5225430319988,529.5225430319988,529.5225430319988,529.5225430319988,8.7517888597562,1,530.5226065930037,531.5227833489989,530.5226065930037,530.5226065930037,530.5226065930037,530.5226065930037,530.5226065930037,,,,,,,,,,,,,,,,,,,,001,2022-07-31_18h01.34.476,CGTriskyDMtask,2022.2.1,60.019440415956616,
15.732037788117301,0,10.3923235668452,,0.489662173358302,1,,,,,,,,,0,11,11,11,,,,,,,,,,,,,531.5227833489989,531.5227833489989,531.5227833489989,531.5227833489989,531.5227833489989,531.5227833489989,531.5227833489989,533.5073451360004,533.5073451360004,533.5073451360004,2,n,0.39091971699963324,535.5076543250034,537.5078486959974,537.5078486959974,537.5078486959974,537.5078486959974,537.5078486959974,537.5078486959974,15.732037788117301,1,538.5088493980002,539.5090472310039,,,,,,,,,,,,,,,,,,,,,,,,,001,2022-07-31_18h01.34.476,CGTriskyDMtask,2022.2.1,60.019440415956616,
13.461652277945499,0,8.93154357575113,,0.47825944323927394,1,,,,,,,,,0,12,12,12,,,,,,,,,,,,,539.5090472310039,539.5090472310039,539.5090472310039,539.5090472310039,539.5090472310039,539.5090472310039,539.5090472310039,541.4928232040038,541.4928232040038,541.4928232040038,1,v,0.5576491969986819,543.493983680004,545.4943389219989,545.4943389219989,545.4943389219989,545.4943389219989,545.4943389219989,545.4943389219989,0,1,546.4944840270036,547.4946937040004,546.4944840270036,546.4944840270036,546.4944840270036,546.4944840270036,546.4944840270036,,,,,,,,,,,,,,,,,,,,001,2022-07-31_18h01.34.476,CGTriskyDMtask,2022.2.1,60.019440415956616,
9.444194570300171,0,6.1151522126398,,0.540697954589146,1,,,,,,,,,0,13,13,13,,,,,,,,,,,,,547.4946937040004,547.4946937040004,547.4946937040004,547.4946937040004,547.4946937040004,547.4946937040004,547.4946937040004,549.4788237800021,549.4788237800021,549.4788237800021,1,n,0.41146699900127714,551.4653345789993,553.4807644449975,553.4807644449975,553.4807644449975,553.4807644449975,553.4807644449975,553.4807644449975,6.1151522126398,0,554.4809116820034,555.4811788619991,554.4809116820034,554.4809116820034,554.4809116820034,554.4809116820034,554.4809116820034,,,,,,,,,,,,,,,,,,,,001,2022-07-31_18h01.34.476,CGTriskyDMtask,2022.2.1,60.019440415956616,
1.0330144608859,0,7.895069391734429,,4.73773119008701e-06,0,,,,,,,,,0,14,14,14,,,,,,,,,,,,,555.4811788619991,555.4811788619991,555.4811788619991,555.4811788619991,555.4811788619991,555.4811788619991,555.4811788619991,557.4632317510041,557.4632317510041,557.4632317510041,1,n,0.3467482350024511,559.4659497210014,561.466354369004,561.466354369004,561.466354369004,561.466354369004,561.466354369004,561.466354369004,7.895069391734429,0,562.4652206320025,563.4674255779973,,,,,,,,,,,,,,,,,,,,,,,,,001,2022-07-31_18h01.34.476,CGTriskyDMtask,2022.2.1,60.019440415956616,
15.1378879742115,0,10.0628943984513,,0.473263124291308,1,,,,,,,,,0,15,15,15,,,,,,,,,,,,,563.4674255779973,563.4674255779973,563.4674255779973,563.4674255779973,563.4674255779973,563.4674255779973,563.4674255779973,565.4511542910041,565.4511542910041,565.4511542910041,2,n,0.34351499199692626,567.437539479004,569.452581354999,569.452581354999,569.452581354999,569.452581354999,569.452581354999,569.452581354999,15.1378879742115,1,570.4519378780024,571.4475603180035,570.4519378780024,570.4519378780024,570.4519378780024,570.4519378780024,570.4519378780024,,,,,,,,,,,,,,,,,,,,001,2022-07-31_18h01.34.476,CGTriskyDMtask,2022.2.1,60.019440415956616,
2.2687586389482,0,9.97029832403641,,6.541238412872401e-06,0,,,,,,,,,0,16,16,16,,,,,,,,,,,,,571.4475603180035,571.4475603180035,571.4475603180035,571.4475603180035,571.4475603180035,571.4475603180035,571.4475603180035,573.437106778998,573.437106778998,573.437106778998,2,v,0.3168902640027227,575.4377033720011,577.4290623220004,577.4290623220004,577.4290623220004,577.4290623220004,577.4290623220004,577.4290623220004,9.97029832403641,0,578.4388419410025,579.4391914450025,,,,,,,,,,,,,,,,,,,,,,,,,001,2022-07-31_18h01.34.476,CGTriskyDMtask,2022.2.1,60.019440415956616,
14.4020444542286,0,9.615411210432649,,0.461865032528956,1,,,,,,,,,0,17,17,17,,,,,,,,,,,,,579.4391914450025,579.4391914450025,579.4391914450025,579.4391914450025,579.4391914450025,579.4391914450025,579.4391914450025,581.4214677850032,581.4214677850032,581.4214677850032,1,n,0.3246154230000684,583.4237778910028,585.424500975998,585.424500975998,585.424500975998,585.424500975998,585.424500975998,585.424500975998,9.615411210432649,0,586.4236144110037,587.4192475059972,586.4236144110037,586.4236144110037,586.4236144110037,586.4236144110037,586.4236144110037,,,,,,,,,,,,,,,,,,,,001,2022-07-31_18h01.34.476,CGTriskyDMtask,2022.2.1,60.019440415956616,
12.876112181833,0,8.525071873015259,,0.483756743096745,1,,,,,,,,,0,18,18,18,,,,,,,,,,,,,587.4192475059972,587.4192475059972,587.4192475059972,587.4192475059972,587.4192475059972,587.4192475059972,587.4192475059972,589.4089858730003,589.4089858730003,589.4089858730003,2,n,0.4258295000036014,591.3952523359985,593.4104835269973,593.4104835269973,593.4104835269973,593.4104835269973,593.4104835269973,593.4104835269973,0,1,594.4105348730009,595.4101960490007,594.4105348730009,594.4105348730009,594.4105348730009,594.4105348730009,594.4105348730009,,,,,,,,,,,,,,,,,,,,001,2022-07-31_18h01.34.476,CGTriskyDMtask,2022.2.1,60.019440415956616,
7.40328567128163,0,4.956509410426951,,0.454543664826361,1,,,,,,,,,0,19,19,19,,,,,,,,,,,,,595.4101960490007,595.4101960490007,595.4101960490007,595.4101960490007,595.4101960490007,595.4101960490007,595.4101960490007,597.3928164129975,597.3928164129975,597.3928164129975,2,v,0.28961405500012916,599.3955923050016,601.3868184879975,601.3868184879975,601.3868184879975,601.3868184879975,601.3868184879975,601.3868184879975,4.956509410426951,0,602.3821704540023,603.397099161004,602.3821704540023,602.3821704540023,602.3821704540023,602.3821704540023,602.3821704540023,,,,,,,,,,,,,,,,,,,,001,2022-07-31_18h01.34.476,CGTriskyDMtask,2022.2.1,60.019440415956616,
6.60759482459398,0,4.38964265430113,,0.474901896719398,1,,,,,,,,,0,20,20,20,,,,,,,,,,,,,603.397099161004,603.397099161004,603.397099161004,603.397099161004,603.397099161004,603.397099161004,603.397099161004,605.370663765003,605.370663765003,605.370663765003,2,n,0.391632215003483,607.3670574440039,609.3822330679977,609.3822330679977,609.3822330679977,609.3822330679977,609.3822330679977,609.3822330679977,0,1,610.3828001779984,611.3831022140002,,,,,,,,,,,,,,,,,,,,,,,,,001,2022-07-31_18h01.34.476,CGTriskyDMtask,2022.2.1,60.019440415956616,
10.087848568754302,0,6.71550454271492,,0.46950680785635096,1,,,,,,,,,0,21,21,21,,,,,,,,,,,,,611.3831022140002,611.3831022140002,611.3831022140002,611.3831022140002,611.3831022140002,611.3831022140002,611.3831022140002,613.3672442489988,613.3672442489988,613.3672442489988,2,n,0.3549550740062841,615.367700847004,617.3587114379989,617.3587114379989,617.3587114379989,617.3587114379989,617.3587114379989,617.3587114379989,10.087848568754302,1,618.3686980370039,619.368951784003,,,,,,,,,,,,,,,,,,,,,,,,,001,2022-07-31_18h01.34.476,CGTriskyDMtask,2022.2.1,60.019440415956616,
4.07818263676018,0,5.8235116442432595,,0.0001213209471254,0,,,,,,,,,0,22,22,22,,,,,,,,,,,,,619.368951784003,619.368951784003,619.368951784003,619.368951784003,619.368951784003,619.368951784003,619.368951784003,621.3424612160015,621.3424612160015,621.3424612160015,1,n,0.6196692140001687,623.3538516129993,625.3534448909995,625.3534448909995,625.3534448909995,625.3534448909995,625.3534448909995,625.3534448909995,5.8235116442432595,0,626.3545150479986,627.3529241470023,626.3545150479986,626.3545150479986,626.3545150479986,626.3545150479986,626.3545150479986,,,,,,,,,,,,,,,,,,,,001,2022-07-31_18h01.34.476,CGTriskyDMtask,2022.2.1,60.019440415956616,
24.664206368231696,0,1.5838993008248503,,0.9977735765638871,0,,,,,,,,,0,23,23,23,,,,,,,,,,,,,627.3529241470023,627.3529241470023,627.3529241470023,627.3529241470023,627.3529241470023,627.3529241470023,627.3529241470023,629.3555482489974,629.3555482489974,629.3555482489974,1,v,0.27805837000050815,631.3395578039999,633.3404238660005,633.3404238660005,633.3404238660005,633.3404238660005,633.3404238660005,633.3404238660005,0,1,634.3405487670025,635.3401837560014,634.3405487670025,634.3405487670025,634.3405487670025,634.3405487670025,634.3405487670025,,,,,,,,,,,,,,,,,,,,001,2022-07-31_18h01.34.476,CGTriskyDMtask,2022.2.1,60.019440415956616,
7.83825987632154,0,5.082404103165031,,0.5371997992248471,1,,,,,,,,,0,24,24,24,,,,,,,,,,,,,635.3401837560014,635.3401837560014,635.3401837560014,635.3401837560014,635.3401837560014,635.3401837560014,635.3401837560014,637.3230182659972,637.3230182659972,637.3230182659972,1,v,0.7105988439943758,639.3253890319975,641.325066423,641.325066423,641.325066423,641.325066423,641.325066423,641.325066423,7.83825987632154,1,642.3121153289976,643.3271598479987,642.3121153289976,642.3121153289976,642.3121153289976,642.3121153289976,642.3121153289976,,,,,,,,,,,,,,,,,,,,001,2022-07-31_18h01.34.476,CGTriskyDMtask,2022.2.1,60.019440415956616,
16.9017346772831,0,11.0325267849141,,0.520369074707303,1,,,,,,,,,0,25,25,25,,,,,,,,,,,,,643.3271598479987,643.3271598479987,643.3271598479987,643.3271598479987,643.3271598479987,643.3271598479987,643.3271598479987,645.3110786620018,645.3110786620018,645.3110786620018,2,v,0.2984546960069565,647.2966810790022,649.3121902790008,649.3121902790008,649.3121902790008,649.3121902790008,649.3121902790008,649.3121902790008,11.0325267849141,0,650.3126491259973,651.312010485999,650.3126491259973,650.3126491259973,650.3126491259973,650.3126491259973,650.3126491259973,,,,,,,,,,,,,,,,,,,,001,2022-07-31_18h01.34.476,CGTriskyDMtask,2022.2.1,60.019440415956616,
15.270005570794499,0,1.6757362286676698,,0.9973114477054591,0,,,,,,,,,0,26,26,26,,,,,,,,,,,,,651.312010485999,651.312010485999,651.312010485999,651.312010485999,651.312010485999,651.312010485999,651.312010485999,653.2969942819982,653.2969942819982,653.2969942819982,2,n,0.28107260300021153,655.2972449899971,657.2888953130023,657.2888953130023,657.2888953130023,657.2888953130023,657.2888953130023,657.2888953130023,15.270005570794499,1,658.2985173580018,659.2989481359982,,,,,,,,,,,,,,,,,,,,,,,,,001,2022-07-31_18h01.34.476,CGTriskyDMtask,2022.2.1,60.019440415956616,
4.71982999782776,0,10.0189706022618,,2.29692099299601e-05,0,,,,,,,,,0,27,27,27,,,,,,,,,,,,,659.2989481359982,659.2989481359982,659.2989481359982,659.2989481359982,659.2989481359982,659.2989481359982,659.2989481359982,661.2822901929976,661.2822901929976,661.2822901929976,1,n,0.44832112600124674,663.2837091859983,665.2839641390019,665.2839641390019,665.2839641390019,665.2839641390019,665.2839641390019,665.2839641390019,10.0189706022618,0,666.2707406289992,667.2664930030005,666.2707406289992,666.2707406289992,666.2707406289992,666.2707406289992,666.2707406289992,,,,,,,,,,,,,,,,,,,,001,2022-07-31_18h01.34.476,CGTriskyDMtask,2022.2.1,60.019440415956616,
21.5020758365397,0,0.33658741886029,,0.9980240227235471,0,,,,,,,,,0,28,28,28,,,,,,,,,,,,,667.2664930030005,667.2664930030005,667.2664930030005,667.2664930030005,667.2664930030005,667.2664930030005,667.2664930030005,669.2688173290007,669.2688173290007,669.2688173290007,2,n,0.29357911600527586,671.255225298999,673.2703395360004,673.2703395360004,673.2703395360004,673.2703395360004,673.2703395360004,673.2703395360004,21.5020758365397,1,674.2704247119982,675.2655535649974,674.2704247119982,674.2704247119982,674.2704247119982,674.2704247119982,674.2704247119982,,,,,,,,,,,,,,,,,,,,001,2022-07-31_18h01.34.476,CGTriskyDMtask,2022.2.1,60.019440415956616,
13.3739901430672,0,8.91517781901639,,0.465947896579094,1,,,,,,,,,0,29,29,29,,,,,,,,,,,,,675.2655535649974,675.2655535649974,675.2655535649974,675.2655535649974,675.2655535649974,675.2655535649974,675.2655535649974,677.2436808920029,677.2436808920029,677.2436808920029,2,n,0.478576688998146,679.2555039709987,681.2468511859988,681.2468511859988,681.2468511859988,681.2468511859988,681.2468511859988,681.2468511859988,13.3739901430672,1,682.2420430929997,683.2568952029978,682.2420430929997,682.2420430929997,682.2420430929997,682.2420430929997,682.2420430929997,,,,,,,,,,,,,,,,,,,,001,2022-07-31_18h01.34.476,CGTriskyDMtask,2022.2.1,60.019440415956616,
27.788123679393898,0,9.20067873671651,,0.985750900146192,0,,,,,,,,,0,30,30,30,,,,,,,,,,,,,683.2568952029978,683.2568952029978,683.2568952029978,683.2568952029978,683.2568952029978,683.2568952029978,683.2568952029978,685.2408141229971,685.2408141229971,685.2408141229971,2,n,0.3692189180001151,687.2269449290034,689.2422204140021,689.2422204140021,689.2422204140021,689.2422204140021,689.2422204140021,689.2422204140021,27.788123679393898,1,690.2423845770027,691.2416896930008,690.2423845770027,690.2423845770027,690.2423845770027,690.2423845770027,690.2423845770027,,,,,,,,,,,,,,,,,,,,001,2022-07-31_18h01.34.476,CGTriskyDMtask,2022.2.1,60.019440415956616,
10.236287170788302,0,11.5401598447352,,0.0006354166970066599,0,,,,,,,,,0,31,31,31,,,,,,,,,,,,,691.2416896930008,691.2416896930008,691.2416896930008,691.2416896930008,691.2416896930008,691.2416896930008,691.2416896930008,693.2270518090008,693.2270518090008,693.2270518090008,1,n,1.0707977769998251,695.2275669869996,697.2185987039993,697.2185987039993,697.2185987039993,697.2185987039993,697.2185987039993,697.2185987039993,11.5401598447352,0,698.228682879002,699.2287522810002,,,,,,,,,,,,,,,,,,,,,,,,,001,2022-07-31_18h01.34.476,CGTriskyDMtask,2022.2.1,60.019440415956616,
4.0569595146575,0,2.65118317883462,,0.5174640141689779,1,,,,,,,,,0,32,32,32,,,,,,,,,,,,,699.2287522810002,699.2287522810002,699.2287522810002,699.2287522810002,699.2287522810002,699.2287522810002,699.2287522810002,701.2018825799969,701.2018825799969,701.2018825799969,2,n,0.24840052000217838,703.2137621229995,705.2141064360039,705.2141064360039,705.2141064360039,705.2141064360039,705.2141064360039,705.2141064360039,4.0569595146575,1,706.2132248370035,707.2087417579969,,,,,,,,,,,,,,,,,,,,,,,,,001,2022-07-31_18h01.34.476,CGTriskyDMtask,2022.2.1,60.019440415956616,
7.191535913245749,0,4.7212760232389,,0.505676540608888,1,,,,,,,,,0,33,33,33,,,,,,,,,,,,,707.2087417579969,707.2087417579969,707.2087417579969,707.2087417579969,707.2087417579969,707.2087417579969,707.2087417579969,709.1989439489989,709.1989439489989,709.1989439489989,2,n,0.2835007579997182,711.1992191370009,713.2002825669988,713.2002825669988,713.2002825669988,713.2002825669988,713.2002825669988,713.2002825669988,0,1,714.2003110930018,715.200805145003,714.2003110930018,714.2003110930018,714.2003110930018,714.2003110930018,714.2003110930018,,,,,,,,,,,,,,,,,,,,001,2022-07-31_18h01.34.476,CGTriskyDMtask,2022.2.1,60.019440415956616,
3.5215591336833296,0,3.32019041767344,,0.00618971309632226,0,,,,,,,,,0,34,34,34,,,,,,,,,,,,,715.200805145003,715.200805145003,715.200805145003,715.200805145003,715.200805145003,715.200805145003,715.200805145003,717.1830465050007,717.1830465050007,717.1830465050007,1,v,0.6906282680065488,719.1851674760037,721.1860279500033,721.1860279500033,721.1860279500033,721.1860279500033,721.1860279500033,721.1860279500033,0,1,722.1722956290032,723.1868642749978,722.1722956290032,722.1722956290032,722.1722956290032,722.1722956290032,722.1722956290032,,,,,,,,,,,,,,,,,,,,001,2022-07-31_18h01.34.476,CGTriskyDMtask,2022.2.1,60.019440415956616,
17.036864820518502,0,5.852771028864661,,0.9838693046378181,0,,,,,,,,,0,35,35,35,,,,,,,,,,,,,723.1868642749978,723.1868642749978,723.1868642749978,723.1868642749978,723.1868642749978,723.1868642749978,723.1868642749978,725.170421609997,725.170421609997,725.170421609997,2,n,0.36026532699906966,727.1566239629974,729.1720908779971,729.1720908779971,729.1720908779971,729.1720908779971,729.1720908779971,729.1720908779971,17.036864820518502,1,730.1586208720037,731.1714322929984,730.1586208720037,730.1586208720037,730.1586208720037,730.1586208720037,730.1586208720037,,,,,,,,,,,,,,,,,,,,001,2022-07-31_18h01.34.476,CGTriskyDMtask,2022.2.1,60.019440415956616,
5.60204620959703,0,3.6274394798674603,,0.540633865904554,1,,,,,,,,,0,36,36,36,,,,,,,,,,,,,731.1714322929984,731.1714322929984,731.1714322929984,731.1714322929984,731.1714322929984,731.1714322929984,731.1714322929984,733.1568867480019,733.1568867480019,733.1568867480019,1,n,0.3727228779971483,735.1564564279979,737.1485387900029,737.1485387900029,737.1485387900029,737.1485387900029,737.1485387900029,737.1485387900029,3.6274394798674603,0,738.158729200004,739.1581622829981,,,,,,,,,,,,,,,,,,,,,,,,,001,2022-07-31_18h01.34.476,CGTriskyDMtask,2022.2.1,60.019440415956616,
29.772620490565902,0,0.209599675366189,,0.9980424363800471,0,,,,,,,,,0,37,37,37,,,,,,,,,,,,,739.1581622829981,739.1581622829981,739.1581622829981,739.1581622829981,739.1581622829981,739.1581622829981,739.1581622829981,741.1424804359995,741.1424804359995,741.1424804359995,2,n,0.2111162389992387,743.1433789060029,745.1441017180041,745.1441017180041,745.1441017180041,745.1441017180041,745.1441017180041,745.1441017180041,0,1,746.1431822630038,747.1388591049981,,,,,,,,,,,,,,,,,,,,,,,,,001,2022-07-31_18h01.34.476,CGTriskyDMtask,2022.2.1,60.019440415956616,
0.7947274479782209,0,5.42106652118964,,4.95357706934535e-06,0,,,,,,,,,0,38,38,38,,,,,,,,,,,,,747.1388591049981,747.1388591049981,747.1388591049981,747.1388591049981,747.1388591049981,747.1388591049981,747.1388591049981,749.1288417100004,749.1288417100004,749.1288417100004,1,n,0.2817385519956588,751.1282221520014,753.1301957449978,753.1301957449978,753.1301957449978,753.1301957449978,753.1301957449978,753.1301957449978,5.42106652118964,0,754.1302357029999,755.1303988500003,754.1302357029999,754.1302357029999,754.1302357029999,754.1302357029999,754.1302357029999,,,,,,,,,,,,,,,,,,,,001,2022-07-31_18h01.34.476,CGTriskyDMtask,2022.2.1,60.019440415956616,
6.28245099973865,0,4.16536367485532,,0.480089795994614,1,,,,,,,,,0,39,39,39,,,,,,,,,,,,,755.1303988500003,755.1303988500003,755.1303988500003,755.1303988500003,755.1303988500003,755.1303988500003,755.1303988500003,757.114144197003,757.114144197003,757.114144197003,1,n,0.34421403700252995,759.1152041750029,761.115675220004,761.115675220004,761.115675220004,761.115675220004,761.115675220004,761.115675220004,4.16536367485532,0,762.1156349459998,763.1168722310031,762.1156349459998,762.1156349459998,762.1156349459998,762.1156349459998,762.1156349459998,,,,,,,,,,,,,,,,,,,,001,2022-07-31_18h01.34.476,CGTriskyDMtask,2022.2.1,60.019440415956616,
6.833359594852659,0,7.714823501033241,,0.000627766129701351,0,,,,,,,,,0,40,40,40,,,,,,,,,,,,,763.1168722310031,763.1168722310031,763.1168722310031,763.1168722310031,763.1168722310031,763.1168722310031,763.1168722310031,765.1004500120034,765.1004500120034,765.1004500120034,2,v,0.2450928809994366,767.1007071979984,769.1018993980033,769.1018993980033,769.1018993980033,769.1018993980033,769.1018993980033,769.1018993980033,7.714823501033241,0,770.1018810559981,771.1021619489984,770.1018810559981,770.1018810559981,770.1018810559981,770.1018810559981,770.1018810559981,,,,,,,,,,,,,,,,,,,,001,2022-07-31_18h01.34.476,CGTriskyDMtask,2022.2.1,60.019440415956616,
0.27426924624014604,0,10.364309445698698,,3.87969224752674e-06,0,,,,,,,,,0,41,41,41,,,,,,,,,,,,,771.1021619489984,771.1021619489984,771.1021619489984,771.1021619489984,771.1021619489984,771.1021619489984,771.1021619489984,773.0866540069983,773.0866540069983,773.0866540069983,2,v,0.2677583240001695,775.0871191859987,777.087411747998,777.087411747998,777.087411747998,777.087411747998,777.087411747998,777.087411747998,10.364309445698698,0,778.0883879340035,779.0903186639989,,,,,,,,,,,,,,,,,,,,,,,,,001,2022-07-31_18h01.34.476,CGTriskyDMtask,2022.2.1,60.019440415956616,
15.9693248887779,0,10.3830373166827,,0.530319765903975,1,,,,,,,,,0,42,42,42,,,,,,,,,,,,,779.0903186639989,779.0903186639989,779.0903186639989,779.0903186639989,779.0903186639989,779.0903186639989,779.0903186639989,781.0738080500014,781.0738080500014,781.0738080500014,1,n,0.2819120939966524,783.075064071003,785.0893918459988,785.0893918459988,785.0893918459988,785.0893918459988,785.0893918459988,785.0893918459988,10.3830373166827,0,786.0908587049998,787.0857593399996,,,,,,,,,,,,,,,,,,,,,,,,,001,2022-07-31_18h01.34.476,CGTriskyDMtask,2022.2.1,60.019440415956616,
11.192906652588901,0,0.8916604618541899,,0.9976438519283191,0,,,,,,,,,0,43,43,43,,,,,,,,,,,,,787.0857593399996,787.0857593399996,787.0857593399996,787.0857593399996,787.0857593399996,787.0857593399996,787.0857593399996,789.0751901730036,789.0751901730036,789.0751901730036,1,v,0.4869585039996309,791.0759059650009,793.0766937189983,793.0766937189983,793.0766937189983,793.0766937189983,793.0766937189983,793.0766937189983,11.192906652588901,1,794.076794106004,795.0773850469996,794.076794106004,794.076794106004,794.076794106004,794.076794106004,794.076794106004,,,,,,,,,,,,,,,,,,,,001,2022-07-31_18h01.34.476,CGTriskyDMtask,2022.2.1,60.019440415956616,
3.61157048216555,0,10.425460949365501,,1.1231018593394802e-05,0,,,,,,,,,0,44,44,44,,,,,,,,,,,,,795.0773850469996,795.0773850469996,795.0773850469996,795.0773850469996,795.0773850469996,795.0773850469996,795.0773850469996,797.0592826119973,797.0592826119973,797.0592826119973,1,n,0.1192251300017233,799.0618154620024,801.0532216159991,801.0532216159991,801.0532216159991,801.0532216159991,801.0532216159991,801.0532216159991,10.425460949365501,0,802.0488709869969,803.0633501659977,,,,,,,,,,,,,,,,,,,,,,,,,001,2022-07-31_18h01.34.476,CGTriskyDMtask,2022.2.1,60.019440415956616,
5.86502638012171,0,9.40980076608248,,6.61462787451111e-05,0,,,,,,,,,0,45,45,45,,,,,,,,,,,,,803.0633501659977,803.0633501659977,803.0633501659977,803.0633501659977,803.0633501659977,803.0633501659977,803.0633501659977,805.047081536999,805.047081536999,805.047081536999,1,v,0.29857362499751616,807.0333474360013,809.0487554270003,809.0487554270003,809.0487554270003,809.0487554270003,809.0487554270003,809.0487554270003,0,1,810.0486500510015,811.0492134450033,810.0486500510015,810.0486500510015,810.0486500510015,810.0486500510015,810.0486500510015,,,,,,,,,,,,,,,,,,,,001,2022-07-31_18h01.34.476,CGTriskyDMtask,2022.2.1,60.019440415956616,
3.7130704173585403,0,2.4183871399960495,,0.525927410228909,1,,,,,,,,,0,46,46,46,,,,,,,,,,,,,811.0492134450033,811.0492134450033,811.0492134450033,811.0492134450033,811.0492134450033,811.0492134450033,811.0492134450033,813.0333528039992,813.0333528039992,813.0333528039992,1,n,0.5612187030055793,815.0337667540007,817.0245324839998,817.0245324839998,817.0245324839998,817.0245324839998,817.0245324839998,817.0245324839998,2.4183871399960495,0,818.0350632699992,819.0351543290017,,,,,,,,,,,,,,,,,,,,,,,,,001,2022-07-31_18h01.34.476,CGTriskyDMtask,2022.2.1,60.019440415956616,
11.2666174342972,0,7.437360506679401,,0.491470204784064,1,,,,,,,,,0,47,47,47,,,,,,,,,,,,,819.0351543290017,819.0351543290017,819.0351543290017,819.0351543290017,819.0351543290017,819.0351543290017,819.0351543290017,821.0086816769981,821.0086816769981,821.0086816769981,2,n,0.28959045500232605,823.0199883509995,825.0202705089978,825.0202705089978,825.0202705089978,825.0202705089978,825.0202705089978,825.0202705089978,0,1,826.0206874159994,827.0156240080032,826.0206874159994,826.0206874159994,826.0206874159994,826.0206874159994,826.0206874159994,,,,,,,,,,,,,,,,,,,,001,2022-07-31_18h01.34.476,CGTriskyDMtask,2022.2.1,60.019440415956616,
3.03832263605436,0,2.01182148923399,,0.48350315428537605,1,,,,,,,,,0,48,48,48,,,,,,,,,,,,,827.0156240080032,827.0156240080032,827.0156240080032,827.0156240080032,827.0156240080032,827.0156240080032,827.0156240080032,829.0050590739993,829.0050590739993,829.0050590739993,2,v,0.5252112060043146,830.9915339369982,833.0067002830037,833.0067002830037,833.0067002830037,833.0067002830037,833.0067002830037,833.0067002830037,2.01182148923399,0,834.0068026259978,835.0070992179972,834.0068026259978,834.0068026259978,834.0068026259978,834.0068026259978,834.0068026259978,,,,,,,,,,,,,,,,,,,,001,2022-07-31_18h01.34.476,CGTriskyDMtask,2022.2.1,60.019440415956616,
23.6717659394955,0,10.3522090868326,,0.9554608309662449,0,,,,,,,,,0,49,49,49,,,,,,,,,,,,,835.0070992179972,835.0070992179972,835.0070992179972,835.0070992179972,835.0070992179972,835.0070992179972,835.0070992179972,836.9805432139983,836.9805432139983,836.9805432139983,1,v,0.8051718600036111,838.9917126830042,840.9924121490039,840.9924121490039,840.9924121490039,840.9924121490039,840.9924121490039,840.9924121490039,0,1,841.991446840002,842.993486596999,,,,,,,,,,,,,,,,,,,,,,,,,001,2022-07-31_18h01.34.476,CGTriskyDMtask,2022.2.1,60.019440415956616,
19.9529026055709,0,0.8738725886447349,,0.9979074195066708,0,,,,,,,,,0,50,50,50,,,,,,,,,,,,,842.993486596999,842.993486596999,842.993486596999,842.993486596999,842.993486596999,842.993486596999,842.993486596999,844.9768365280033,844.9768365280033,844.9768365280033,1,v,0.29769497500092257,846.9634259529994,848.9786208509977,848.9786208509977,848.9786208509977,848.9786208509977,848.9786208509977,848.9786208509977,0,1,849.9777323369999,850.9779678100022,849.9777323369999,849.9777323369999,849.9777323369999,849.9777323369999,849.9777323369999,,,,,,,,,,,,,,,,,,,,001,2022-07-31_18h01.34.476,CGTriskyDMtask,2022.2.1,60.019440415956616,
14.245840877271302,0,9.378614356252369,,0.498475724841957,1,,,,,,,,,0,51,51,51,,,,,,,,,,,,,850.9779678100022,850.9779678100022,850.9779678100022,850.9779678100022,850.9779678100022,850.9779678100022,850.9779678100022,852.9632846239983,852.9632846239983,852.9632846239983,1,n,0.4308429299999261,854.9633608810036,856.9552665970041,856.9552665970041,856.9552665970041,856.9552665970041,856.9552665970041,856.9552665970041,9.378614356252369,0,857.9650082700027,858.9652757000003,,,,,,,,,,,,,,,,,,,,,,,,,001,2022-07-31_18h01.34.476,CGTriskyDMtask,2022.2.1,60.019440415956616,
8.33525214759866,0,8.204029050329702,,0.00269409897962805,0,,,,,,,,,0,52,52,52,,,,,,,,,,,,,858.9652757000003,858.9652757000003,858.9652757000003,858.9652757000003,858.9652757000003,858.9652757000003,858.9652757000003,860.948845191997,860.948845191997,860.948845191997,2,v,0.3972457000054419,862.9498805109979,864.9501996260005,864.9501996260005,864.9501996260005,864.9501996260005,864.9501996260005,864.9501996260005,8.204029050329702,0,865.9507538440012,866.9455914470018,,,,,,,,,,,,,,,,,,,,,,,,,001,2022-07-31_18h01.34.476,CGTriskyDMtask,2022.2.1,60.019440415956616,
16.7062083545956,0,11.1434155995375,,0.464306102965291,1,,,,,,,,,0,53,53,53,,,,,,,,,,,,,866.9455914470018,866.9455914470018,866.9455914470018,866.9455914470018,866.9455914470018,866.9455914470018,866.9455914470018,868.9351385409973,868.9351385409973,868.9351385409973,2,None,,870.9377436700015,872.9365468340038,872.9365468340038,872.9365468340038,872.9365468340038,872.9365468340038,872.9365468340038,nan,nan,873.9366434059993,874.9371881449988,873.9366434059993,873.9366434059993,873.9366434059993,873.9366434059993,873.9366434059993,,,,,,,,,870.934243294003,870.934243294003,870.934243294003,,,,,,,,,001,2022-07-31_18h01.34.476,CGTriskyDMtask,2022.2.1,60.019440415956616,
6.30695904472377,0,10.3808260852005,,5.87744764156043e-05,0,,,,,,,,,0,54,54,54,,,,,,,,,,,,,874.9371881449988,874.9371881449988,874.9371881449988,874.9371881449988,874.9371881449988,874.9371881449988,874.9371881449988,876.9205381310021,876.9205381310021,876.9205381310021,2,v,0.44993485199665884,878.9216414580005,880.9219766430033,880.9219766430033,880.9219766430033,880.9219766430033,880.9219766430033,880.9219766430033,10.3808260852005,0,881.9220476839982,882.9222265790013,,,,,,,,,,,,,,,,,,,,,,,,,001,2022-07-31_18h01.34.476,CGTriskyDMtask,2022.2.1,60.019440415956616,
22.5236617491813,0,3.7339172641048197,,0.9963197016007359,0,,,,,,,,,0,55,55,55,,,,,,,,,,,,,882.9222265790013,882.9222265790013,882.9222265790013,882.9222265790013,882.9222265790013,882.9222265790013,882.9222265790013,884.9068419070027,884.9068419070027,884.9068419070027,2,n,0.28734520899888594,886.9071680280031,888.9082949380027,888.9082949380027,888.9082949380027,888.9082949380027,888.9082949380027,888.9082949380027,22.5236617491813,1,889.9082838929971,890.9087056889985,889.9082838929971,889.9082838929971,889.9082838929971,889.9082838929971,889.9082838929971,,,,,,,,,,,,,,,,,,,,001,2022-07-31_18h01.34.476,CGTriskyDMtask,2022.2.1,60.019440415956616,
8.685239201982041,0,6.9547817488783,,0.0833659636903664,0,,,,,,,,,0,56,56,56,,,,,,,,,,,,,890.9087056889985,890.9087056889985,890.9087056889985,890.9087056889985,890.9087056889985,890.9087056889985,890.9087056889985,892.892233781,892.892233781,892.892233781,1,n,0.30144404000020586,894.8935080759984,896.8936956500038,896.8936956500038,896.8936956500038,896.8936956500038,896.8936956500038,896.8936956500038,6.9547817488783,0,897.8938701669977,898.8949906260023,897.8938701669977,897.8938701669977,897.8938701669977,897.8938701669977,897.8938701669977,,,,,,,,,,,,,,,,,,,,001,2022-07-31_18h01.34.476,CGTriskyDMtask,2022.2.1,60.019440415956616,
9.68756337333471,0,6.395911075477491,,0.491096216446228,1,,,,,,,,,0,57,57,57,,,,,,,,,,,,,898.8949906260023,898.8949906260023,898.8949906260023,898.8949906260023,898.8949906260023,898.8949906260023,898.8949906260023,900.878695829997,900.878695829997,900.878695829997,2,n,0.24358787600067444,902.8788940300001,904.8801406530038,904.8801406530038,904.8801406530038,904.8801406530038,904.8801406530038,904.8801406530038,9.68756337333471,1,905.880294912,906.8804280980039,905.880294912,905.880294912,905.880294912,905.880294912,905.880294912,,,,,,,,,,,,,,,,,,,,001,2022-07-31_18h01.34.476,CGTriskyDMtask,2022.2.1,60.019440415956616,
14.536741389555399,0,9.45951165885199,,0.528204832200244,1,,,,,,,,,0,58,58,58,,,,,,,,,,,,,906.8804280980039,906.8804280980039,906.8804280980039,906.8804280980039,906.8804280980039,906.8804280980039,906.8804280980039,908.8647364360004,908.8647364360004,908.8647364360004,2,n,0.2652700190010364,910.8653533239994,912.8656203089995,912.8656203089995,912.8656203089995,912.8656203089995,912.8656203089995,912.8656203089995,0,1,913.8665998130018,914.8667766439976,,,,,,,,,,,,,,,,,,,,,,,,,001,2022-07-31_18h01.34.476,CGTriskyDMtask,2022.2.1,60.019440415956616,
21.276971247408103,0,0.808138646604493,,0.9979380117889041,0,,,,,,,,,0,59,59,59,,,,,,,,,,,,,914.8667766439976,914.8667766439976,914.8667766439976,914.8667766439976,914.8667766439976,914.8667766439976,914.8667766439976,916.850159374997,916.850159374997,916.850159374997,1,v,0.33532467099576024,918.851492546004,920.8519726349987,920.8519726349987,920.8519726349987,920.8519726349987,920.8519726349987,920.8519726349987,0,1,921.8520704050025,922.8470093709984,921.8520704050025,921.8520704050025,921.8520704050025,921.8520704050025,921.8520704050025,,,,,,,,,,,,,,,,,,,,001,2022-07-31_18h01.34.476,CGTriskyDMtask,2022.2.1,60.019440415956616,
0.21278501928318302,0,4.5151921633048895,,3.975519445510119e-06,0,,,,,,,,,0,60,60,60,,,,,,,,,,,,,922.8470093709984,922.8470093709984,922.8470093709984,922.8470093709984,922.8470093709984,922.8470093709984,922.8470093709984,924.8368718130005,924.8368718130005,924.8368718130005,2,v,0.12588582500029588,926.8363733599981,928.838759737002,928.838759737002,928.838759737002,928.838759737002,928.838759737002,928.838759737002,4.5151921633048895,0,929.839384799001,930.8388073280003,,,,,,,,,,,,,,,,,,,,,,,,,001,2022-07-31_18h01.34.476,CGTriskyDMtask,2022.2.1,60.019440415956616,
12.198818700876998,0,7.97274719792185,,0.517163625063831,1,,,,,,,,,0,61,61,61,,,,,,,,,,,,,930.8388073280003,930.8388073280003,930.8388073280003,930.8388073280003,930.8388073280003,930.8388073280003,930.8388073280003,932.8211693129997,932.8211693129997,932.8211693129997,1,v,0.0770824349965551,934.823256730997,936.8236843859995,936.8236843859995,936.8236843859995,936.8236843859995,936.8236843859995,936.8236843859995,0,1,937.8235456080001,938.8249359620022,937.8235456080001,937.8235456080001,937.8235456080001,937.8235456080001,937.8235456080001,,,,,,,,,,,,,,,,,,,,001,2022-07-31_18h01.34.476,CGTriskyDMtask,2022.2.1,60.019440415956616,
8.51074920820538,0,5.6672532282304005,,0.46875342818194204,1,,,,,,,,,0,62,62,62,,,,,,,,,,,,,938.8249359620022,938.8249359620022,938.8249359620022,938.8249359620022,938.8249359620022,938.8249359620022,938.8249359620022,940.8085965959981,940.8085965959981,940.8085965959981,2,n,0.2173914919985691,942.8085719840019,944.8100463079973,944.8100463079973,944.8100463079973,944.8100463079973,944.8100463079973,944.8100463079973,0,1,945.8101306820026,946.8102708480001,945.8101306820026,945.8101306820026,945.8101306820026,945.8101306820026,945.8101306820026,,,,,,,,,,,,,,,,,,,,001,2022-07-31_18h01.34.476,CGTriskyDMtask,2022.2.1,60.019440415956616,
16.8754675602191,0,10.9369372920017,,0.538408855849888,1,,,,,,,,,0,63,63,63,,,,,,,,,,,,,946.8102708480001,946.8102708480001,946.8102708480001,946.8102708480001,946.8102708480001,946.8102708480001,946.8102708480001,948.7948380700036,948.7948380700036,948.7948380700036,1,v,0.5193558969986043,950.795183921,952.795389166,952.795389166,952.795389166,952.795389166,952.795389166,952.795389166,16.8754675602191,1,953.7964691369998,954.7966884900015,,,,,,,,,,,,,,,,,,,,,,,,,001,2022-07-31_18h01.34.476,CGTriskyDMtask,2022.2.1,60.019440415956616,
15.1024405299802,0,10.072197172849,,0.464689379733663,1,,,,,,,,,0,64,64,64,,,,,,,,,,,,,954.7966884900015,954.7966884900015,954.7966884900015,954.7966884900015,954.7966884900015,954.7966884900015,954.7966884900015,956.7802923549971,956.7802923549971,956.7802923549971,2,v,0.5824658819983597,958.7814844140012,960.7818797459986,960.7818797459986,960.7818797459986,960.7818797459986,960.7818797459986,960.7818797459986,10.072197172849,0,961.7819152939992,962.7821611350009,961.7819152939992,961.7819152939992,961.7819152939992,961.7819152939992,961.7819152939992,,,,,,,,,,,,,,,,,,,,001,2022-07-31_18h01.34.476,CGTriskyDMtask,2022.2.1,60.019440415956616,
9.713341503241098,0,6.3830763939535204,,0.503165210173874,1,,,,,,,,,0,65,65,65,,,,,,,,,,,,,962.7821611350009,962.7821611350009,962.7821611350009,962.7821611350009,962.7821611350009,962.7821611350009,962.7821611350009,964.7667010970035,964.7667010970035,964.7667010970035,2,n,0.4598534769975231,966.7670412540028,968.7682555439969,968.7682555439969,968.7682555439969,968.7682555439969,968.7682555439969,968.7682555439969,9.713341503241098,1,969.7682560789981,970.7684784369994,,,,,,,,,,,,,,,,,,,,,,,,,001,2022-07-31_18h01.34.476,CGTriskyDMtask,2022.2.1,60.019440415956616,
1.53061786325416,0,5.389304834813809,,8.30191260874877e-06,0,,,,,,,,,0,66,66,66,,,,,,,,,,,,,970.7684784369994,970.7684784369994,970.7684784369994,970.7684784369994,970.7684784369994,970.7684784369994,970.7684784369994,972.7520158629995,972.7520158629995,972.7520158629995,2,v,0.4265119199990295,974.7533213770002,976.753577497002,976.753577497002,976.753577497002,976.753577497002,976.753577497002,976.753577497002,5.389304834813809,0,977.7537576489995,978.7548599209986,977.7537576489995,977.7537576489995,977.7537576489995,977.7537576489995,977.7537576489995,,,,,,,,,,,,,,,,,,,,001,2022-07-31_18h01.34.476,CGTriskyDMtask,2022.2.1,60.019440415956616,
11.023461643979001,0,11.4240402986063,,0.001364688975233,0,,,,,,,,,0,67,67,67,,,,,,,,,,,,,978.7548599209986,978.7548599209986,978.7548599209986,978.7548599209986,978.7548599209986,978.7548599209986,978.7548599209986,980.7382154689985,980.7382154689985,980.7382154689985,2,v,0.27177723700151546,982.7387033769992,984.7400761149984,984.7400761149984,984.7400761149984,984.7400761149984,984.7400761149984,984.7400761149984,11.4240402986063,0,985.7401418700028,986.735759094001,985.7401418700028,985.7401418700028,985.7401418700028,985.7401418700028,985.7401418700028,,,,,,,,,,,,,,,,,,,,001,2022-07-31_18h01.34.476,CGTriskyDMtask,2022.2.1,60.019440415956616,
16.027085768932,0,10.702094857813801,,0.461437970323454,1,,,,,,,,,0,68,68,68,,,,,,,,,,,,,986.735759094001,986.735759094001,986.735759094001,986.735759094001,986.735759094001,986.735759094001,986.735759094001,988.7247700849985,988.7247700849985,988.7247700849985,1,v,1.5975127040001098,990.7254284660012,992.7243409869989,992.7243409869989,992.7243409869989,992.7243409869989,992.7243409869989,992.7243409869989,0,1,993.7264674460021,994.7267011919976,993.7264674460021,993.7264674460021,993.7264674460021,993.7264674460021,993.7264674460021,,,,,,,,,,,,,,,,,,,,001,2022-07-31_18h01.34.476,CGTriskyDMtask,2022.2.1,60.019440415956616,
10.611391992645801,0,10.0874196077581,,0.0053030359985739295,0,,,,,,,,,0,69,69,69,,,,,,,,,,,,,994.7267011919976,994.7267011919976,994.7267011919976,994.7267011919976,994.7267011919976,994.7267011919976,994.7267011919976,996.7088084990028,996.7088084990028,996.7088084990028,1,n,0.3013081180033623,998.7113427349977,1000.7121145869969,1000.7121145869969,1000.7121145869969,1000.7121145869969,1000.7121145869969,1000.7121145869969,10.0874196077581,0,1001.7111245460037,1002.7069783350016,1001.7111245460037,1001.7111245460037,1001.7111245460037,1001.7111245460037,1001.7111245460037,,,,,,,,,,,,,,,,,,,,001,2022-07-31_18h01.34.476,CGTriskyDMtask,2022.2.1,60.019440415956616,
26.7832235304173,0,6.226988940755839,,0.994078916104057,0,,,,,,,,,0,70,70,70,,,,,,,,,,,,,1002.7069783350016,1002.7069783350016,1002.7069783350016,1002.7069783350016,1002.7069783350016,1002.7069783350016,1002.7069783350016,1004.6964730160034,1004.6964730160034,1004.6964730160034,1,v,0.4180431610002415,1006.682878339001,1008.6980833050038,1008.6980833050038,1008.6980833050038,1008.6980833050038,1008.6980833050038,1008.6980833050038,0,1,1009.6980284130041,1010.6986743509988,1009.6980284130041,1009.6980284130041,1009.6980284130041,1009.6980284130041,1009.6980284130041,,,,,,,,,,,,,,,,,,,,001,2022-07-31_18h01.34.476,CGTriskyDMtask,2022.2.1,60.019440415956616,
25.529773042514,0,6.3934707528213,,0.993155241497923,0,,,,,,,,,0,71,71,71,,,,,,,,,,,,,1010.6986743509988,1010.6986743509988,1010.6986743509988,1010.6986743509988,1010.6986743509988,1010.6986743509988,1010.6986743509988,1012.6807858989996,1012.6807858989996,1012.6807858989996,2,n,0.29668544600281166,1014.6832542030024,1016.6742740359987,1016.6742740359987,1016.6742740359987,1016.6742740359987,1016.6742740359987,1016.6742740359987,0,1,1017.6693092170026,1018.6845845790012,1017.6693092170026,1017.6693092170026,1017.6693092170026,1017.6693092170026,1017.6693092170026,,,,,,,,,,,,,,,,,,,,001,2022-07-31_18h01.34.476,CGTriskyDMtask,2022.2.1,60.019440415956616,
13.9682604900794,0,9.23208819172578,,0.4882861310972279,1,,,,,,,,,0,72,72,72,,,,,,,,,,,,,1018.6845845790012,1018.6845845790012,1018.6845845790012,1018.6845845790012,1018.6845845790012,1018.6845845790012,1018.6845845790012,1020.6673963959984,1020.6673963959984,1020.6673963959984,1,n,0.35867469599907054,1022.6546627619973,1024.6702583549995,1024.6702583549995,1024.6702583549995,1024.6702583549995,1024.6702583549995,1024.6702583549995,9.23208819172578,0,1025.6703507240018,1026.669468537999,,,,,,,,,,,,,,,,,,,,,,,,,001,2022-07-31_18h01.34.476,CGTriskyDMtask,2022.2.1,60.019440415956616,
22.977142433740696,0,8.69491719747893,,0.9768301668542829,0,,,,,,,,,0,73,73,73,,,,,,,,,,,,,1026.669468537999,1026.669468537999,1026.669468537999,1026.669468537999,1026.669468537999,1026.669468537999,1026.669468537999,1028.6547003559972,1028.6547003559972,1028.6547003559972,2,n,0.299620590005361,1030.6552506040025,1032.6463155009988,1032.6463155009988,1032.6463155009988,1032.6463155009988,1032.6463155009988,1032.6463155009988,22.977142433740696,1,1033.6562772390025,1034.6565576420035,,,,,,,,,,,,,,,,,,,,,,,,,001,2022-07-31_18h01.34.476,CGTriskyDMtask,2022.2.1,60.019440415956616,
16.6569185216329,0,4.699913436814679,,0.991006681955644,0,,,,,,,,,0,74,74,74,,,,,,,,,,,,,1034.6565576420035,1034.6565576420035,1034.6565576420035,1034.6565576420035,1034.6565576420035,1034.6565576420035,1034.6565576420035,1036.6301720710035,1036.6301720710035,1036.6301720710035,2,n,0.3240565219966811,1038.6413172609973,1040.6326331489981,1040.6326331489981,1040.6326331489981,1040.6326331489981,1040.6326331489981,1040.6326331489981,16.6569185216329,1,1041.628243373998,1042.6238766520037,1041.628243373998,1041.628243373998,1041.628243373998,1041.628243373998,1041.628243373998,,,,,,,,,,,,,,,,,,,,001,2022-07-31_18h01.34.476,CGTriskyDMtask,2022.2.1,60.019440415956616,
14.957353905867802,0,9.94510547330137,,0.472678172349919,1,,,,,,,,,0,75,75,75,,,,,,,,,,,,,1042.6238766520037,1042.6238766520037,1042.6238766520037,1042.6238766520037,1042.6238766520037,1042.6238766520037,1042.6238766520037,1044.6267611139992,1044.6267611139992,1044.6267611139992,1,v,0.2946923850031453,1046.6092231150033,1048.6114628040013,1048.6114628040013,1048.6114628040013,1048.6114628040013,1048.6114628040013,1048.6114628040013,0,1,1049.6114582470036,1050.610923524,1049.6114582470036,1049.6114582470036,1049.6114582470036,1049.6114582470036,1049.6114582470036,,,,,,,,,,,,,,,,,,,,001,2022-07-31_18h01.34.476,CGTriskyDMtask,2022.2.1,60.019440415956616,
19.8846549895243,0,0.738866175501607,,0.9979420805791609,0,,,,,,,,,0,76,76,76,,,,,,,,,,,,,1050.610923524,1050.610923524,1050.610923524,1050.610923524,1050.610923524,1050.610923524,1050.610923524,1052.5940829000028,1052.5940829000028,1052.5940829000028,1,v,0.27219345300545683,1054.596505970003,1056.587710685002,1056.587710685002,1056.587710685002,1056.587710685002,1056.587710685002,1056.587710685002,19.8846549895243,1,1057.5831842519983,1058.5979652780006,1057.5831842519983,1057.5831842519983,1057.5831842519983,1057.5831842519983,1057.5831842519983,,,,,,,,,,,,,,,,,,,,001,2022-07-31_18h01.34.476,CGTriskyDMtask,2022.2.1,60.019440415956616,
27.373314854817,0,11.1514564999728,,0.9682380874283901,0,,,,,,,,,0,77,77,77,,,,,,,,,,,,,1058.5979652780006,1058.5979652780006,1058.5979652780006,1058.5979652780006,1058.5979652780006,1058.5979652780006,1058.5979652780006,1060.581817268001,1060.581817268001,1060.581817268001,1,v,0.43631805500626797,1062.5680962190017,1064.5832249270024,1064.5832249270024,1064.5832249270024,1064.5832249270024,1064.5832249270024,1064.5832249270024,0,1,1065.5832649479999,1066.582669755997,,,,,,,,,,,,,,,,,,,,,,,,,001,2022-07-31_18h01.34.476,CGTriskyDMtask,2022.2.1,60.019440415956616,
5.96394982166821,0,3.8994491148856496,,0.5161116016244071,1,,,,,,,,,0,78,78,78,,,,,,,,,,,,,1066.582669755997,1066.582669755997,1066.582669755997,1066.582669755997,1066.582669755997,1066.582669755997,1066.582669755997,1068.5678714940004,1068.5678714940004,1068.5678714940004,1,n,0.31454316699819174,1070.568552302997,1072.559094352997,1072.559094352997,1072.559094352997,1072.559094352997,1072.559094352997,1072.559094352997,3.8994491148856496,0,1073.5697338550017,1074.5699312729994,,,,,,,,,,,,,,,,,,,,,,,,,001,2022-07-31_18h01.34.476,CGTriskyDMtask,2022.2.1,60.019440415956616,
6.61135080633685,0,8.5184516895446,,0.000230450931705058,0,,,,,,,,,0,79,79,79,,,,,,,,,,,,,1074.5699312729994,1074.5699312729994,1074.5699312729994,1074.5699312729994,1074.5699312729994,1074.5699312729994,1074.5699312729994,1076.5436567529978,1076.5436567529978,1076.5436567529978,2,v,0.29788603000633884,1078.5543665150035,1080.555255117004,1080.555255117004,1080.555255117004,1080.555255117004,1080.555255117004,1080.555255117004,8.5184516895446,0,1081.5553107380038,1082.54994266,1081.5553107380038,1081.5553107380038,1081.5553107380038,1081.5553107380038,1081.5553107380038,,,,,,,,,,,,,,,,,,,,001,2022-07-31_18h01.34.476,CGTriskyDMtask,2022.2.1,60.019440415956616,
1.73547359481454,0,1.16084968341747,,0.45693052959012703,1,,,,,,,,,0,80,80,80,,,,,,,,,,,,,1082.54994266,1082.54994266,1082.54994266,1082.54994266,1082.54994266,1082.54994266,1082.54994266,1084.5395755510035,1084.5395755510035,1084.5395755510035,2,v,0.5429153110017069,1086.5402777780037,1088.5403820959982,1088.5403820959982,1088.5403820959982,1088.5403820959982,1088.5403820959982,1088.5403820959982,1.16084968341747,0,1089.5404924370014,1090.540815002998,1089.5404924370014,1089.5404924370014,1089.5404924370014,1089.5404924370014,1089.5404924370014,,,,,,,,,,,,,,,,,,,,001,2022-07-31_18h01.34.476,CGTriskyDMtask,2022.2.1,60.019440415956616,
10.0615132460603,0,6.64402305207914,,0.490618167014965,1,,,,,,,,,0,81,81,81,,,,,,,,,,,,,1090.540815002998,1090.540815002998,1090.540815002998,1090.540815002998,1090.540815002998,1090.540815002998,1090.540815002998,1092.5236667650024,1092.5236667650024,1092.5236667650024,2,n,0.7423762050020741,1094.5263307269997,1096.5175207490029,1096.5175207490029,1096.5175207490029,1096.5175207490029,1096.5175207490029,1096.5175207490029,0,1,1097.5130781949993,1098.5281554739995,1097.5130781949993,1097.5130781949993,1097.5130781949993,1097.5130781949993,1097.5130781949993,,,,,,,,,,,,,,,,,,,,001,2022-07-31_18h01.34.476,CGTriskyDMtask,2022.2.1,60.019440415956616,
17.825347327208103,0,11.735646881489101,,0.49836596503881103,1,,,,,,,,,0,82,82,82,,,,,,,,,,,,,1098.5281554739995,1098.5281554739995,1098.5281554739995,1098.5281554739995,1098.5281554739995,1098.5281554739995,1098.5281554739995,1100.5114881940026,1100.5114881940026,1100.5114881940026,2,n,0.2820916349955951,1102.497745665998,1104.5133216039976,1104.5133216039976,1104.5133216039976,1104.5133216039976,1104.5133216039976,1104.5133216039976,17.825347327208103,1,1105.5133819620023,1106.5081854460004,1105.5133819620023,1105.5133819620023,1105.5133819620023,1105.5133819620023,1105.5133819620023,,,,,,,,,,,,,,,,,,,,001,2022-07-31_18h01.34.476,CGTriskyDMtask,2022.2.1,60.019440415956616,
8.04503936088877,0,2.65377831290243,,0.985923348880558,0,,,,,,,,,0,83,83,83,,,,,,,,,,,,,1106.5081854460004,1106.5081854460004,1106.5081854460004,1106.5081854460004,1106.5081854460004,1106.5081854460004,1106.5081854460004,1108.4979847810027,1108.4979847810027,1108.4979847810027,1,v,0.5602801740024006,1110.497463574,1112.4892080889986,1112.4892080889986,1112.4892080889986,1112.4892080889986,1112.4892080889986,1112.4892080889986,8.04503936088877,1,1113.4997029259976,1114.4998256440012,,,,,,,,,,,,,,,,,,,,,,,,,001,2022-07-31_18h01.34.476,CGTriskyDMtask,2022.2.1,60.019440415956616,
7.15729326313594,0,4.7530803070287195,,0.47586234501417496,1,,,,,,,,,0,84,84,84,,,,,,,,,,,,,1114.4998256440012,1114.4998256440012,1114.4998256440012,1114.4998256440012,1114.4998256440012,1114.4998256440012,1114.4998256440012,1116.4737057480015,1116.4737057480015,1116.4737057480015,2,n,0.24142565800138982,1118.4845484660036,1120.4842040930016,1120.4842040930016,1120.4842040930016,1120.4842040930016,1120.4842040930016,1120.4842040930016,7.15729326313594,1,1121.471085930003,1122.4671703420026,1121.471085930003,1121.471085930003,1121.471085930003,1121.471085930003,1121.471085930003,,,,,,,,,,,,,,,,,,,,001,2022-07-31_18h01.34.476,CGTriskyDMtask,2022.2.1,60.019440415956616,
13.884279527619901,0,9.06762619266519,,0.519041283752954,1,,,,,,,,,0,85,85,85,,,,,,,,,,,,,1122.4671703420026,1122.4671703420026,1122.4671703420026,1122.4671703420026,1122.4671703420026,1122.4671703420026,1122.4671703420026,1124.4695983080019,1124.4695983080019,1124.4695983080019,2,n,0.4279932369972812,1126.4535147330025,1128.4543834599972,1128.4543834599972,1128.4543834599972,1128.4543834599972,1128.4543834599972,1128.4543834599972,0,1,1129.4545699470036,1130.4540628960021,,,,,,,,,,,,,,,,,,,,,,,,,001,2022-07-31_18h01.34.476,CGTriskyDMtask,2022.2.1,60.019440415956616,
7.3631423311424395,0,4.8448596045491295,,0.499859248874777,1,,,,,,,,,0,86,86,86,,,,,,,,,,,,,1130.4540628960021,1130.4540628960021,1130.4540628960021,1130.4540628960021,1130.4540628960021,1130.4540628960021,1130.4540628960021,1132.4383664479974,1132.4383664479974,1132.4383664479974,1,n,0.30713321900111623,1134.439564510998,1136.439908635999,1136.439908635999,1136.439908635999,1136.439908635999,1136.439908635999,1136.439908635999,4.8448596045491295,0,1137.4398960960025,1138.4411258999971,1137.4398960960025,1137.4398960960025,1137.4398960960025,1137.4398960960025,1137.4398960960025,,,,,,,,,,,,,,,,,,,,001,2022-07-31_18h01.34.476,CGTriskyDMtask,2022.2.1,60.019440415956616,
17.3154105464462,0,11.5214014238096,,0.470760080487993,1,,,,,,,,,0,87,87,87,,,,,,,,,,,,,1138.4411258999971,1138.4411258999971,1138.4411258999971,1138.4411258999971,1138.4411258999971,1138.4411258999971,1138.4411258999971,1140.424813931997,1140.424813931997,1140.424813931997,1,n,0.2333284199994523,1142.4249184240034,1144.426149478997,1144.426149478997,1144.426149478997,1144.426149478997,1144.426149478997,1144.426149478997,11.5214014238096,0,1145.4264485309977,1146.4268831439986,,,,,,,,,,,,,,,,,,,,,,,,,001,2022-07-31_18h01.34.476,CGTriskyDMtask,2022.2.1,60.019440415956616,
13.5550570953521,0,8.77002845800016,,0.542666980736539,1,,,,,,,,,0,88,88,88,,,,,,,,,,,,,1146.4268831439986,1146.4268831439986,1146.4268831439986,1146.4268831439986,1146.4268831439986,1146.4268831439986,1146.4268831439986,1148.4112785640027,1148.4112785640027,1148.4112785640027,2,n,0.2950108970035217,1150.4113816399986,1152.4117044860031,1152.4117044860031,1152.4117044860031,1152.4117044860031,1152.4117044860031,1152.4117044860031,13.5550570953521,1,1153.4127988649998,1154.4128121309986,,,,,,,,,,,,,,,,,,,,,,,,,001,2022-07-31_18h01.34.476,CGTriskyDMtask,2022.2.1,60.019440415956616,
14.845011081593098,0,9.89808848996181,,0.465332267558002,1,,,,,,,,,0,89,89,89,,,,,,,,,,,,,1154.4128121309986,1154.4128121309986,1154.4128121309986,1154.4128121309986,1154.4128121309986,1154.4128121309986,1154.4128121309986,1156.3965564750033,1156.3965564750033,1156.3965564750033,2,n,0.43762442000297597,1158.3978748189984,1160.3982325350007,1160.3982325350007,1160.3982325350007,1160.3982325350007,1160.3982325350007,1160.3982325350007,0,1,1161.398225773999,1162.3983936150034,1161.398225773999,1161.398225773999,1161.398225773999,1161.398225773999,1161.398225773999,,,,,,,,,,,,,,,,,,,,001,2022-07-31_18h01.34.476,CGTriskyDMtask,2022.2.1,60.019440415956616,
14.6766095054569,0,9.49423332016449,,0.5430428281673301,1,,,,,,,,,0,90,90,90,,,,,,,,,,,,,1162.3983936150034,1162.3983936150034,1162.3983936150034,1162.3983936150034,1162.3983936150034,1162.3983936150034,1162.3983936150034,1164.3829568939982,1164.3829568939982,1164.3829568939982,1,v,0.45161753200227395,1166.3832728569978,1168.3845489380037,1168.3845489380037,1168.3845489380037,1168.3845489380037,1168.3845489380037,1168.3845489380037,14.6766095054569,1,1169.3845794049994,1170.384763615999,1169.3845794049994,1169.3845794049994,1169.3845794049994,1169.3845794049994,1169.3845794049994,,,,,,,,,,,,,,,,,,,,001,2022-07-31_18h01.34.476,CGTriskyDMtask,2022.2.1,60.019440415956616,
18.7998082400532,0,4.93847136157565,,0.9924127540445301,0,,,,,,,,,0,91,91,91,,,,,,,,,,,,,1170.384763615999,1170.384763615999,1170.384763615999,1170.384763615999,1170.384763615999,1170.384763615999,1170.384763615999,1172.368387923998,1172.368387923998,1172.368387923998,2,n,1.066561802996148,1174.3695167080004,1176.3604188379977,1176.3604188379977,1176.3604188379977,1176.3604188379977,1176.3604188379977,1176.3604188379977,0,1,1177.355940473004,1178.3712330880007,1177.355940473004,1177.355940473004,1177.355940473004,1177.355940473004,1177.355940473004,,,,,,,,,,,,,,,,,,,,001,2022-07-31_18h01.34.476,CGTriskyDMtask,2022.2.1,60.019440415956616,
12.336901009152601,0,3.4747549173305696,,0.991047070850535,0,,,,,,,,,0,92,92,92,,,,,,,,,,,,,1178.3712330880007,1178.3712330880007,1178.3712330880007,1178.3712330880007,1178.3712330880007,1178.3712330880007,1178.3712330880007,1180.3451387809982,1180.3451387809982,1180.3451387809982,2,n,0.3051653780057677,1182.3412419930028,1184.355352063998,1184.355352063998,1184.355352063998,1184.355352063998,1184.355352063998,1184.355352063998,12.336901009152601,1,1185.3564250790005,1186.3517444960016,,,,,,,,,,,,,,,,,,,,,,,,,001,2022-07-31_18h01.34.476,CGTriskyDMtask,2022.2.1,60.019440415956616,
15.693477633071598,0,10.168403360014802,,0.5390216180581839,1,,,,,,,,,0,93,93,93,,,,,,,,,,,,,1186.3517444960016,1186.3517444960016,1186.3517444960016,1186.3517444960016,1186.3517444960016,1186.3517444960016,1186.3517444960016,1188.3410315880028,1188.3410315880028,1188.3410315880028,1,v,0.3967048039994552,1190.3405742910036,1192.3330461799997,1192.3330461799997,1192.3330461799997,1192.3330461799997,1192.3330461799997,1192.3330461799997,15.693477633071598,1,1193.3427014710032,1194.343096069002,,,,,,,,,,,,,,,,,,,,,,,,,001,2022-07-31_18h01.34.476,CGTriskyDMtask,2022.2.1,60.019440415956616,
4.50379763611127,0,2.9842704996233795,,0.481679256034836,1,,,,,,,,,0,94,94,94,,,,,,,,,,,,,1194.343096069002,1194.343096069002,1194.343096069002,1194.343096069002,1194.343096069002,1194.343096069002,1194.343096069002,1196.3167046969975,1196.3167046969975,1196.3167046969975,1,v,0.22158370700344676,1198.3276093309978,1200.3283556250026,1200.3283556250026,1200.3283556250026,1200.3283556250026,1200.3283556250026,1200.3283556250026,4.50379763611127,1,1201.3146089360016,1202.3102941070028,1201.3146089360016,1201.3146089360016,1201.3146089360016,1201.3146089360016,1201.3146089360016,,,,,,,,,,,,,,,,,,,,001,2022-07-31_18h01.34.476,CGTriskyDMtask,2022.2.1,60.019440415956616,
1.87557419979712,0,2.29287328372011,,0.000334514626920012,0,,,,,,,,,0,95,95,95,,,,,,,,,,,,,1202.3102941070028,1202.3102941070028,1202.3102941070028,1202.3102941070028,1202.3102941070028,1202.3102941070028,1202.3102941070028,1204.3127039399988,1204.3127039399988,1204.3127039399988,2,v,0.41705620600259863,1206.2955426679982,1208.2977563820023,1208.2977563820023,1208.2977563820023,1208.2977563820023,1208.2977563820023,1208.2977563820023,2.29287328372011,0,1209.297881172999,1210.298242899,1209.297881172999,1209.297881172999,1209.297881172999,1209.297881172999,1209.297881172999,,,,,,,,,,,,,,,,,,,,001,2022-07-31_18h01.34.476,CGTriskyDMtask,2022.2.1,60.019440415956616,
28.290961656405102,0,7.59881713436916,,0.992017661087696,0,,,,,,,,,0,96,96,96,,,,,,,,,,,,,1210.298242899,1210.298242899,1210.298242899,1210.298242899,1210.298242899,1210.298242899,1210.298242899,1212.296942934001,1212.296942934001,1212.296942934001,2,n,0.24980850800056942,1214.2826063980028,1216.2832365840004,1216.2832365840004,1216.2832365840004,1216.2832365840004,1216.2832365840004,1216.2832365840004,0,1,1217.2831565840024,1218.284567806004,1217.2831565840024,1217.2831565840024,1217.2831565840024,1217.2831565840024,1217.2831565840024,,,,,,,,,,,,,,,,,,,,001,2022-07-31_18h01.34.476,CGTriskyDMtask,2022.2.1,60.019440415956616,
22.482755650998996,0,1.07086243489757,,0.9978854435411211,0,,,,,,,,,0,97,97,97,,,,,,,,,,,,,1218.284567806004,1218.284567806004,1218.284567806004,1218.284567806004,1218.284567806004,1218.284567806004,1218.284567806004,1220.2678143890007,1220.2678143890007,1220.2678143890007,1,v,0.41558779499609955,1222.268196750003,1224.2693254920014,1224.2693254920014,1224.2693254920014,1224.2693254920014,1224.2693254920014,1224.2693254920014,22.482755650998996,1,1225.269737716997,1226.2698530889975,1225.269737716997,1225.269737716997,1225.269737716997,1225.269737716997,1225.269737716997,,,,,,,,,,,,,,,,,,,,001,2022-07-31_18h01.34.476,CGTriskyDMtask,2022.2.1,60.019440415956616,
5.17348140914692,0,5.507051577116361,,0.00105773761286275,0,,,,,,,,,0,98,98,98,,,,,,,,,,,,,1226.2698530889975,1226.2698530889975,1226.2698530889975,1226.2698530889975,1226.2698530889975,1226.2698530889975,1226.2698530889975,1228.2543055310016,1228.2543055310016,1228.2543055310016,2,v,0.36387237499729963,1230.2544777560033,1232.2547860150007,1232.2547860150007,1232.2547860150007,1232.2547860150007,1232.2547860150007,1232.2547860150007,5.507051577116361,0,1233.2558013130038,1234.2559211679982,,,,,,,,,,,,,,,,,,,,,,,,,001,2022-07-31_18h01.34.476,CGTriskyDMtask,2022.2.1,60.019440415956616,
0.7957037138403392,0,8.039311486261429,,4.37529303410962e-06,0,,,,,,,,,0,99,99,99,,,,,,,,,,,,,1234.2559211679982,1234.2559211679982,1234.2559211679982,1234.2559211679982,1234.2559211679982,1234.2559211679982,1234.2559211679982,1236.2397611639972,1236.2397611639972,1236.2397611639972,1,n,0.19462328400550177,1238.240933922003,1240.2412729429998,1240.2412729429998,1240.2412729429998,1240.2412729429998,1240.2412729429998,1240.2412729429998,8.039311486261429,0,1241.2414076459972,1242.2415183640042,1241.2414076459972,1241.2414076459972,1241.2414076459972,1241.2414076459972,1241.2414076459972,,,,,,,,,,,,,,,,,,,,001,2022-07-31_18h01.34.476,CGTriskyDMtask,2022.2.1,60.019440415956616,
10.7393562631449,0,6.97800882216543,,0.531971468341318,1,,,,,,,,,0,100,100,100,,,,,,,,,,,,,1242.2415183640042,1242.2415183640042,1242.2415183640042,1242.2415183640042,1242.2415183640042,1242.2415183640042,1242.2415183640042,1244.2260296739987,1244.2260296739987,1244.2260296739987,1,v,0.2881570579993422,1246.2263573739983,1248.227670207998,1248.227670207998,1248.227670207998,1248.227670207998,1248.227670207998,1248.227670207998,0,1,1249.2276590859983,1250.2279224310041,1249.2276590859983,1249.2276590859983,1249.2276590859983,1249.2276590859983,1249.2276590859983,,,,,,,,,,,,,,,,,,,,001,2022-07-31_18h01.34.476,CGTriskyDMtask,2022.2.1,60.019440415956616,
22.663452852203,0,4.85538707546657,,0.9948541472536221,0,,,,,,,,,0,101,101,101,,,,,,,,,,,,,1250.2279224310041,1250.2279224310041,1250.2279224310041,1250.2279224310041,1250.2279224310041,1250.2279224310041,1250.2279224310041,1252.2114596140018,1252.2114596140018,1252.2114596140018,1,v,0.35057795000466285,1254.2127205159995,1256.2129499209987,1256.2129499209987,1256.2129499209987,1256.2129499209987,1256.2129499209987,1256.2129499209987,0,1,1257.213080693,1258.2143064659977,1257.213080693,1257.213080693,1257.213080693,1257.213080693,1257.213080693,,,,,,,,,,,,,,,,,,,,001,2022-07-31_18h01.34.476,CGTriskyDMtask,2022.2.1,60.019440415956616,
1.2715914575499498,0,3.1209123891429003,,1.56578475853936e-05,0,,,,,,,,,0,102,102,102,,,,,,,,,,,,,1258.2143064659977,1258.2143064659977,1258.2143064659977,1258.2143064659977,1258.2143064659977,1258.2143064659977,1258.2143064659977,1260.1976437830017,1260.1976437830017,1260.1976437830017,1,n,0.6359424859983847,1262.198115209998,1264.1994927979977,1264.1994927979977,1264.1994927979977,1264.1994927979977,1264.1994927979977,1264.1994927979977,3.1209123891429003,0,1265.1995704389992,1266.1998377690034,,,,,,,,,,,,,,,,,,,,,,,,,001,2022-07-31_18h01.34.476,CGTriskyDMtask,2022.2.1,60.019440415956616,
10.1079609871726,0,10.996274543704901,,0.000867080084459208,0,,,,,,,,,0,103,103,103,,,,,,,,,,,,,1266.1998377690034,1266.1998377690034,1266.1998377690034,1266.1998377690034,1266.1998377690034,1266.1998377690034,1266.1998377690034,1268.1843337809987,1268.1843337809987,1268.1843337809987,2,v,0.31524435299797915,1270.184610481003,1272.1849774290022,1272.1849774290022,1272.1849774290022,1272.1849774290022,1272.1849774290022,1272.1849774290022,10.996274543704901,0,1273.1860051219992,1274.1860390400034,,,,,,,,,,,,,,,,,,,,,,,,,001,2022-07-31_18h01.34.476,CGTriskyDMtask,2022.2.1,60.019440415956616,
16.6533394798404,0,11.038363827031601,,0.48081374924751097,1,,,,,,,,,0,104,104,104,,,,,,,,,,,,,1274.1860390400034,1274.1860390400034,1274.1860390400034,1274.1860390400034,1274.1860390400034,1274.1860390400034,1274.1860390400034,1276.1698653290005,1276.1698653290005,1276.1698653290005,2,n,0.26403904800099554,1278.170710063001,1280.1713652580002,1280.1713652580002,1280.1713652580002,1280.1713652580002,1280.1713652580002,1280.1713652580002,16.6533394798404,1,1281.1714418949996,1282.1715171260003,1281.1714418949996,1281.1714418949996,1281.1714418949996,1281.1714418949996,1281.1714418949996,,,,,,,,,,,,,,,,,,,,001,2022-07-31_18h01.34.476,CGTriskyDMtask,2022.2.1,60.019440415956616,
24.038538084912602,0,3.80217635357985,,0.996490271384612,0,,,,,,,,,0,105,105,105,,,,,,,,,,,,,1282.1715171260003,1282.1715171260003,1282.1715171260003,1282.1715171260003,1282.1715171260003,1282.1715171260003,1282.1715171260003,1284.1557590500015,1284.1557590500015,1284.1557590500015,2,n,0.2384727759999805,1286.1563878040033,1288.1576937589998,1288.1576937589998,1288.1576937589998,1288.1576937589998,1288.1576937589998,1288.1576937589998,0,1,1289.1577414670028,1290.1578027389987,1289.1577414670028,1289.1577414670028,1289.1577414670028,1289.1577414670028,1289.1577414670028,,,,,,,,,,,,,,,,,,,,001,2022-07-31_18h01.34.476,CGTriskyDMtask,2022.2.1,60.019440415956616,
25.4872405597824,0,6.681027876352889,,0.992448574170297,0,,,,,,,,,0,106,106,106,,,,,,,,,,,,,1290.1578027389987,1290.1578027389987,1290.1578027389987,1290.1578027389987,1290.1578027389987,1290.1578027389987,1290.1578027389987,1292.1414577190008,1292.1414577190008,1292.1414577190008,1,v,0.34943061399826547,1294.1424470549973,1296.1432021209985,1296.1432021209985,1296.1432021209985,1296.1432021209985,1296.1432021209985,1296.1432021209985,0,1,1297.1428756399982,1298.1443012410018,1297.1428756399982,1297.1428756399982,1297.1428756399982,1297.1428756399982,1297.1428756399982,,,,,,,,,,,,,,,,,,,,001,2022-07-31_18h01.34.476,CGTriskyDMtask,2022.2.1,60.019440415956616,
29.6538995717186,0,10.392883471038699,,0.9826930961788299,0,,,,,,,,,0,107,107,107,,,,,,,,,,,,,1298.1443012410018,1298.1443012410018,1298.1443012410018,1298.1443012410018,1298.1443012410018,1298.1443012410018,1298.1443012410018,1300.1278080470001,1300.1278080470001,1300.1278080470001,1,v,0.26638093500514515,1302.1279825079982,1304.1292771200024,1304.1292771200024,1304.1292771200024,1304.1292771200024,1304.1292771200024,1304.1292771200024,29.6538995717186,1,1305.129575689003,1306.129821743998,1305.129575689003,1305.129575689003,1305.129575689003,1305.129575689003,1305.129575689003,,,,,,,,,,,,,,,,,,,,001,2022-07-31_18h01.34.476,CGTriskyDMtask,2022.2.1,60.019440415956616,
5.33490359891439,0,7.760289537848441,,0.000109305678226014,0,,,,,,,,,0,108,108,108,,,,,,,,,,,,,1306.129821743998,1306.129821743998,1306.129821743998,1306.129821743998,1306.129821743998,1306.129821743998,1306.129821743998,1308.1141965269999,1308.1141965269999,1308.1141965269999,2,v,0.22410244100319687,1310.1143934779975,1312.1146667450012,1312.1146667450012,1312.1146667450012,1312.1146667450012,1312.1146667450012,1312.1146667450012,7.760289537848441,0,1313.115739353998,1314.1158120140026,,,,,,,,,,,,,,,,,,,,,,,,,001,2022-07-31_18h01.34.476,CGTriskyDMtask,2022.2.1,60.019440415956616,
